id,timestamp,acc_x,acc_y,acc_z,gyro_x,gyro_y,gyro_z
0,1747666051140,0.753951388,0.6371260888,0.9018500807999998,-1.8341595480000001,-2.987693084,2.810542132
1,1747666051150,0.8505461794520548,0.7343615690410958,1.1689472890410957,-1.902452001369863,-3.1069193438356164,2.787327905479452
2,1747666051160,0.8697354257425742,0.7939810506930693,1.2875252247524753,-1.8277995712871289,-3.103703587128713,2.7260981643564355
3,1747666051170,0.8886124,1.061405,1.5414655,-1.4098769999999998,-2.8539624,2.4966063
4,1747666051180,0.8899030612612613,1.2374735414414415,1.600841853153153,-1.1385207387387386,-2.3400266144144144,2.229416099099099
5,1747666051190,0.88055855,1.3247427,1.6207842,-0.9963212000000001,-2.0402899,2.0702224
6,1747666051200,0.88055855,1.3247427,1.6207842,-0.9963212,-2.0402899,2.0702224
7,1747666051210,0.779804672972973,1.5239703891891891,1.624124044144144,-0.8768227475675676,-1.8481480243243242,1.8771724594594594
8,1747666051220,0.556005015873016,1.9651644777777777,1.6664732746031747,-0.39846350317460316,-1.3338921103174604,1.2153406886507938
9,1747666051230,0.3996995894915254,2.1970282457627115,1.775644759322034,0.17578424474576274,-1.1232258254237286,0.7256043841525424
10,1747666051240,0.35274144588709677,2.309214626612903,1.8451317903225808,0.9332444387096774,-0.7217471483870967,0.2093100279032258
11,1747666051250,0.40191921529411767,2.3442272882352944,1.8526958999999998,1.2355493882352941,-0.5218277825210084,-0.0022278618907563045
12,1747666051260,0.5010784868644068,2.3450488644067797,1.8415174398305083,1.5429421135593222,-0.25846329913559324,-0.293789961440678
13,1747666051270,0.73607665,2.3039005,1.7894278,1.7690657,0.027488936,-0.6230826
14,1747666051280,0.9433064887931034,2.2273883189655175,1.7153141396551725,1.9467643793103449,0.5077553730344827,-1.1315646620689654
15,1747666051290,1.125320788888889,2.0314104722222224,1.6133403722222224,2.0652190142857143,1.2501793619047616,-1.7701129142857144
16,1747666051300,1.289377525,1.6499154422413793,1.4316966551724137,2.2505749379310345,2.4049869551724137,-2.6890498362068964
17,1747666051310,1.2626239508474577,1.3333343949152543,1.3845409898305086,2.497817574576271,3.0092877983050847,-3.2032427728813557
18,1747666051320,1.0918921770491803,0.9453857019672132,1.3463358770491802,3.161538063934426,2.8008672704918034,-3.478627268852459
19,1747666051330,0.8628901633027524,0.5609106987155963,1.1760335394495414,4.086979701834863,2.041657347706422,-3.5883570403669722
20,1747666051340,0.8348253887096775,0.4703101054838709,1.0390225335483874,4.4109739072580645,1.674751114516129,-3.533481137096774
21,1747666051350,0.8495633,0.41611758,0.9327867600000002,4.6285257,1.4019357,-3.472769
22,1747666051360,1.0724834214285714,0.27350102035714285,0.6257714860714286,4.828409796428572,1.000597275,-3.5537958714285716
23,1747666051370,1.1053116612903224,0.20974753258064516,0.5196215154838709,4.77136990967742,0.8137315967741935,-3.759993867741936
24,1747666051380,1.0952801199999997,0.158930078,0.45430445266666664,4.613376266666666,0.7618303933333334,-3.893084893333333
25,1747666051390,1.0503952222222221,0.07191552742222222,0.40616549888888887,4.408206969047619,0.6416703261904763,-4.008846778571429
26,1747666051400,1.00170852,-0.05706058432,0.31048964,4.26848192,0.4610811,-4.04710456
27,1747666051410,0.9924649762711865,-0.09897555457627119,0.26075243406779663,4.25657113559322,0.40865848983050845,-4.034682244067797
28,1747666051420,0.9633155991935484,-0.22781956387096777,0.1380399560483871,4.236321008870967,0.24483380467741936,-3.931996807258064
29,1747666051430,1.0139590438016528,-0.2859443289256199,0.08655157520661157,4.159754869421487,0.035904742231404954,-3.885254468595041
30,1747666051440,1.1092560560975608,-0.48510443658536584,0.020574225162601625,3.7380779512195117,-0.7161773829268293,-4.011194398373984
31,1747666051450,1.0302578771428572,-0.8142734344537814,-0.04935288613445378,3.1657757495798315,-1.5523830613445377,-4.102755574789915
32,1747666051460,0.88739216,-1.0111293,-0.094206095,2.8154778,-1.8735237,-4.0317106
33,1747666051470,0.88739216,-1.0111293,-0.094206095,2.8154778000000005,-1.8735237,-4.0317106
34,1747666051480,0.7050079609734513,-1.0542885185840707,-0.08421702792035399,2.437411735221239,-1.961461260176991,-3.5154267474336285
35,1747666051490,0.21010616111111113,-1.0818244222222224,0.05984826066666667,0.7943817900000001,-1.5913185285714286,0.16140418317460317
36,1747666051500,0.43328819798387097,-1.0870093838709678,0.02100466887903226,0.5613063729032258,-1.3886149193548387,1.1772161548387097
37,1747666051510,0.6233222000000002,-1.1136333,0.017816179,0.44898596,-1.2577715,1.7171422
38,1747666051520,0.82690106992,-0.8437800976,-0.0620471602,0.22297558807999998,-0.8769581528,2.6188232632000004
39,1747666051530,0.84053314,-0.71948075,-0.12666571,0.086132,-0.6401868,2.9266553
40,1747666051540,0.85429411152,-0.6348846804,-0.1553238892,-0.07144191056,-0.40132381312,3.1675024792
41,1747666051550,0.861278,-0.503002,-0.18938842,-0.40683624,-0.07269296,3.6395352
42,1747666051560,0.8476300458267717,-0.43963360299212595,-0.25034701968503936,-1.060587087559055,-0.16676620346456691,4.449369193700788
43,1747666051570,0.88934463,-0.42002252,-0.21599068,-1.5027285,-0.40683624,4.995045
44,1747666051580,1.0648285401851851,-0.42170605101851855,-0.08851595438888887,-1.8438288740740743,-0.806342092037037,5.466723675925926
45,1747666051590,1.2173950717948718,-0.4206357717948718,0.013485727389743591,-2.0738248589743593,-1.091318547008547,5.796312598290598
46,1747666051600,1.6815071870967744,-0.33059521999999997,0.22083244193548385,-2.209046285483871,-1.6420845870967742,6.280236829032257
47,1747666051610,1.8046813000000002,-0.25751089625,0.263063195,-2.175994717857143,-1.7688803642857143,6.3404485625
48,1747666051620,1.9573140820512822,-0.033323198205128204,0.3328127328205128,-2.086334588034188,-1.9278333145299145,6.3152555008547
49,1747666051630,1.9708538208333333,0.2261393870833333,0.37826840208333334,-1.9812600208333333,-2.0250896608333333,6.209857623333333
50,1747666051640,1.94645038,0.42010648831999997,0.3987973384,-1.903558744,-2.0657850672,6.113040878399999
51,1747666051650,1.8999106111111113,0.5780944136752137,0.4375049323931624,-1.8629667384615385,-2.085697507692308,6.046720025641025
52,1747666051660,1.8716750999999998,0.7224094,0.51593703,-1.7983873,-2.1551325,6.02924
53,1747666051670,1.9148422042372881,0.8668582406779661,0.595290806440678,-1.5989035254237287,-2.2388469516949154,6.01765935338983
54,1747666051680,2.0320208,1.1246158,0.71045065,-1.3390167,-2.303573,5.9541035
55,1747666051690,2.2152579875000002,1.4871780156249998,0.6189406234375,-0.8898016078125,-2.17537701875,5.20823683203125
56,1747666051700,2.1805601521739133,1.6337488495652175,0.5952089452173913,-0.7949056737391305,-2.1297364869565216,4.928710233043478
57,1747666051710,1.8597516500000002,2.200031840909091,0.5234895121818182,-0.70903129,-1.89746964,3.9720902400000004
58,1747666051720,1.5561342206896551,2.712023006896552,0.469549304137931,-1.1342292344827585,-1.0917425689655174,3.292521513793104
59,1747666051730,1.4741058,2.9137995,0.56816524,-1.3866642,-0.5137377,2.8295279
60,1747666051740,1.421677524590164,3.028174224590164,0.6472758193442624,-1.4689406926229507,-0.1581289875819672,2.396389419672131
61,1747666051750,1.2630332134453781,3.202896587394958,0.8426866033613446,-1.3584513890756302,0.38661610037815125,1.1334835926050422
62,1747666051760,1.07434,3.3169823000000003,1.0938646,-0.9743194495652174,0.7707419852173912,-0.5003676968695652
63,1747666051770,1.0041744909090908,3.214510387603306,1.1320262107438017,-0.5673625132231405,0.8303930553719008,-1.486876276859504
64,1747666051780,1.0083544770491804,3.041759431147541,1.1113546237704919,-0.21535502960655736,0.917549644262295,-2.396674767213115
65,1747666051790,1.1466405047244095,2.582202541732283,1.1068745307086614,0.1857126656535433,1.4062887952755907,-3.7454987763779526
66,1747666051800,1.2957944161290322,2.295468629032258,1.1947705612903223,0.371548957016129,1.6873181806451614,-4.213842306451613
67,1747666051810,1.3142483,2.2616785,1.205887,0.5174029,1.8936822,-4.470923
68,1747666051820,1.50313232,2.0296450533333332,1.2217505533333333,0.7837604965833334,2.2140455033333333,-4.784994033333334
69,1747666051830,1.5840942512820513,1.9381211051282052,1.211731682051282,0.82772243,2.266921,-4.836831
70,1747666051840,1.9217028758064516,1.5861753258064515,1.106016251612903,1.4009110681451613,2.860859312903226,-5.671711454032258
71,1747666051850,2.4347273400000002,0.9106508480000001,0.9176552050000001,1.8099937,3.0952542,-6.4660087
72,1747666051860,2.4622996735537193,0.6681480851239671,0.8645132490909091,2.0410421041322313,3.0685376586776862,-6.898667887603305
73,1747666051870,2.430078,0.4937278,0.82442534,2.4132994599999997,3.027361575,-7.569088795833333
74,1747666051880,2.2799217791666666,0.31963362833333336,0.7967879176666667,2.6829202,3.0115657,-7.8545055
75,1747666051890,1.875262292063492,0.16081822292063494,0.7356931276190477,3.331135541269841,2.5503720984126983,-7.614668133333334
76,1747666051900,1.4484798,0.010982576,0.66749656,4.0610323,2.0207422,-7.326107
77,1747666051910,1.4145094939655174,0.00633707248275862,0.5217438746551725,4.201652337068966,1.846692971551724,-7.162595201724138
78,1747666051920,1.3915683467213114,0.001520356426229508,0.41850213118852464,4.302409040163935,1.712380381967213,-7.0442026631147545
79,1747666051930,1.415532,-0.19841854,-0.060770255,4.4996333,1.0873401,-6.7659435
80,1747666051940,1.394450103968254,-0.29613054333333333,-0.17483408682539683,4.493708891269841,0.9462011463015874,-6.709472356349206
81,1747666051950,1.1480295612903226,-0.9018230296774193,-0.8403677741935485,3.779250636290323,-0.5955000193548387,-5.633428621774193
82,1747666051960,0.9441041699115045,-1.2814690663716815,-1.2461173876106195,1.9782087458407083,-0.9690268982300885,-4.276667576106195
83,1747666051970,0.921072,-1.3496367,-1.1270564,0.65484756,-0.8906415,-3.3603697
84,1747666051980,0.9051043161739131,-1.3437707904347826,-0.8750874448695652,0.13264275495652175,-0.6859644677391304,-2.9049723295652172
85,1747666051990,0.8708803806722689,-1.3275791411764706,-0.29025585731092435,-1.002655718487395,0.1409045361344538,-1.2774886315966387
86,1747666052000,0.8618823323809524,-1.235998876190476,0.3942338047619048,-0.44165557999999994,0.5703736071428571,0.9272497985714286
87,1747666052010,0.8826629528301887,-1.1837236905660375,0.42306632339622646,-0.18730512754716977,0.39739665773584903,1.316760371698113
88,1747666052020,1.056157725,-0.910257264375,0.237879548125,0.56226328921875,-0.34269062765624997,2.3748389328124997
89,1747666052030,1.136773268141593,-0.7908815528318583,0.0862040482300885,1.017852842477876,-1.0591484380530973,3.416072001769911
90,1747666052040,1.186477105882353,-0.6869493799999999,-0.05864552294117647,1.0381731714285716,-1.2256266798319326,3.8055518268907558
91,1747666052050,1.2228437092436975,-0.4957397334453782,-0.2768162821008403,0.5787306628571429,-1.1620197168067226,4.440415340336134
92,1747666052060,1.2266737931034484,-0.4429891334482759,-0.33226289551724136,0.31248916968965523,-1.0777558931034483,4.678764379310345
93,1747666052070,1.2244352,-0.39805737,-0.375116,-0.015271631,-0.9560041,4.937013
94,1747666052080,1.2422741559322033,-0.36708898881355934,-0.372261768220339,-0.36342341279661017,-0.8285714084745763,5.184485918644068
95,1747666052090,1.2549424,-0.34509695,-0.37023485,-0.61941737,-0.7348709,5.3664513
96,1747666052100,1.2549424,-0.34509695,-0.37023485,-0.61941737,-0.7348709,5.3664513
97,1747666052110,1.4045495,-0.22502078,0.00048811449,-1.8173242,-0.93645644,6.618114
98,1747666052120,1.46231778,-0.11290087914,0.20434913500000002,-1.8173242,-0.93645644,6.618114
99,1747666052130,1.5826617115942028,0.18539862110434785,0.3320805633333333,-1.2656950202898551,-1.785461720289855,7.159491014492754
100,1747666052140,1.6275364333333333,0.36628926166666664,0.28119463,-0.9896016714285715,-1.8761416714285715,7.352723214285715
101,1747666052150,1.8043370162601626,0.6313681678861789,0.25800819065040653,-0.8532893487804878,-1.7618395975609757,7.370148687804878
102,1747666052160,1.935795490909091,0.8334776781818182,0.2597434627272727,-0.7673022818181817,-1.6702721181818183,7.307891836363637
103,1747666052170,2.0300303395348838,1.0075685655813953,0.28767916007751937,-0.7123541015503876,-1.6155728356589145,7.171813651162791
104,1747666052180,2.136477,1.2039344,0.33411437,-0.6395758999999999,-1.5314392,6.9534793
105,1747666052190,2.1768744650793654,1.5108925365079364,0.3668606411904762,-0.5727007365079364,-1.3847830706349207,6.616756466666667
106,1747666052200,2.19792974015748,1.7060715826771653,0.3835791809448819,-0.5764692281889763,-1.3637591053543308,6.566377977165354
107,1747666052210,2.0857131,2.1538053,0.27871338,-0.9052921932231406,-0.7844822279338843,5.19041096446281
108,1747666052220,2.076034865625,2.4575421375,0.19304929031249998,-1.2253957,-0.5143485,4.6407433
109,1747666052230,2.093847808695652,2.7464208704347826,0.10047518852173913,-1.5353009208695654,-0.26800515833043476,4.251138696521739
110,1747666052240,1.6118442655462186,3.069770682352941,0.46712146399159665,-2.9732453151260505,0.9995912075126051,2.8388396470588235
111,1747666052250,0.8935503439655172,3.330638792241379,1.2669074818965518,-3.742671225862069,1.7893876318965518,1.2296822836206898
112,1747666052260,0.6765267,3.4822087,1.6464102,-3.3658676,1.4569136,0.9437868
113,1747666052270,0.7316636295081967,3.267050272131147,1.704079737704918,-2.2648079836065573,0.8021361583606558,0.3052323467213115
114,1747666052280,0.9125026749999999,2.945888718103448,1.6439233215517242,0.09146128448275861,0.02730989056896552,-1.4446015568965516
115,1747666052290,1.146471548,2.8310699,1.3661152344,1.1287030744000002,-0.041172317896,-2.4612591944
116,1747666052300,1.2781278,2.7585793,1.172451,1.5103512538461539,0.01128795452991453,-3.230934064957265
117,1747666052310,1.7710044829268292,2.6459555926829266,0.5474263658536586,1.4569136,0.28405234,-3.998113
118,1747666052320,2.08182052,2.288122175,0.11013083150000001,0.430110245,1.513296471,-4.73533587
119,1747666052330,2.2094906547826088,1.81464416,-0.007839544260869562,-0.5253972304347826,2.8965901869565216,-5.390275104347825
120,1747666052340,2.1743003767999998,1.1143887936,0.36901064567999997,-0.8430038024000001,4.0099785008,-6.1294074088
121,1747666052350,2.147704,0.7902574,0.57451075,-0.8588765,4.501466,-6.5661907
122,1747666052360,1.9918527017699115,0.3336716143362832,0.8178163867256637,0.07739068734513274,4.308427303539823,-6.967150688495575
123,1747666052370,1.9252692524193549,0.11213642722580645,0.8784053254032258,0.784656419516129,4.098516665322581,-7.140842331451613
124,1747666052380,1.900718,0.012690976,0.8756774,1.2272283,3.9498546,-7.2094316
125,1747666052390,1.7778692504,-0.172607050816,0.6578924339200001,2.9638301904,3.2957156832,-7.4068532304
126,1747666052400,1.5933239419354839,-0.30903947483870964,0.43002884645161293,3.4026524024193545,3.050429436290323,-7.416105928225807
127,1747666052410,1.5551329,-0.34558508,0.38170552,3.717115,2.814867,-7.3884153
128,1747666052420,1.4761309297520662,-0.41277544826446283,0.2591363537190083,4.030201148760331,2.5420072314049587,-7.237688159504132
129,1747666052430,1.324633372413793,-0.5045946521551724,-0.15308490332758617,4.325326068965517,2.122967379310345,-6.925442299999999
130,1747666052440,1.2261436,-0.5608435,-0.45760733,4.019084322580645,0.7545319016129032,-5.979400383870968
131,1747666052450,1.2261436,-0.5608435,-0.45760733,4.0091085,0.7244862,-5.9589906
132,1747666052460,1.052357907826087,-0.9299515066086957,-0.6141393042608696,1.5094267391304348,0.40344196455652176,-4.1523963330434785
133,1747666052470,0.8716117403100776,-1.2904991062015505,-0.4236720412403101,-0.16439851108527134,0.5654765531782946,-2.39416561627907
134,1747666052480,0.8599652264655172,-1.3318667370689656,-0.34993390517241385,-0.31581733,0.60048056,-2.1539109
135,1747666052490,0.8720344449593496,-1.382683493495935,-0.08924756593495935,-0.659342128292683,0.4471086705691057,-1.0328539488455284
136,1747666052500,0.9127902388429753,-1.3732556842975208,0.051435571859504134,-0.89736104,0.23701571,0.009773843999999999
137,1747666052510,1.1131451,-1.1646413,0.2923806,-0.6101635014876033,-0.07433372702479339,1.011814942446281
138,1747666052520,1.169026292682927,-0.9973250918699187,0.26730420276422767,-0.22907445999999998,-0.48747048,2.3414464
139,1747666052530,1.1946602,-0.8278422,0.19988288,0.08578444103448275,-0.4787814205172414,2.6602864068965517
140,1747666052540,1.0190184333333332,-0.4922402274603174,-0.25452072507936513,0.5503895904761905,-0.5309000857142857,3.486236904761905
141,1747666052550,0.9411661444715447,-0.39317226747967476,-0.42109200601626023,0.43300414227642275,-0.5918290991869919,3.7288702520325203
142,1747666052560,0.90081537,-0.3482697,-0.50031734,0.2779437,-0.6414085,3.879605
143,1747666052570,0.8194404817322835,-0.25322573881889765,-0.5724045641732284,-0.23490895000000003,-0.7542502448818897,4.23881777952756
144,1747666052580,0.7630083689999999,-0.149753535,-0.6110705585,-0.781876979,-0.9010568099999999,4.63286275
145,1747666052590,0.874970704347826,-0.07896631339130436,-0.48027494400000004,-1.689796695652174,-1.1747682652173914,5.318404977391304
146,1747666052600,0.96507559,-0.0447356913,-0.371748005,-1.98048618,-1.3062741700000002,5.52130545
147,1747666052610,1.0645777,0.009518232,-0.22502078,-2.189952,-1.4789047,5.6779923
148,1747666052620,1.2197923608,0.13520966312,0.046284970239999994,-2.20675308,-1.8480237496,5.8497724416
149,1747666052630,1.2810247095652174,0.2273955564347826,0.1736010976521739,-2.028789674782609,-2.0501647060869566,5.957003855652173
150,1747666052640,1.3856287864406778,0.37434863889830505,0.33382480245762713,-1.8668041999999998,-2.2009475,6.043900999999999
151,1747666052650,1.462391,0.4554108,0.39561680000000005,-1.6808843919354841,-2.2780496217741937,6.147250056451613
152,1747666052660,1.5799512081300813,0.5685264292682927,0.44895221983739836,-1.4988844829268293,-2.3278435902439023,6.1893610243902435
153,1747666052670,1.8246077008130082,0.8933110325203252,0.5332988198373984,-1.263900099186992,-2.3229566040650407,6.032472939837398
154,1747666052680,1.9952521226890756,1.1810606655462184,0.6007233381512606,-1.0340306789915965,-2.2616232789915967,5.777635245378151
155,1747666052690,1.9960677474576272,1.4166592508474576,0.6530992497457627,-0.7135320402542373,-1.9845303169491526,5.142496573728813
156,1747666052700,1.9619721876033058,1.641813508264463,0.658682281322314,-0.4896009232231405,-1.6785515917355374,4.617000215702479
157,1747666052710,1.9190221,1.8428763,0.6245425,-0.32375857,-1.4080443,4.1563272
158,1747666052720,1.7973410512,1.9954549560000001,0.5847182103999999,-0.27371649232000006,-1.1707305392,3.5665587072
159,1747666052730,1.6141946769230768,2.184068292307692,0.5650488484615385,-0.23485941538461538,-0.9470551769230768,2.762739854700855
160,1747666052740,1.52321624,2.2561953758333333,0.5405379866666666,-0.2302962,-0.9242391,2.615725
161,1747666052750,1.3139362081967212,2.395694016393443,0.46084409344262295,-0.3056028652459017,-0.682541793032787,1.466412106557377
162,1747666052760,1.2190801922330097,2.4466218203883496,0.43516356718446597,-0.44594348932038835,-0.4763978100970874,0.8668415106796117
163,1747666052770,1.025969489516129,2.530542933064516,0.40213940967741935,-0.7405657516129032,-0.03604104980645161,0.04364730293548386
164,1747666052780,1.0096649,2.536975,0.3995217,-0.7684685,0.007941248,-0.028710667
165,1747666052790,0.9709703143589743,2.516098712820513,0.44719838700854697,-1.0151274957264957,0.5019223791452991,-0.7586789799145299
166,1747666052800,0.9619916727868852,2.372074386065574,0.6427847829508196,-1.2571656836065574,1.247992706557377,-2.0137072221311474
167,1747666052810,0.99038434,2.2829115,0.7512081999999999,-1.2070698,1.4043792,-2.4593434
168,1747666052820,1.00539485248,2.2520431384,0.7814713027200001,-1.1369717808,1.4278168736,-2.6406091087999997
169,1747666052830,1.2039575844827586,1.9748355043103447,0.9316759215517242,-0.5956989606896551,1.4304778896551724,-3.5871902103448274
170,1747666052840,1.4787428,1.6537318,0.9962417,0.15882497,1.3603969,-4.695721
171,1747666052850,1.586324443902439,1.5162562512195121,0.9375607641463415,0.38468121634146346,1.3862618634146342,-5.043973790243903
172,1747666052860,1.786795063934426,1.1868744131147542,0.7723371440983606,0.7849218162295082,1.7780084098360658,-5.816168127868853
173,1747666052870,1.998376324390244,0.7915847902439025,0.5803502768292683,1.022732481300813,2.1665800894308944,-6.354175572357723
174,1747666052880,2.0185867921739127,0.428055192173913,0.4538446147826087,1.24421034,2.68621884,-6.95433422
175,1747666052890,2.0056624,0.3738957,0.4373506,1.2748758,2.7433958,-7.0280046
176,1747666052900,2.0056624,0.3738957,0.4373506,1.2748758,2.7433958,-7.0280046
177,1747666052910,1.6732201454545454,0.07668238429752067,0.3849609689256198,1.773351905785124,2.6698295074380165,-7.250309115702478
178,1747666052920,1.36197473984375,-0.218764906796875,0.239147495625,2.515127803125,2.2963664773437498,-7.270914460156249
179,1747666052930,1.3472358913793103,-0.27224585689655173,0.17144810922413795,2.8032606,2.0347922,-7.1611733
180,1747666052940,1.3233464163934425,-0.4493613895081967,-0.08962502426229509,2.992408513114754,1.5691425829508197,-6.9242577032786885
181,1747666052950,1.3118078,-0.55108124,-0.24332508,3.1514071906779666,1.549992871440678,-6.928055707627118
182,1747666052960,1.222081993495935,-0.7777569000813008,-0.3283284150406504,2.3597724,0.36163223000000005,-6.0261855
183,1747666052970,0.952301612,-1.0676372343999998,-0.2881359268,1.5354513632,0.6081089916799999,-5.1489880288
184,1747666052980,0.5973441659292036,-1.1700493407079646,-0.2037597146902655,1.1022117389380532,0.8907820973451326,-4.300383133628318
185,1747666052990,0.48771230136,-1.1762622392000002,-0.18488604704,0.8522303008000001,1.0742725519999998,-3.1726776408
186,1747666053000,0.46590528,-1.1692783,-0.19158493,0.5992588,1.1814134,-1.5192219
187,1747666053010,0.4735537792561983,-1.1366129099173554,-0.21739852603305784,0.5392072231404959,1.0829681603305785,-1.0155104702479338
188,1747666053020,0.47762007,-1.1192465,-0.23112221,0.48747048000000004,0.9981538,-0.5815437
189,1747666053030,0.5042758214035088,-0.921870556140351,-0.24996599315789472,0.34571758728070173,0.5046175525438596,0.4388156221929824
190,1747666053040,0.5505174344827587,-0.5379273948275862,-0.27899949827586207,0.0486796404137931,-0.5022365568965518,2.565297068965517
191,1747666053050,0.5864696,-0.42441553,-0.27334413,-0.04031710699999999,-0.6365216,3.1435125
192,1747666053060,0.6780685958878505,-0.3211451214018691,-0.28346679990654206,-0.1038699286728972,-0.6456560285981309,3.5721230074766352
193,1747666053070,0.84293751796875,-0.19457655890625,-0.30197890125,-0.244121794609375,-0.6321596210156251,4.386909572656251
194,1747666053080,1.1151106142857141,-0.08190300117857142,-0.33996301874999996,-0.561957855,-0.65981083125,5.174792118749999
195,1747666053090,1.1914874,-0.061746486,-0.35412705,-0.5925393,-0.6627888,5.208237
196,1747666053100,1.299905176923077,0.03333988605128205,-0.33180105136752136,-0.8647084358974358,-0.6559544050427351,5.256881717094017
197,1747666053110,1.323912023853211,0.16144946911926603,-0.2554137366055046,-1.1332110697247706,-0.6835301677981652,5.305655944036697
198,1747666053120,1.285814582926829,0.26519895853658537,-0.1714135070894309,-1.238551636585366,-0.7659654109756098,5.395593802439024
199,1747666053130,1.3708075018181818,0.44720161781818185,-0.0079651424,-1.2933128054545455,-1.1018231681818182,5.601445656363637
200,1747666053140,1.4550193307692307,0.5391975564102565,0.08201575307692308,-1.228794564957265,-1.3655135247863248,5.662668512820513
201,1747666053150,1.5219296627906977,0.6261657558139535,0.15241659093023255,-1.1334959534883722,-1.4343684209302325,5.615201153488372
202,1747666053160,1.5385368999999998,0.6626154,0.17376876,-1.0757337,-1.4556919,5.5790324
203,1747666053170,1.4619030000000002,0.94913864,0.19500175,-0.65668017,-1.2925909,5.1159964
204,1747666053180,1.4619030000000002,0.94913864,0.19500175,-0.65668017,-1.2925909,5.1159964
205,1747666053190,1.3899105127272726,1.0499742603636364,0.1880793870909091,-0.5584973910909091,-1.2775747181818182,4.9652570981818185
206,1747666053200,1.3243617329268293,1.1892612365853659,0.18402512524390244,-0.45875978000000006,-1.3353515,4.796514
207,1747666053210,1.2935034,1.3252308000000002,0.16473864,-0.41526179873873875,-1.4715688261261262,4.671171045045045
208,1747666053220,1.2931363376000002,1.3291591472,0.162290257728,-0.41649282032,-1.4847983328,4.6556631232
209,1747666053230,1.270562,1.5707525,0.011714748,-0.6554584,-1.6694947,4.2913284
210,1747666053240,1.2082678902439024,1.772010524390244,0.030465490073170728,-1.5454145609756098,-1.337422463414634,3.6266920804878047
211,1747666053250,1.1923537801801802,1.9250861972972972,0.2501037033333333,-2.0795668702702703,-0.995958018918919,3.199448032432432
212,1747666053260,1.2901102805825242,2.062724466990291,0.6952692939805826,-2.395380634951456,-0.6412009361165049,2.8516257106796115
213,1747666053270,1.3527116712,2.0911897536,0.88470552224,-2.55371484,0.30723589232,1.7288562104
214,1747666053280,1.4053820764705882,2.1114542352941172,1.1699242941176469,-2.118402768627451,0.789776917254902,0.7359189613725491
215,1747666053290,1.4067459,2.113536,1.21931,-1.9339994,0.90469146,0.42088616
216,1747666053300,1.2811482384,2.0429779056,1.1918115744,-0.92476691928,0.9545184992,-0.64386662368
217,1747666053310,1.1704986,1.9607558,1.1207108,-0.02443461,0.9456194,-1.5399913
218,1747666053320,1.1243004153846154,1.8680930746153845,0.9611912871538462,0.4044350951538461,0.8784524275384615,-1.9414706530769232
219,1747666053330,1.0541413752293578,1.7252206119266054,0.6760004541284403,0.9764036348623855,0.79450592146789,-2.571518469724771
220,1747666053340,0.9725681,1.5341438,0.2962855,1.2993103,0.7861836,-3.2950072
221,1747666053350,0.96097538,1.4944845500000001,0.23405089999999998,1.2687031000000002,0.8345108860483871,-3.52321944516129
222,1747666053360,0.94938266,1.4548253,0.1718163,1.2644911,0.84116143,-3.5546248
223,1747666053370,0.955972255,1.411017,0.1211744225,1.189944811864407,0.8945862791525424,-3.675762562711865
224,1747666053380,1.0904996123893806,1.1394492725663716,0.11977595469026549,0.7242591192920355,1.3619862530973452,-4.4297513699115045
225,1747666053390,1.1511307520325202,1.009805706504065,0.1824635582113821,0.6688775564227643,1.485599462601626,-4.6643532406504065
226,1747666053400,1.1702545,0.9376679,0.26065314,0.74097955,1.5393804,-4.8215594
227,1747666053410,1.1804269747899159,0.9265602238655462,0.27790737344537814,0.7849618407563025,1.5423577277310925,-4.853119057142857
228,1747666053420,1.2527459,0.85444444,0.38780698,1.0891727,1.5570955,-5.059186
229,1747666053430,1.3169533416666668,0.8079695798148149,0.3876487787037037,1.3582759055555556,1.5206132499999998,-5.2112232
230,1747666053440,1.3276714,0.8002637,0.358032,1.7556267,1.378112,-5.4507504
231,1747666053450,1.354717025,0.7936131558333334,0.31192141208333335,1.9580318383333333,1.2912062633333332,-5.735800588333333
232,1747666053460,1.296382468644068,0.7057287516101696,0.19388693,2.0179467728813556,1.305781452542373,-5.860258
233,1747666053470,1.172272792063492,0.6205097436507936,0.1347428407936508,2.0651462976190476,1.3578370714285715,-5.910732066666666
234,1747666053480,1.0931991025641026,0.6025648282905983,0.1103034388888889,2.080810576923077,1.3413660589743588,-5.857461564102564
235,1747666053490,1.0087962157480315,0.608486580472441,0.09407541691338582,2.060712929133858,1.2465450645669292,-5.748429759842519
236,1747666053500,0.9198518000000001,0.6560259,0.090789296,1.8851302,0.70066243,-5.3432384
237,1747666053510,0.9312712016806723,0.6375841924369748,0.09623648927731093,1.8642940277310924,0.6154544250420169,-5.29157143697479
238,1747666053520,0.9623177,0.5874458,0.111046046,1.8099937,0.3933972,-5.1569242
239,1747666053530,0.9623177,0.5874458,0.111046046,1.8099937,0.3933972,-5.1569242
240,1747666053540,0.8689311105504587,0.21854542990825687,-0.00883308251376147,1.5734151449541283,-0.15667852889908257,-4.310875951376147
241,1747666053550,0.8419036146153847,-0.11505318316239316,-0.14922328205128205,1.3115277,-0.4972443,-3.649309
242,1747666053560,0.897487496635514,-0.29133136504672896,-0.24189723943925234,0.9321289934579439,-0.4574638626168224,-3.1606624728971964
243,1747666053570,0.916435,-0.3607166,-0.26284966,0.4107002382539683,-0.22237435301587302,-2.4742030253968252
244,1747666053580,0.9345765394736842,-0.37181265701754385,-0.10271812999999999,-0.26181468736842106,0.17906925754385963,-1.3920172228070176
245,1747666053590,0.9405509918699186,-0.3639469089430894,-0.024034677829268294,-0.40658295170731706,0.304394652601626,-0.8683871822764228
246,1747666053600,0.9226018848780487,-0.3596570492682927,0.014101747253658538,-0.41544794861788614,0.32584446747967477,-0.579875026910569
247,1747666053610,0.90642864,-0.35705575,0.0319715,-0.3933972,0.32253686,-0.33841935
248,1747666053620,0.9064286400000001,-0.35705575,0.0319715,-0.3933972,0.32253686,-0.33841935
249,1747666053630,0.6684004247457627,-0.23504780677966103,-0.019425302881355935,-0.12853018466101696,0.0711036818559322,0.5998127223135593
250,1747666053640,0.47334304311475406,-0.10151981262295082,-0.11219031695081967,0.008702326459016394,-0.1290027191147541,1.4065322163934426
251,1747666053650,0.42563587,-0.05222825,-0.13789235,0.009162978000000002,-0.19303341,1.7128662
252,1747666053660,0.41824211598360655,0.08233331659836066,-0.18856023000000002,-0.09926059317213115,-0.2886939136065574,2.5953310631147537
253,1747666053670,0.4917240985714285,0.18592034462184873,-0.23095404336134454,-0.2909207247058823,-0.27942210084033614,3.21139563697479
254,1747666053680,0.5522817972972972,0.22556165702702705,-0.24222352378378378,-0.45998154666666663,-0.25228735666666663,3.4894658666666665
255,1747666053690,0.6705621642276423,0.3193002730081301,-0.20434734536585364,-1.0230205300813007,-0.24371536235772356,4.03123890894309
256,1747666053700,0.6948446416,0.33850347111999995,-0.18551084,-1.1449081039999998,-0.25464283824,4.1355822696
257,1747666053710,0.7451305345132744,0.362308393539823,-0.09017591221238938,-1.4566487079646018,-0.39813818654867256,4.405662880530973
258,1747666053720,0.7827388080645161,0.3672274441935484,-0.011608464032258065,-1.6189899782258064,-0.5019538857258065,4.588647157258064
259,1747666053730,0.8765067885593221,0.36905591525423725,0.15874681601694918,-1.7418460711864407,-0.6466784864406779,4.958465711864407
260,1747666053740,0.89666635,0.36950266,0.19353738,-1.750129,-0.6603453,5.000543000000001
261,1747666053750,0.908269050819672,0.375304028852459,0.21154161770491803,-1.7243623983606557,-0.6827871393442624,5.069114946721312
262,1747666053760,0.9549636327433629,0.4094330102654867,0.2539772,-1.6704785805309734,-0.7664412769911505,5.162184579646017
263,1747666053770,0.9822458133064517,0.4441625180645161,0.26427462419354836,-1.605398185483871,-0.8669852681451613,5.229913157258064
264,1747666053780,1.0438329,0.53106856,0.2997023,-1.4260964379310344,-1.1049920000000002,5.375951265517242
265,1747666053790,1.1068176155737703,0.5880459108196722,0.3011246336065574,-1.2862318393442622,-1.2389348614754099,5.4334811893442625
266,1747666053800,1.139331231147541,0.6162685232786885,0.29856602852459013,-1.2228020327868854,-1.2803685344262294,5.4489980368852455
267,1747666053810,1.1881593909090908,0.6693643272727272,0.283969689090909,-1.1552117537190083,-1.3074131322314049,5.450599265289256
268,1747666053820,1.2770083330578512,0.8756330078512397,0.27864479983471074,-1.0342503851239668,-1.2989923223140496,5.424387314876033
269,1747666053830,1.3008251,0.93473923,0.28213018,-1.0054842,-1.2932017,5.416542
270,1747666053840,1.334314507317073,0.997670300894309,0.29182103788617886,-0.9739973341463414,-1.278585637398374,5.385099843902439
271,1747666053850,1.458798785123967,1.214676926446281,0.3254372395041322,-0.8283938462809918,-1.1763700280991738,5.151921409090909
272,1747666053860,1.500464,1.3020455,0.33020946,-0.7348709,-1.0842859,4.9394565
273,1747666053870,1.4959376949579832,1.6525198394957983,0.28977388865546216,-0.5079832203361344,-0.7782885070588236,3.8628859243697478
274,1747666053880,1.4210796234782608,1.782857228695652,0.289872102,-0.4750778759130435,-0.6988723076521739,3.4457634434782607
275,1747666053890,1.1778702165354331,2.0920010220472443,0.3175761335433071,-0.39512880409448825,-0.42243012834645666,2.3610567566929133
276,1747666053900,1.107196926446281,2.183069862809917,0.3316657330578513,-0.3624096890909091,-0.3183163090909091,2.003971245454545
277,1747666053910,0.9740681585365853,2.414549768292683,0.4007102534146342,-0.2404226557723577,-0.06419548138211381,1.186071780487805
278,1747666053920,0.988618725,2.4372987484374997,0.41579156859375,-0.19279479828124998,-0.004743749828125,0.9403983484375
279,1747666053930,1.046621496521739,2.4368458321739133,0.4358034863478261,0.04922511965217391,0.25603753260869566,-0.21079100904347825
280,1747666053940,1.0961192166666667,2.392243342857143,0.4388439933333333,0.17575465825396824,0.37855222539682537,-0.8179000650793651
281,1747666053950,1.1180263,2.3405090000000004,0.4356422,0.26206118,0.44776422,-1.2577715
282,1747666053960,1.1638809654867257,2.193081132743363,0.39952387486725666,0.36056726300884956,0.504185461238938,-2.0081032584070795
283,1747666053970,1.2030395444444444,1.9289471333333335,0.33595836888888886,0.38632379412698414,0.5773015770634922,-2.9290600087301586
284,1747666053980,1.1989539274336283,1.6435440743362832,0.27758380123893805,0.3496744083185841,0.7238104276991151,-3.770519731858407
285,1747666053990,1.1798541095238098,1.537758180952381,0.2644883276190476,0.3187359158730159,0.805246423968254,-4.039040880952381
286,1747666054000,1.1513226613445378,1.399282757142857,0.2588914212605042,0.28955013,0.8698721,-4.2491784
287,1747666054010,1.1505948008264464,1.268470311570248,0.26342650851239674,0.27971570123966943,0.9099367842975207,-4.364344198347108
288,1747666054020,1.1824190086614172,1.1272293527559056,0.27899778763779526,0.25794384803149606,1.069865566929134,-4.798644724409448
289,1747666054030,1.2544543,0.9696394,0.31995904,0.3304781,1.2076806000000002,-5.136766
290,1747666054040,1.2544543,0.9696394,0.31995904,0.3304781,1.2076806,-5.136766
291,1747666054050,1.2619585336134451,0.8916026268907564,0.34032859596638654,0.49498565714285714,1.2144155226890758,-5.345373924369747
292,1747666054060,1.2801184573913043,0.664778015652174,0.3977284317391305,0.9816551666086957,1.2267927347826086,-5.954013449565217
293,1747666054070,1.2117521193548386,0.6266051451612903,0.3376807516129033,1.272146533064516,1.0437076008064516,-6.1193868951612895
294,1747666054080,1.183995146017699,0.6231450654867257,0.3082896475221239,1.3341566654867258,1.0105116566371681,-6.139790324778761
295,1747666054090,1.1370627,0.6233222,0.25870067,1.4214834,0.9737192,-6.1575217
296,1747666054100,1.102023350413223,0.5899307454545455,0.2068354843801653,1.4214834,0.9737192,-6.1575217
297,1747666054110,0.8267065867768595,0.42144653231404955,0.007686795652892563,1.9485289264462808,0.8784545152892561,-6.008233321487603
298,1747666054120,0.77244115,0.3939084,-0.020988923,2.0421226,0.83077675,-5.961434
299,1747666054130,0.77244115,0.3939084,-0.020988923,2.0421226,0.83077675,-5.961434
300,1747666054140,0.77244115,0.3939084,-0.020988923,2.0421226,0.83077675,-5.961434
301,1747666054150,0.7859989536206897,0.3904200646551724,-0.04343377425862069,2.0546979922413793,0.6426618487068965,-5.843252620689655
302,1747666054160,1.2090713919354839,0.17664037822580644,-0.4367995023387097,1.0177113693548387,-1.868567791935484,-4.072766659677419
303,1747666054170,1.271495707936508,-0.12345423301587301,-0.40265960634920633,-0.07298869285714284,-1.5544435801587302,-3.6234926523809525
304,1747666054180,1.1657098486486484,-0.2387539572972973,-0.29817860162162163,-0.4848453864864865,-1.092837891891892,-3.2498691513513513
305,1747666054190,0.8998527848,-0.38182854112000003,-0.03886367536,-0.79478945024,-0.44488091679999997,-2.4960930807999997
306,1747666054200,0.8641125897637795,-0.39721566299212596,-0.0037800045669291343,-0.8433644155905513,-0.2181173665354331,-2.131140420472441
307,1747666054210,0.7636551,-0.4463807,0.0976229,-0.7629707,-0.01038471,-1.4563028
308,1747666054220,0.7636551,-0.4463807,0.0976229,-0.7629707,-0.01038471,-1.4563028
309,1747666054230,0.7636551,-0.4463807,0.0976229,-0.7629707,-0.01038471,-1.4563028
310,1747666054240,0.6360132,-0.39586085,0.11592719,0.029321533000000004,-0.40011674,1.0482447
311,1747666054250,0.5769256552631579,-0.3432729357894737,0.0912581405263158,0.09846183118421052,-0.4097298260526316,1.3281335157894738
312,1747666054260,0.50571713425,-0.27569926475,0.056554163875,0.15788830333333334,-0.3594738353333333,1.7649525266666666
313,1747666054270,0.38018929196850393,-0.10347450708661418,-0.042546671236220475,0.09927281637795275,-0.07852263947244094,3.1616604204724412
314,1747666054280,0.41706227586206895,-0.038859804312068966,-0.07605118381034483,-0.014197352724137937,-0.08554219604310345,3.701743163793103
315,1747666054290,0.46326311130434783,0.017752512547826088,-0.09199897217391305,-0.13622294826086956,-0.14514689304347828,4.149421586956522
316,1747666054300,0.517565448275862,0.04805403024137931,-0.07219044965517242,-0.28819673405172413,-0.21547745422413794,4.576170593965517
317,1747666054310,0.5935471999999999,0.080213482,-0.042547312,-0.37872118499999996,-0.23913847875,4.8732996475000006
318,1747666054320,0.66777111640625,0.124907737375,-0.0012279132656249985,-0.4124676784375,-0.26235708265624996,5.142435390625
319,1747666054330,0.7891880415254237,0.20951487822033898,0.0667558586440678,-0.41461184669491524,-0.31793982686440675,5.4850572288135595
320,1747666054340,0.8538948340740741,0.25528207496296296,0.07226444614814816,-0.35308011666666667,-0.46330733888888886,5.66987017037037
321,1747666054350,0.8991069,0.28408262,0.06711575,-0.32925636,-0.5259549599999999,5.7286944
322,1747666054360,0.9115600305084746,0.2973982206779661,0.06670622898305084,-0.32300275745762713,-0.5468589766101695,5.744442315254238
323,1747666054370,1.0367552546875,0.4402526065625,0.06054907640625,-0.23151793,-0.84665924,5.980982
324,1747666054380,1.1088008599999999,0.5348758720000001,0.0480304662,-0.23298401166666668,-0.8047233205000001,6.115229441666667
325,1747666054390,1.1500804372881357,0.5877684383050847,0.0507266761101695,-0.2477628075423729,-0.7679041989830508,6.1657786779661015
326,1747666054400,1.2547503147540984,0.7003042442622951,0.09269373918032787,-0.28120829983606555,-0.73979786,6.229854049180328
327,1747666054410,1.3933443228070177,0.816932383508772,0.1551775903508772,-0.30059390491228066,-0.7410813721052633,6.242415754385965
328,1747666054420,1.6336240731707319,1.019456852195122,0.26573666707317073,-0.2722373170081301,-0.7191671861788618,6.128800975609756
329,1747666054430,1.7220681,1.1094842,0.30848834,-0.111177474,-0.5461135500000001,5.549100000000001
330,1747666054440,1.6534449944,1.2341291568,0.29428812880000005,-0.007799528527999998,-0.31487905336,4.9619949808
331,1747666054450,1.5695321999999998,1.3759948,0.27480847,0.10751228,-0.045814894,4.284609
332,1747666054460,1.5244697798319329,1.4088010117647058,0.2579828747058824,0.07166116369747899,0.018741756890756297,4.139479709243697
333,1747666054470,1.3235224,1.5534244,0.18621568,-0.070249505,0.2742785,3.5650096
334,1747666054480,1.1811814035087718,1.7499076403508773,0.20708043210526314,-0.1922778790789474,0.49660663228070173,3.0706320333333337
335,1747666054490,1.1355787193548388,1.940416479032258,0.22198186951612903,-0.2658889558064516,0.6974110370967742,2.539928290322581
336,1747666054500,1.1916581715447154,2.053549339837398,0.19763675593495933,-0.3013353614634146,0.8415935107317073,2.0199525512195122
337,1747666054510,1.25854215,2.1857768,0.177490635,-0.3633290708333333,1.0369267527777777,1.2877548444444444
338,1747666054520,1.2981564467213116,2.2556531606557377,0.17994220942622952,-0.37764490131147543,1.0879008934426229,1.0818623792786886
339,1747666054530,1.3459589120689655,2.296288294827586,0.21807777155172414,-0.40582516810344826,1.441052148275862,-0.6809251624137931
340,1747666054540,1.3394604,2.2607471207999996,0.24987557168,-0.37458257399999995,1.46021226,-0.87524772
341,1747666054550,1.3325526,2.2345881000000003,0.27139166,-0.26267207,1.5027285,-1.409877
342,1747666054560,1.3192587538461538,2.1318984914529913,0.2919321017948718,-0.048493303418803424,1.4968548247863247,-1.9715910461538462
343,1747666054570,1.3049977548387097,2.0200756717741934,0.28360241290322585,0.17715092,1.464244,-2.47095
344,1747666054580,1.2413884178571428,1.7117173821428573,0.170635234375,0.6014622671428571,1.3673236410714285,-3.3944908017857145
345,1747666054590,1.2239754816666666,1.5670387999999997,0.127772105,0.7415904,1.2950343,-3.7977493
346,1747666054600,1.2112561000000002,1.4465274,0.1010397,0.8288128884297521,1.2208824256198345,-4.164944710743802
347,1747666054610,1.258348905882353,1.2749222521008405,0.10000604273109244,0.8817146697478991,1.184601193277311,-4.4990995781512595
348,1747666054620,1.3548348362204725,1.0424030866141731,0.12321623543307088,0.9598087590551182,1.2008167637795275,-4.98876341023622
349,1747666054630,1.3759948,0.97330034,0.13105874,1.0005972,1.219287,-5.1673093
350,1747666054640,1.3664285540983607,0.8768536829508197,0.1534940001639344,1.066495599180328,1.2057428581967213,-5.393264382786885
351,1747666054650,1.3213584533333333,0.7293732066666667,0.23624740733333335,1.2320337933333332,1.1174353666666665,-5.8411750133333324
352,1747666054660,1.3132720999999998,0.7038611,0.25845662,1.269378,1.0897835,-5.889352
353,1747666054670,1.2693553626984129,0.6404565681746032,0.2961731596825397,1.4079086666666667,1.0459370333333333,-5.966117399999999
354,1747666054680,1.1249203654867257,0.5614590750442477,0.32220956637168147,1.6491253486725663,0.935650903539823,-5.962071752212389
355,1747666054690,1.0248135828125,0.5153764234375,0.31348200937500004,1.8046772796875001,0.84002560546875,-5.8878959687500005
356,1747666054700,0.97427654,0.4639528,0.2923806,1.89061301300813,0.7855230308943089,-5.827097967479675
357,1747666054710,0.8721840868644067,0.38071275677966104,0.24603452830508474,2.012707793220339,0.6330634644067797,-5.699517796610169
358,1747666054720,0.7522703555200001,0.30617471632000004,0.18564751064,2.0461541776,0.49502566280000004,-5.5796187616
359,1747666054730,0.6418660923636363,0.28159769,0.12888884818181817,1.98595634,0.2426912121818182,-5.309496512727272
360,1747666054740,0.5463851532258065,0.2908178198387097,0.09664667,1.8301523,-0.06658431,-4.924185
361,1747666054750,0.5523551146341463,0.27360007414634147,0.10336122170731707,1.7042097333333335,-0.23291348731707318,-4.645197984552846
362,1747666054760,0.5754869999999999,0.24649782,0.119588055,1.606121353846154,-0.40079027333333334,-4.268078735897436
363,1747666054770,0.6680640681300813,0.16007973138211384,0.06223261507317073,1.5233638487804877,-0.4847439307317073,-3.6874805219512194
364,1747666054780,0.7641757793333334,0.024690459033333334,-0.04859179935,1.3809627383333334,-0.46006295983333334,-3.0797179
365,1747666054790,0.829562686446281,-0.06010464401652893,-0.12238160677685951,1.2269052157024793,-0.44254409231404956,-2.6631150809917354
366,1747666054800,0.8174607911382114,-0.1533830343089431,-0.1990534843902439,0.6549915552845529,-0.4918061106504065,-1.7388650926829268
367,1747666054810,0.7951857467741936,-0.15586598193548387,-0.17372939612903227,0.32933025,-0.5269254695161291,-1.2055129806451612
368,1747666054820,0.795296648,-0.15488067776,-0.14019624192,0.13429749628800003,-0.5355626776,-0.8489414072
369,1747666054830,0.7974651666666667,-0.15611527666666666,-0.113291368,0.014599678700000002,-0.5299866999999999,-0.614774764
370,1747666054840,0.7992875,-0.16864355,-0.06955632,-0.18387043,-0.4728097,-0.17165314
371,1747666054850,0.7904160235000001,-0.1669961645,-0.05900084337000001,-0.2208888655,-0.42332961550000003,-0.039339724000000006
372,1747666054860,0.7304634,-0.14960709,0.0061014313,-0.4568488752136752,-0.06161907663247862,0.8811235068376069
373,1747666054870,0.6892234362204724,-0.11059637220472442,0.017470270427559054,-0.523848231496063,0.2165637448031496,1.5097029456692912
374,1747666054880,0.68531275,-0.10689708,0.01854835,-0.5296202,0.25167647,1.5943583
375,1747666054890,0.5805268289430895,0.008837650658536585,0.020008725227642278,-0.4099402585365854,0.2794335966666667,2.665587413821138
376,1747666054900,0.569354045967742,0.035053707209677425,0.009148209588709676,-0.34587783838709674,0.19067862990322582,2.9906877612903227
377,1747666054910,0.5687492233644861,0.04610857158878504,-0.03136477781308411,-0.29067481158878505,-0.006765193271028034,3.300270876635514
378,1747666054920,0.5356307267716536,0.07089574976377953,-0.09012438448818898,-0.27153680708661415,-0.3304300136220472,3.777855198425197
379,1747666054930,0.5256993,0.082003236,-0.10201593,-0.28527406,-0.40500367,3.907705
380,1747666054940,0.5419352306666667,0.09625617905,-0.11952703833333334,-0.3107013264166667,-0.4471940855,4.006400495833334
381,1747666054950,0.6441922174358974,0.11950670071794871,-0.15464468692307692,-0.481205185042735,-0.6137733653846154,4.492799123931625
382,1747666054960,0.7221945521367522,0.12999490085470086,-0.1578862669230769,-0.6411161094017095,-0.657750452991453,4.758864982905982
383,1747666054970,0.8374909426356589,0.18921626682170542,-0.1201064415503876,-0.9034697,-0.6640105,5.1031685
384,1747666054980,0.9186538278333333,0.20994211425,-0.08831211641666667,-1.0767518391666668,-0.7417176643333333,5.296609008333333
385,1747666054990,0.9685536725984252,0.22835111700787403,-0.06689090412598425,-1.2064685062992127,-0.7862893938582678,5.426517984251968
386,1747666055000,1.0456711693548386,0.2730055890322581,-0.01049839785483871,-1.3413861322580647,-0.8153622403225806,5.58273679032258
387,1747666055010,1.1044893449152542,0.31169833305084743,0.03641210195762712,-1.4719885101694916,-0.8578100983050848,5.8030853220338985
388,1747666055020,1.2542372888888889,0.4519939888888889,0.15573564222222222,-1.4124174222222223,-0.9954776412698412,6.026845206349206
389,1747666055030,1.3647007448275863,0.5503343396551724,0.2371983947413793,-1.3216175068965517,-1.1105951413793103,6.089125965517241
390,1747666055040,1.5473632512396696,0.7008698980165289,0.3602708447107438,-1.0614566066115703,-1.3972709545454545,6.18388473553719
391,1747666055050,1.775691997520661,0.8411503755371901,0.42849796305785126,-0.7011672834710745,-1.559094733057851,5.988104902479338
392,1747666055060,1.8609037352941176,0.8986044161344539,0.4415364823529412,-0.5683254075630252,-1.5726803134453782,5.847376574789916
393,1747666055070,2.0355556967741935,1.2630512653225807,0.4377678677419355,-0.16421436524193547,-1.4441889145161289,5.09592649032258
394,1747666055080,2.0620399,1.3523211,0.43320164,0.12889257,-1.3060299000000002,4.4446554
395,1747666055090,1.909565961016949,1.5665456016949153,0.37808603915254235,0.3060745529661017,-1.0991070915254237,3.7940374720338985
396,1747666055100,1.6148672831932773,1.8546813638655462,0.28104936109243694,0.37291014,-0.880036093277311,3.3446720907563026
397,1747666055110,1.4505542375,2.07448665,0.19411703749999998,0.3410918875,-0.6646977624999999,3.09418525
398,1747666055120,1.2398146046875,2.3553965640625,0.10918129984375,0.08910996829687501,-0.1771032035625,2.455850034375
399,1747666055130,1.1832521477876106,2.4375725168141598,0.10455369401769911,-0.016715002300884955,-0.02273175446902655,2.1379742442477876
400,1747666055140,1.1703472818181817,2.4921612132231408,0.10185255152066115,-0.1001819,0.070249505,1.7898352
401,1747666055150,1.1735684388429752,2.5765768338842974,0.06312409375206612,-0.25060621280991735,0.23510235140495866,1.009634058677686
402,1747666055160,1.1737618604838709,2.580330608870968,0.06276994824193548,-0.40967381129032254,0.4832978793548387,0.014695235887096775
403,1747666055170,1.1783084,2.5482018,0.088836834,-0.5002986,0.64996064,-0.6224717
404,1747666055180,1.2215461273504273,2.3753195239316236,0.16883545834188035,-0.42412842581196586,0.7212908864957265,-1.313767535042735
405,1747666055190,1.2300901585365855,2.217676748780488,0.18810264999999998,-0.2860488301788618,0.7791660495934959,-2.187920674796748
406,1747666055200,1.1642344333333332,1.8326258333333334,0.16400647,0.07880161866666666,0.7696901866666667,-3.524285133333333
407,1747666055210,1.1269866,1.6892248285714284,0.1425294257142857,0.19382395,0.7764097494117647,-3.904542741176471
408,1747666055220,1.121698583464567,1.5820175472440945,0.11304653976377953,0.26968979102362206,0.7990839377952755,-4.180145874015747
409,1747666055230,1.2047607280701755,1.3625909131578946,0.057991428947368424,0.31691046210526314,0.8936315736842105,-4.512493473684211
410,1747666055240,1.2742962723577236,1.2033451341463415,0.046468101788617884,0.33170976991869916,1.0033933853658537,-4.848496967479674
411,1747666055250,1.3228886854838708,1.0535952064516128,0.0927732443548387,0.39097346838709673,1.1191051322580645,-5.423675516129032
412,1747666055260,1.3575524483606556,0.9438554350819672,0.1284661374590164,0.4630809214754098,1.1310770852459016,-5.638982071311475
413,1747666055270,1.3961159412698412,0.7532768828571429,0.2055969226984127,0.7243698180952381,1.0832385793650794,-6.054721823809524
414,1747666055280,1.3827221982608695,0.6664439486956523,0.23188408304347824,0.9133285591304348,1.0207770904347826,-6.245576626956521
415,1747666055290,1.3665006900826446,0.6305531563636364,0.22726569983471076,1.0552772900826446,0.9588514904132232,-6.337454401652892
416,1747666055300,1.3474400555555555,0.5976961844444445,0.21007906444444444,1.1661417,0.90469146,-6.392705
417,1747666055310,1.3034534,0.5671139761538462,0.1771855623076923,1.3550139760683761,0.8730882963247862,-6.456182726495727
418,1747666055320,1.2080834,0.51642513,0.13081467,1.5253305,0.8772025,-6.510602
419,1747666055330,1.2080834,0.51642513,0.13081467,1.5253305,0.8772025,-6.510602
420,1747666055340,1.0807895973333335,0.4948179457333333,0.06414474632,1.7041755466666666,0.9501886866666667,-6.436622093333333
421,1747666055350,0.99550945,0.4807928,0.019280521,1.8203784,0.9969321,-6.387818
422,1747666055360,0.86201024,0.47664383,-0.042954076,1.971873,0.88086766,-6.23388
423,1747666055370,0.53058046,0.45223808,-0.21525851,2.2498167,0.35308012,-5.6773815
424,1747666055380,0.5560234150000001,0.415080365,-0.39281014999999997,2.330909175,-0.286037645,-4.8605019
425,1747666055390,0.6162021026086957,0.3527794467826087,-0.48960855799999997,1.6274726052173913,-0.8468557643478261,-3.9595063260869567
426,1747666055400,0.8114363716814159,0.15229604044247788,-0.5937761654867256,0.7746204224778761,-1.1449506513274337,-3.3250585371681414
427,1747666055410,0.8839013848484849,0.054705798,-0.5640088860606061,0.30543262,-1.146594,-3.1257975
428,1747666055420,0.9245159555555555,-0.13032657022222224,-0.36698074296296296,-0.7121161556481481,-0.6894349462962963,-2.5581510277777784
429,1747666055430,0.9125883133944954,-0.23459498990825686,-0.17165732128440367,-0.9808646463302753,-0.44891307009174314,-2.3146581770642203
430,1747666055440,0.89032084,-0.3687705,0.10982577,-1.3255776,0.22296582,-1.5137241
431,1747666055450,0.89765776375,-0.43004411499999995,0.248831625625,-1.26254385,0.38427242,-1.0799334375
432,1747666055460,0.9066327348181817,-0.4975861190909091,0.4420009706363636,-0.9067739463636364,0.400416608,-0.3463328197272727
433,1747666055470,0.8373881793181819,-0.4852523459090909,0.487382325909091,-0.09729417045454544,0.14616338838636364,0.5014092894545454
434,1747666055480,0.7414807942857143,-0.42483393571428574,0.43163268714285713,0.5730897839285715,-0.046425757607142855,1.1025790269642857
435,1747666055490,0.6914141999999999,-0.37658033,0.37096703,0.8405506,-0.106901415,1.3426817999999998
436,1747666055500,0.6682818086956521,-0.356419077826087,0.3428473886956521,0.8983172086956521,-0.11486922260869566,1.4210319086956522
437,1747666055510,0.5144101421487604,-0.20255340471074382,0.12120165520661157,1.2240477371900826,-0.14355333,2.0515580983471073
438,1747666055520,0.41773639960937503,-0.0353940221953125,-0.167547211171875,1.00515012921875,-0.04461225178125,3.0448100828125
439,1747666055530,0.39229803778688527,0.014057298049180328,-0.2497725968852459,0.90408057,-0.010995574,3.3035593
440,1747666055540,0.37682438,0.087616555,-0.31190515,0.794939309047619,0.013206325809523812,3.453192176190476
441,1747666055550,0.38021830031250003,0.09634922765625,-0.3166337625,0.5630650362499999,0.0607810929375,3.7615173
442,1747666055560,0.5464701730327869,0.2030116149180328,-0.28111994040983607,-0.32591162229508197,0.09080862403278689,4.759140918032787
443,1747666055570,0.6787935636036037,0.23543389081081081,-0.2164721799099099,-0.6294553473873874,0.07759089378378378,5.086498747747748
444,1747666055580,0.789098597815126,0.2617606312605042,-0.18261431159663866,-0.856140454117647,0.07503889462184873,5.286068492436975
445,1747666055590,0.8671049000000001,0.2946381125,-0.13777032475,-1.0665707125,0.1311833175,5.433875325
446,1747666055600,0.9227568269354839,0.33423639306451614,-0.0576329395,-1.3078526403225805,0.24193219500000002,5.626738951612904
447,1747666055610,0.9400243271551725,0.3498350226724138,-0.018571495655172417,-1.3775537793103447,0.2771327074137931,5.729726515517241
448,1747666055620,0.9693450506349206,0.3797046588888889,0.03824919372222222,-1.4346897873015874,0.260209206984127,5.892939376190476
449,1747666055630,0.9786696,0.40269446,0.06638357,-1.4001971427350428,0.1278118051965812,6.092697002564103
450,1747666055640,1.0628693999999999,0.515082815,0.18279888500000002,-1.2962561,-0.076358154,6.323677
451,1747666055650,1.1473349853658537,0.6419459661788617,0.28132062544715447,-1.2962561,-0.076358154,6.323677
452,1747666055660,1.211794744827586,0.7154580506896552,0.3248822717241379,-0.9061027241379309,-0.48818667648275865,6.55591123275862
453,1747666055670,1.5365644262295082,0.9098854267213116,0.3515064544262295,-0.38068920736065576,-0.7552147131147541,6.428961236885246
454,1747666055680,2.0593261313559323,1.195959072881356,0.19930169635593217,0.17342878313559323,-0.7430295474576271,5.8516284957627125
455,1747666055690,2.1057141830645163,1.306773025,0.10154946286290321,0.2694112825806452,-0.4222852225806452,5.2445146129032265
456,1747666055700,1.8646442351999999,1.6380985639999999,-0.14196712479999998,0.16453778019999998,0.06860261,4.532492992000001
457,1747666055710,1.5393642804878047,1.8821813951219513,-0.28751728292682927,-0.44803240475609757,0.8117356197560975,3.7988964195121957
458,1747666055720,1.3347390836065574,2.016295024590164,-0.2887497213114754,-0.9969721360655739,1.2324657,3.3753208639344265
459,1747666055730,1.2861817,2.0493488,-0.2831064,-1.1899655,1.3341297000000003,3.2534683
460,1747666055740,1.2861817,2.0493488,-0.2831064,-1.1899655,1.3341297,3.2534683
461,1747666055750,1.2861817,2.0493488,-0.2831064,-1.1899655,1.3341297,3.2534683
462,1747666055760,1.1737933474999998,2.1941867041666665,0.18629092815,-1.74052811,1.143387055,1.8842544866666666
463,1747666055770,1.1570753999999999,2.2155519,0.29726171500000004,-1.6550568857142858,1.0563799777777778,1.4128342984126985
464,1747666055780,1.094028722413793,2.1912048956896553,0.33946259362068965,-1.2005292198275863,1.131727926724138,0.39288113327586205
465,1747666055790,1.0192624788617886,2.1600077739837396,0.3399876338211382,-0.8626658902439024,1.2703414455284552,-0.32350529837398373
466,1747666055800,0.9222722950819672,2.0605234344262295,0.33671096491803276,-0.29042135098360655,1.368688639344262,-1.4532383918032785
467,1747666055810,0.9446078206451612,1.9379051491935484,0.3398694162903226,-0.0015271594112903197,1.1983156403225808,-2.0347576362903226
468,1747666055820,0.9607150615833333,1.8987226766666665,0.34859918433333337,0.10300206214166667,1.0947061708333332,-2.2509315233333336
469,1747666055830,0.99550945,1.8304293,0.37413976,0.26328292000000003,0.9108001,-2.5802948
470,1747666055840,0.99550945,1.8304293,0.37413975999999993,0.26328292,0.9108001000000001,-2.5802948
471,1747666055850,1.3763688479508196,1.375038531147541,0.4598738623770492,1.0313658740983607,0.6015220179508197,-4.013279537704918
472,1747666055860,1.4980234000000001,1.2349297,0.460536,1.2767083999999997,0.62858033,-4.5759916
473,1747666055870,1.5761138896,1.082403628,0.43769226576,1.3894301416000001,0.76446609632,-5.0359389584
474,1747666055880,1.6020342,0.981046387826087,0.4202771830434782,1.4567436252173913,0.8588234213043477,-5.387369429565218
475,1747666055890,1.5850327878048782,0.8547122641463414,0.3992955053658537,1.4869999869918697,0.896621049593496,-5.570420673170731
476,1747666055900,1.5347342741935484,0.7420442700000001,0.38228024,1.5146896758064514,0.8707145446774194,-5.7519021088709685
477,1747666055910,1.4068080305084747,0.6089600744067797,0.36711174694915255,1.628690955084746,0.7031007125423728,-5.93978975
478,1747666055920,1.3716962217741935,0.5849737364516129,0.3603269157258065,1.6897961008064517,0.678011140483871,-5.997115475806451
479,1747666055930,1.3011818,0.4979894415384616,0.3292144430769231,1.8473191128205126,0.7240162880341879,-6.108965658119658
480,1747666055940,1.2812700133333335,0.4741890158333334,0.3175225321666667,1.9110206033333335,0.7463297159166667,-6.13749534
481,1747666055950,1.165302548387097,0.38273688709677417,0.2358695032258064,2.0767300225806453,0.8350774198387098,-6.117155096774193
482,1747666055960,1.0606465634710744,0.34434459834710746,0.14317688818181817,2.157197374380165,0.9043784224793388,-6.028709800826445
483,1747666055970,0.7937148476190476,0.33030242380952385,-0.08851142357142858,2.180876242857143,0.8731009714285713,-5.669789557142857
484,1747666055980,0.694440901025641,0.33573308615384617,-0.21297018153846153,2.0789153846153847,0.49630451846153845,-5.192589753846154
485,1747666055990,0.6642192428571428,0.3529067914285714,-0.3059431857142857,2.003638,0.22113322,-4.9168544
486,1747666056000,0.70308095,0.37000079663934426,-0.35514530983606557,1.6919865524590165,-0.20708832491803278,-4.5569595090163935
487,1747666056010,0.7992361052631579,0.3780189931578947,-0.3949873842105263,1.1117104157894737,-0.6772566410526316,-4.220371405263158
488,1747666056020,0.8761258169105691,0.32389174585365854,-0.3953231395121951,0.6409515891869919,-0.8965366187804878,-4.0758964552845525
489,1747666056030,0.9368212761061946,0.0927266322477876,-0.31011469876106196,-0.5086290823893805,-0.6925427852212389,-3.783564157522124
490,1747666056040,0.9267146328,0.03119051424,-0.28485386400000007,-0.7096543477599999,-0.5929302288799999,-3.7045018104
491,1747666056050,0.8418193268253968,-0.1618990519047619,-0.22666331698412698,-1.1345804000000002,-0.24964026,-3.3381749333333333
492,1747666056060,0.78586435,-0.25723633,-0.20403185,-1.3776943213675212,-0.05835068735042735,-3.009769663247863
493,1747666056070,0.6875823342519686,-0.3300633939370079,-0.054576582,-1.8118166409448817,0.02310224897637795,-1.6002504897637793
494,1747666056080,0.6468440327731093,-0.2894395801680672,0.1655590070420168,-1.8663729647058822,-0.12159811652941178,-0.868650394117647
495,1747666056090,0.692935720625,-0.260245105,0.28287759375,-1.7510452625000001,-0.307417935546875,-0.3562585212109375
496,1747666056100,0.7388642259375,-0.256183835546875,0.3465212334375,-1.5369370359375,-0.45877890390625,0.08698625027343751
497,1747666056110,0.7247848007633587,-0.26075374885496183,0.3333393561832061,-0.8702218740458015,-0.4412498850381679,0.8046447563358778
498,1747666056120,0.64815885625,-0.2416052390625,0.28650033359375,-0.59851432375,-0.367884036875,1.08694881375
499,1747666056130,0.5762192,-0.2203837,0.24405725,-0.37690386,-0.2669481,1.3628404
500,1747666056140,0.5258425421487604,-0.19480004611570245,0.2164969303305785,-0.2885858710743801,-0.2521964647933884,1.5889816859504133
501,1747666056150,0.35692790634920635,-0.07299636603174603,0.09448114222222223,0.03468841714285715,-0.28789206142857143,2.589545014285714
502,1747666056160,0.3453453078761062,-0.020047249699115047,0.039409846159292036,0.1603656381415929,-0.43109787132743366,3.2231196336283188
503,1747666056170,0.37956090937007875,0.026411989622047244,-0.012723645968503935,0.20219639,-0.53023106,3.540575
504,1747666056180,0.42075467,0.062478654,-0.037828874,0.20439136254237292,-0.651503306440678,3.87256466440678
505,1747666056190,0.6164323043589743,0.15239393429059828,-0.05638348284615385,0.07276083854700856,-0.9114213856410257,4.508368296581197
506,1747666056200,0.6428467999999999,0.16571487,-0.061014313,0.039095376,-0.9370673,4.5992045
507,1747666056210,0.6740841327868852,0.21380415024590166,-0.06148241893442623,-0.07090542816393441,-0.945764612295082,4.7974853590163935
508,1747666056220,0.6965970752755906,0.2446914124409449,-0.044931511907086615,-0.20255714015748033,-0.9763838881889764,5.06703583464567
509,1747666056230,0.7809747893103448,0.2995171506896552,0.02785618705,-0.3408417489655172,-1.0800940172413793,5.477017862068966
510,1747666056240,0.8235845292436975,0.3174487487394958,0.05087055257142857,-0.3600357690756303,-1.1646171705882353,5.628532916806723
511,1747666056250,0.9235898003418803,0.35444204905982907,0.07593726700854701,-0.35595693367521364,-1.3305949957264955,5.812048724786325
512,1747666056260,1.1554510393442623,0.45588292950819675,0.06603148983606558,-0.3122322573770492,-1.5898018590163936,6.0939214836065565
513,1747666056270,1.1846539,0.46956614,0.063943,-0.30726522,-1.6120734,6.1214805
514,1747666056280,1.3227605747826088,0.596225475826087,0.0726208263478261,-0.30444461217391305,-1.6464305660869565,6.215516731304348
515,1747666056290,1.3672087,0.6369894,0.07541369,-0.30543262,-1.6694947,6.2735863
516,1747666056300,1.4371825628099173,0.7000449487603305,0.08292500609917355,-0.34856677206611575,-1.685240905785124,6.392952281818181
517,1747666056310,1.6498946302521007,0.8544280105882353,0.1539037258487395,-0.33361455663865547,-1.5324709605042015,6.437123722689075
518,1747666056320,1.8208485297520662,0.9777397041322313,0.20648856256198347,-0.302605474214876,-1.4286875809917357,6.416448090909091
519,1747666056330,1.8982773,1.036023,0.21428227,-0.20158553,-1.2272283,6.250984
520,1747666056340,1.957399652,1.1098415264000001,0.19820182408,-0.138998719752,-1.0520125916,6.0360473728
521,1747666056350,2.0713139,1.325963,0.14643435,0.005497787,-0.54428095,5.3383512
522,1747666056360,2.0196509153846156,1.439900206837607,0.1254934070940171,0.0053411549743589744,-0.39082846846153846,5.048472153846154
523,1747666056370,1.7869871,1.8392154,0.09835507,-0.081855945,0.14782938,3.7824776
524,1747666056380,1.7785371535087717,1.8491596622807018,0.10108893938596492,-0.07744056808771929,0.15743175333333334,3.7348944140350877
525,1747666056390,1.4987555,2.1730857,0.18963248,0.043982297,0.42149702,2.4263568
526,1747666056400,1.3682609147540983,2.271604849180328,0.1686755668852459,0.13904695331967212,0.5510404990983606,1.9092292901639345
527,1747666056410,1.1694773710526316,2.4252910561403507,0.12327460149122806,0.20767811342105263,0.7201190096491228,1.16725094122807
528,1747666056420,1.0909909709677421,2.4821488322580643,0.09726861354838709,0.04701692003225807,0.7135595524193548,0.06633797677419354
529,1747666056430,1.0877631,2.4798658,0.10372432,-0.015882496,0.68416905,-0.27305677999999994
530,1747666056440,1.1228928788135593,2.394828347457627,0.15846553381355932,-0.054294532101694916,0.6069826305084746,-0.6575395037288135
531,1747666056450,1.1775762,2.2624106,0.23502712,-0.08091729793495935,0.5304644710569105,-1.0236611764227643
532,1747666056460,1.2198858202247191,1.9297495831460676,0.3218511804494382,0.05827242868539325,0.21412542314606742,-2.7456265606741574
533,1747666056470,1.2198858202247191,1.9297495831460676,0.3218511804494382,0.05827242868539325,0.21412542314606742,-2.7456265606741574
534,1747666056480,,1.2315128,1.7462295000000003,0.3653537,0.1600467,0.12156218,-3.4385605
535,1747666056490,1.2315128,1.7462295000000003,0.3653537,0.1600467,0.12156218,-3.4385605
536,1747666056500,1.2732387580645161,1.484844229032258,0.3219902393548387,0.2671451661290322,0.25380465967741933,-4.114354893548387
537,1747666056510,1.3463867578947368,1.1386875947368422,0.26178351368421054,0.37835063868421054,0.48002756289473686,-5.046566934210527
538,1747666056520,1.466051869047619,0.8643693904761905,0.25109423666666664,0.320137031031746,0.7203652496825397,-5.629889097619048
539,1747666056530,1.5026605,0.7809832,0.25821257,0.31703907,0.7623598,-5.801998
540,1747666056540,1.5324151608333334,0.6876475858333333,0.2607182205833333,0.3406388243333333,0.80491676,-5.9993073
541,1747666056550,1.5402411898305084,0.5887405624576271,0.25248756042372883,0.3986258141525424,0.8777460491525425,-6.216614745762713
542,1747666056560,1.456671654918033,0.2719777925409836,0.1698138301639344,0.7368136629508197,1.233547219672131,-6.898060426229509
543,1747666056570,1.4051449336000001,0.23089962352,0.126935148768,0.85108189008,1.3359525704,-6.9698699976
544,1747666056580,1.3213259,0.2037878,0.054912884,0.9779953,1.4483615,-7.0170093
545,1747666056590,1.3213259,0.2037878,0.054912884,0.9779953,1.4483615,-7.0170093
546,1747666056600,0.9829543550000001,0.18193286427419353,-0.14943979770967739,0.887281777016129,1.7017326161290325,-6.98737227983871
547,1747666056610,0.6346749455,0.10119833569999999,-0.2680806085,0.66258517,1.7686992199999998,-6.787609
548,1747666056620,0.4440084768,0.09197053288,-0.23024359719999998,0.6754556836,1.6011315311999998,-6.344436771200001
549,1747666056630,0.29311275,0.09298581000000002,-0.18011424,0.72143185,1.4294246,-5.9278364
550,1747666056640,0.30127685112903224,0.14593835500000002,-0.02598422477096774,1.2182524951612903,0.32104908870967747,-4.7696852048387095
551,1747666056650,0.3551799280991736,0.17171948157024794,0.0022570253487603303,1.3274102,0.0720821,-4.5356746
552,1747666056660,0.6576562550819672,0.1633503136885246,-0.09105735906557377,1.7446911942622951,-1.59603561147541,-3.3105342524590164
553,1747666056670,0.8083176,0.13960074,-0.17206036,1.8478674,-2.4959953,-2.6859746
554,1747666056680,0.9224240623008848,0.08681526757522123,-0.28886227221238936,1.6434707805309734,-2.7312054637168144,-2.4312491663716815
555,1747666056690,1.032241114017094,-0.004966669068376069,-0.4328553501709401,1.1780144803418804,-2.8305198444444444,-2.0882663982905987
556,1747666056700,1.0726215918032787,-0.19052270386065573,-0.4337937446721311,-0.36376523819672135,-2.132109990163934,-0.9790868144262296
557,1747666056710,1.0662266947826087,-0.29945188295652175,-0.3202710229565217,-1.4892045382608696,-1.359430195652174,0.036274775739130426
558,1747666056720,1.0319049968253968,-0.3009419623809524,-0.16256538222222222,-1.8557941261904762,-0.8995863583333332,0.5902994673809523
559,1747666056730,1.0152781,-0.294089,-0.08639627,-1.9920316,-0.70005155,0.83260936
560,1747666056740,1.0152781,-0.294089,-0.08639627,-1.9920316,-0.70005155,0.83260936
561,1747666056750,0.8791991132231406,-0.17504148603305783,0.22953886033057852,-1.872463509090909,0.27033565049586783,1.8926675685950414
562,1747666056760,0.7529940097560975,-0.07706256512195121,0.3481863502439025,-1.6328129975609753,0.874624937804878,2.5791922536585368
563,1747666056770,0.6453712632812499,-0.014704450609375,0.32441310390625,-1.21212842890625,0.962413428125,2.8579568593749998
564,1747666056780,0.5697801223333333,0.027623213091666664,0.29755866624999994,-0.9458636854999999,0.890916452,3.050508355
565,1747666056790,0.43954712,0.11348662,0.2511349,-0.40823467165289257,0.383572900661157,3.5530900867768596
566,1747666056800,0.39308345421487606,0.1845576973553719,0.20037907123966942,-0.16373712953719008,-0.09224569669421488,3.893549185123967
567,1747666056810,0.4250236237288136,0.23564348508474575,0.10685984515254236,-0.06902777399999999,-0.31276299999999996,4.0518694
568,1747666056820,0.485314885123967,0.2695279682644628,0.020450384661157023,0.06112691173553719,-0.8456798223140496,4.495039347107438
569,1747666056830,0.5760416509090909,0.29208327872727274,-0.030831085218181817,0.04159437112727273,-1.3388055727272725,5.007595363636364
570,1747666056840,0.6374775,0.3133695,-0.051252022,-0.023823744,-1.4434745,5.148983
571,1747666056850,0.6374775,0.3133695,-0.051252022,-0.023823744,-1.4434745,5.148983
572,1747666056860,0.8042316754166666,0.38098555616666663,-0.009790762741666669,-0.2508925450666667,-1.5666148091666667,5.358372430833333
573,1747666056870,0.9723241,0.44930938,0.03465613,-0.5184794057377049,-1.6694596762295082,5.567170514754098
574,1747666056880,1.1215651189655174,0.5620133275862069,0.1291736056551724,-0.7875106456896552,-1.5120494706896552,5.57387165
575,1747666056890,1.140374096,0.6247963048,0.1794113596,-0.8677463256,-1.4476529120000001,5.5933509919999995
576,1747666056900,1.2132386540983606,0.7734274401639345,0.29958827147540984,-0.9894113793442622,-1.4863853770491802,5.885095796721312
577,1747666056910,1.330917425,0.8609424499999999,0.36614077375,-1.002246555,-1.550788275,6.07421495
578,1747666056920,1.513473833064516,0.9187081951612903,0.38408506838709683,-0.9366534532258064,-1.5685985241935483,6.134653433870968
579,1747666056930,1.6049333421052632,0.9409819368421052,0.3778905157894737,-0.9174874342105263,-1.5594372052631578,6.124931228947368
580,1747666056940,1.777957,0.9772052,0.34802565,-0.8142834,-1.4178182,5.9162297
581,1747666056950,1.9194054628099173,1.1409453983471074,0.28761238983471077,-0.6337399112396693,-0.9114967471074379,4.975416584297521
582,1747666056960,1.857062409009009,1.2681763945945945,0.23181920927927926,-0.5646486062162162,-0.5597341396396396,4.285252630630631
583,1747666056970,1.5054740707317074,1.4858284666666668,0.12241951983739838,-0.7862530943089432,-0.07777357573170733,3.4930863211382115
584,1747666056980,1.3988821212389382,1.5397463769911504,0.1187262968141593,-0.9009289072566372,0.05325879974336283,3.2714590132743364
585,1747666056990,1.2692022857142857,1.6175765285714288,0.17784799571428572,-1.0754524801587302,0.2179285981746032,2.9261172166666665
586,1747666057000,1.2464004,1.6334751,0.19158493,-1.1292090145161289,0.31245756766129035,2.6703185943548386
587,1747666057010,1.1451871710743802,1.7775212892561982,0.41861669702479337,-0.9649399049586777,0.4313718390082645,1.8671423628099175
588,1747666057020,1.118545829032258,1.8298388516129032,0.5013880787096775,-0.8040464616935484,0.45758241419354845,1.4873287177419356
589,1747666057030,1.0916917805309736,1.86989323539823,0.5376321973451328,-0.625850358761062,0.48298358637168143,1.1478103614159292
590,1747666057040,1.0297963846153848,1.9360998666666667,0.5541413769230769,-0.34923739452991454,0.5478887092307693,0.6268835063247864
591,1747666057050,1.0058194349593497,1.9983982447154471,0.5481486284552846,-0.11108808190243903,0.5896041663414634,0.11593030292682928
592,1747666057060,1.0653445,1.9979319491666667,0.530877395,0.10503827506666667,0.6220847888333333,-0.6528876905833333
593,1747666057070,1.1364663782258064,1.943606906451613,0.5235500225806452,0.23636543064516127,0.6556751637096774,-1.3085620387096772
594,1747666057080,1.1934993469565216,1.8876087469565217,0.5182926973913043,0.27709908913043474,0.679871812173913,-1.643965875652174
595,1747666057090,1.2603117,1.7935767,0.511544,0.33841935,0.7470882,-2.189952
596,1747666057100,1.3000990949579831,1.6957486327731093,0.5010844033613445,0.38003518949579834,0.8028052648739497,-2.5118728117647056
597,1747666057110,1.3076587,1.6771613,0.49909708,0.41233405,0.84604836,-2.7617218
598,1747666057120,1.3247347190082646,1.4471484842975209,0.47484665603305787,0.5165749355371901,1.0175197649586776,-3.7190182000000003
599,1747666057130,1.3034600563106797,1.1313617330097088,0.4522333378640777,0.6240611051456311,1.2356024650485435,-4.73873077961165
600,1747666057140,1.2699905731707317,0.9355488487804878,0.44275556463414634,0.6670201182926829,1.3388229146341464,-5.0692132609756095
601,1747666057150,1.2879940581967213,0.8130326854918033,0.4465727468852459,0.7187430160655738,1.410793244262295,-5.296266800819673
602,1747666057160,1.3132720999999998,0.75291663,0.45370242,0.75808376,1.4355333,-5.411044
603,1747666057170,1.3132721,0.75291663,0.45370242,0.75808376,1.4355333,-5.411044
604,1747666057180,1.3538842060606062,0.5637968874747474,0.4216569494949495,1.0983172559595962,1.425648393939394,-5.899921715151515
605,1747666057190,1.343725011111111,0.4932939466666667,0.39347449444444443,1.322319611111111,1.3781798444444444,-6.093448866666667
606,1747666057200,1.2799444951612904,0.44170424137096775,0.32164974870967744,1.6046050298387096,1.248239070967742,-6.247668763709678
607,1747666057210,1.2061739294117648,0.41636163352941175,0.235357328,1.740488588235294,1.1755511193277313,-6.3192211924369746
608,1747666057220,1.0642476418032787,0.3949886475409836,0.10323621730327869,1.8096332295081967,1.1644894327868853,-6.384483218032787
609,1747666057230,0.9523114,0.37560409999999994,0.033679903,1.8002199,1.2266175,-6.3835416
610,1747666057240,0.877845899180328,0.36002445377049186,-0.00262861586885246,1.778989837704918,1.2844693459016394,-6.314543767213115
611,1747666057250,0.5750512838842976,0.30924472148760335,-0.09020234998347107,1.7354580752066116,1.1793081909090908,-5.865134289256198
612,1747666057260,0.5661240760330579,0.2819365470247934,-0.09214270049586777,1.9069495975206612,0.4895201553719008,-4.931565661157025
613,1747666057270,0.6730122719999999,0.24510181120000002,-0.12917462159999998,2.0399234,0.012705996000000002,-4.4934026000000005
614,1747666057280,0.7713279471052631,0.2146911605263158,-0.17658398859649124,2.1144029175438597,-0.2910451463157895,-4.261422749122807
615,1747666057290,0.9244995015652174,0.16363295565217392,-0.2582104524347826,2.1278614730434784,-1.0293132224347827,-3.8615023182608694
616,1747666057300,1.0602009666666667,0.058736448000000004,-0.3701372273333333,1.92455132,-1.4909183533333334,-3.6892594533333334
617,1747666057310,1.0496401564102564,-0.07873244927350426,-0.45454723521367524,1.472373223076923,-1.8268159692307693,-3.5055676461538456
618,1747666057320,0.9599657104032258,-0.1771442270967742,-0.466206422983871,0.43559619096774194,-1.8207824032258064,-2.953809456451613
619,1747666057330,0.8915410599999999,-0.22013964,-0.42856455,0.06291912,-1.6206255,-2.6322184
620,1747666057340,0.7852679500869566,-0.2352584528695652,-0.32423537469565217,-0.231921624,-1.263205587652174,-2.0230795036521743
621,1747666057350,0.5710376407692308,-0.2383125123076923,-0.10841774230769231,-0.9984722888888888,-0.25711683593162393,-0.2693759237606838
622,1747666057360,0.528628,-0.20451997,-0.05418071,-1.0885619,0.056199602999999994,0.36835176
623,1747666057370,0.5189380133333332,-0.15413209888888887,-0.004761828026666667,-1.1367071118518517,0.3691436150074074,1.1266391816296297
624,1747666057380,0.5254910860550459,-0.045195372889908256,0.06822184029357799,-1.0542077183486238,0.40075002954128436,1.8426106220183487
625,1747666057390,0.5304430600840336,0.03966237915966386,0.12455944075630253,-0.9316054470588235,0.35282858823529417,2.4919349647058824
626,1747666057400,0.5317498885833334,0.08097615725,0.14743701241666668,-0.7828645393333333,0.17421876833333333,2.731992906666667
627,1747666057410,0.53106856,0.09664667000000002,0.15302388,-0.6994407,0.06414085,2.8496864
628,1747666057420,0.5127762754098361,0.10615290081967213,0.1531679213114754,-0.5048300578688525,-0.307200146147541,3.259792207377049
629,1747666057430,0.5000733,0.11275445,0.15326795,-0.4056145299999999,-0.5015204,3.4800992
630,1747666057440,0.5000733,0.11275445,0.15326795,-0.4056145299999999,-0.5015204,3.4800992
631,1747666057450,0.5000733,0.11275444999999999,0.15326795,-0.40561453,-0.5015204,3.4800992
632,1747666057460,0.5000733,0.11275445,0.15326795,-0.4031655655855856,-0.5061706792792793,3.491848727027027
633,1747666057470,0.641995430387597,0.15844234872868218,0.15211576937984497,-0.19444456806201552,-0.6428670159689923,4.834486813953489
634,1747666057480,0.7120164760176992,0.21103608123893805,0.1244324796460177,-0.17443717150442478,-0.6604318471681416,5.031950867256637
635,1747666057490,0.74291027,0.25748038,0.10079564,-0.18325958,-0.70921457,5.16792
636,1747666057500,0.7731984105128205,0.32134204324786325,0.057253325880341877,-0.2680549741880342,-0.8739967709401709,5.3771284153846155
637,1747666057510,0.79269797,0.36632994,0.021965152,-0.3390302,-0.9969321,5.5301633
638,1747666057520,0.8385768127419354,0.3726891854032258,0.011885981393548389,-0.4822386941935483,-1.0883746596774193,5.750251924193548
639,1747666057530,0.9262190705357144,0.3871859075892857,0.004430074792142857,-0.64308839375,-1.1427761375,6.020840525
640,1747666057540,1.0177187,0.40489095,-0.00024405724,-0.784351,-1.1527027,6.2766404
641,1747666057550,1.0177187,0.40489095,-0.00024405724,-0.784351,-1.1527027,6.2766404
642,1747666057560,1.5300437,0.6582467949999999,0.1840923905,-1.154413175,-1.1460137875,6.6705264625
643,1747666057570,1.5300437,0.6582467949999999,0.1840923905,-1.154413175,-1.1460137875,6.6705264625
644,1747666057580,1.602968,0.690682,0.21550256,-1.169807,-1.1435398,6.669427
645,1747666057590,1.7936681973214286,0.8744440535714286,0.2798879098214286,-1.0085221996428573,-0.9988956200892858,6.071302566071429
646,1747666057600,2.1108513,1.381364,0.36315718,-0.6646214,-0.70921457,4.755586
647,1747666057610,1.840185049090909,1.6324900454545455,0.2538883182727273,-0.7557624913636364,-0.6323066319090909,4.096867686363637
648,1747666057620,1.511144319047619,1.9235546285714284,0.1932119880952381,-1.1435921104761904,-0.38268089885714285,2.9301111314285717
649,1747666057630,1.4235161190476189,2.022270019047619,0.2539706157142857,-1.32195312,-0.2302438413333333,2.6337192495238093
650,1747666057640,1.389110677586207,2.0857953491379306,0.31996956103448276,-1.4368235172413792,-0.0988074500862069,2.412501495689655
651,1747666057650,1.4143564660550458,2.144694456880734,0.5430721580733945,-1.4515278935779818,0.42338564165137615,1.331624596880734
652,1747666057660,1.4195855836363636,2.1471135272727273,0.7288947199999999,-1.2373241581818184,0.7623487400000001,0.4022825238181818
653,1747666057670,1.3946244666666665,2.1176033333333333,0.7856202666666666,-1.0944618918699187,0.8494354634146342,0.060411095528455284
654,1747666057680,1.3299825391304347,2.061549516521739,0.8414902907826087,-0.7500203507826088,0.9828449952173913,-0.6346093260869565
655,1747666057690,1.2228052196428572,2.004228564285714,0.8598049636607143,-0.34208453875,1.0472902874999999,-1.302708325
656,1747666057700,1.1480959226415093,1.9600329283018867,0.8343212056603774,0.26972583018867924,0.9762145403773584,-2.19388801509434
657,1747666057710,1.0179628,1.8475134,0.7238738,0.6130188237288136,0.8924637623728814,-2.716652423728813
658,1747666057720,1.0179628,1.8475134,0.7238738,0.77640975,0.8185594,-3.0207286
659,1747666057730,1.0975532707317075,1.5834374162601628,0.5287907398373984,0.8781609825203252,0.78447018699187,-3.3099708634146343
660,1747666057740,1.153284052586207,1.4348819094827587,0.42962070094827587,0.9273934845689655,0.9410695193965517,-4.137126940517241
661,1747666057750,1.1991088699186991,1.325421286178862,0.3657564840650407,0.86498517,1.0928379,-4.459927
662,1747666057760,1.2278205403225806,1.251539304032258,0.3394521351612903,0.8092732845967742,1.1883742596774192,-4.572621781451613
663,1747666057770,1.3124378344262295,0.9502348754098361,0.35479522557377047,0.5575196924590164,1.7564278450819673,-5.155096830327869
664,1747666057780,1.3564702,0.7660957,0.3939084,0.42577308,2.1380284,-5.5246654
665,1747666057790,1.3570926248062016,0.703811923255814,0.42341094651162786,0.5001044897674419,2.180462182170543,-5.650749832558139
666,1747666057800,1.3167179537313434,0.5006962268656717,0.49730125149253734,0.8065153786567164,2.2298677358208954,-6.011561283582089
667,1747666057810,1.1780643,0.3734076,0.48176903,1.17897,2.0494528,-6.1440825
668,1747666057820,1.108652142519685,0.3331669776377953,0.4486310488976378,1.30746811496063,1.8957504952755906,-6.104554294488188
669,1747666057830,0.9952552268907563,0.26535791252100843,0.37073937697478987,1.5788710537815125,1.540191542857143,-5.993496692436974
670,1747666057840,0.9417962288135593,0.23448522898305085,0.27027892406779663,1.610582506779661,1.3397880449152544,-5.837842355932204
671,1747666057850,0.8991069,0.22892569,0.16425052,1.5021176,1.2699889,-5.69021
672,1747666057860,0.8080392553719009,0.21258797512396693,0.1255240840495868,1.250289684876033,1.369433711570248,-5.575922561983472
673,1747666057870,0.5511841295041322,0.09930508142975207,0.13860232756198346,0.72282019446281,1.6913697702479338,-5.248786280991735
674,1747666057880,0.45907167,0.052716362999999995,0.21208574,0.75869465,1.8069394,-5.084842
675,1747666057890,0.4103539429464286,0.05185562555357143,0.2692387202678571,1.004349757142857,1.7689784714285715,-4.847041071428571
676,1747666057900,0.6050386186440678,0.027470917677966104,0.20237309440677967,2.0575287627118644,0.8231668057627118,-3.8836844220338986
677,1747666057910,0.6732186042016807,0.02192823581512605,0.15337459647058826,2.3273966,0.56016344,-3.6383133
678,1747666057920,0.9010555219047619,0.023069222142857147,-0.20395438388888887,2.922476184920635,-0.6572037377380953,-3.009757345238095
679,1747666057930,0.8977768233333333,0.025518220616666667,-0.26093177391666666,2.831848985,-0.8917970956666667,-2.904766104166667
680,1747666057940,0.7695125,0.046370879999999996,-0.6016011,1.6945401,-2.0024164,-2.4581218
681,1747666057950,0.6629726958762887,0.04351767020618556,-0.6143071828865979,1.0871385969072165,-1.8985188597938145,-1.9432693690721652
682,1747666057960,0.5867051534782609,0.03314721802608696,-0.6009262257391303,0.6028814789565218,-1.6525339930434784,-1.3646782248695652
683,1747666057970,0.55791485,0.028066583,-0.5518134,0.16047429900000001,-1.234456795,-0.5739791430000001
684,1747666057980,0.5627065154166666,0.030230556808333333,-0.5496494361666666,-0.5161811,-0.5815437,0.6719518
685,1747666057990,0.588178,0.041733786,-0.53814626,-0.5161811,-0.5815437,0.6719518
686,1747666058000,0.6343603650406504,0.06473469751219513,-0.49352741040650405,-0.5161811,-0.5815437,0.6719518
687,1747666058010,0.7092219794871796,0.12140283905982907,-0.3410794056410256,-0.6193181239316239,-0.5042092088888889,0.8455210512820512
688,1747666058020,0.7258535827586207,0.14272720732758623,-0.23067618560344827,-1.261768497413793,-0.18981057646551724,2.0284465353448273
689,1747666058030,0.715112965862069,0.15625554000000003,-0.06743554372413793,-1.4481034543103448,-0.1824907221551724,2.645467753448276
690,1747666058040,0.6624934100000001,0.17706354000000002,0.103724332,-1.2136089327868853,-0.35725600655737705,2.986800518032787
691,1747666058050,0.6628467647826087,0.21097158347826087,0.19635996921739132,-0.6609827547826087,-0.6525474782608697,3.5738909860869565
692,1747666058060,0.696929896,0.22565533399999999,0.2093035,-0.41855426260869566,-0.7731323037391304,3.772703759130435
693,1747666058070,0.7499244256910569,0.2510079111382114,0.20614504959349597,-0.08330613650406503,-0.9620978699999999,3.995043882926829
694,1747666058080,0.7758240206956523,0.2704387722608696,0.19546014730434783,0.08418785540869565,-1.0684723669565217,4.093179653913044
695,1747666058090,0.8010435301626017,0.3135262486178862,0.15162701512195123,0.47702616097560974,-1.427696356097561,4.321052073170732
696,1747666058100,0.81734776,0.34778157,0.11226633,0.75319684,-1.7397442,4.517959
697,1747666058110,0.8443900709016393,0.3711870551639344,0.07596781781967213,0.8393738991803279,-1.853139798360656,4.63997697704918
698,1747666058120,0.88324314,0.40489095,0.022941383,0.9505063,-2.0005836,4.8068986
699,1747666058130,0.9227580288333334,0.44173546466666663,-0.013815672775,0.905424446,-1.9559497666666668,4.919583013333334
700,1747666058140,0.9641284477419355,0.5214558632258065,-0.07539794451612904,0.7043571958064516,-1.7419905806451612,5.201172967741935
701,1747666058150,0.9638145936666668,0.6007509956666667,-0.075035398,0.536589129,-1.5982779749999998,5.410525254166667
702,1747666058160,1.0447673658536585,0.7169866212195123,-0.005357350609756101,0.29888196414634144,-1.468440550406504,5.796252069105691
703,1747666058170,1.1862922217054264,0.8323014248837209,0.08045564608527131,0.10383762147286822,-1.3978916782945736,6.149727248062015
704,1747666058180,1.3435079888888888,0.8906191200000001,0.12384548888888888,0.08968754435897436,-1.3987091042735045,6.142965215384615
705,1747666058190,1.6997721516129034,1.0066495264516129,0.22788648774193548,0.10873401,-1.400714,6.0671134
706,1747666058200,1.7806417,1.0377314,0.2523552,0.25520147327868853,-1.4520266721311477,5.3697656885245895
707,1747666058210,1.851123670247934,1.2168735487603306,0.24444855537190083,0.4428773,-1.4825699,4.445877
708,1747666058220,1.8567874,1.2312689,0.2438132,0.4428773,-1.4825699,4.445877
709,1747666058230,1.6703873026086957,1.381342855652174,0.23843969173913046,0.5680887652173913,-1.3580119460869564,3.7618834365217393
710,1747666058240,1.3788033777777777,1.5165949285714284,0.22530358793650795,0.6230825999999999,-1.2803736,3.4758232
711,1747666058250,1.1414929635593218,1.6007300915254237,0.1885011313898305,0.6869800831355932,-1.1139386812711864,2.9643944610169495
712,1747666058260,0.9368958545454545,1.7217528281818182,0.04695660942727272,0.45144050345454545,-0.8244570518181819,2.4312881200000005
713,1747666058270,0.919697524,1.8034482848,-0.08211647554399999,0.0051312715999999965,-0.428900714,2.01209236
714,1747666058280,0.9459111373831776,1.840088979439252,-0.10717077808411216,-0.2913941420560748,-0.2036236596261682,1.7532402878504674
715,1747666058290,1.1046362624,1.9345598704000002,-0.07932445609599999,-1.0412076044,0.23577932671999996,0.9724241504
716,1747666058300,1.1985847677419355,1.9537609080645162,-0.05033877182258065,-1.5053689483870967,0.5128312135483871,0.2887225
717,1747666058310,1.2485968,1.9463564,-0.033191785,-1.5662584,0.5516113,0.17959438
718,1747666058320,1.2890908544000002,1.9245826368,0.003983014231999998,-1.6651013392,0.6574327216,-0.13222545392
719,1747666058330,1.2933151762711865,1.83101473220339,0.2342329094661017,-1.840469654237288,1.1795239016949153,-1.7245399237288135
720,1747666058340,1.2413108585365853,1.7306456487804878,0.39145592048780486,-1.603804319512195,1.303094724390244,-2.405348868292683
721,1747666058350,1.2183581725,1.6425541549999998,0.45079816025,-1.1729681399999998,1.3259746925,-3.0811585025
722,1747666058360,1.2163813,1.5661154,0.48176903,-1.0928379,1.3213016,-3.1893275
723,1747666058370,1.2303144113821138,1.477280520325203,0.47818158024390245,-0.7909761365040651,1.2561227414634148,-3.558707213821138
724,1747666058380,1.2564068,1.2556745,0.37218732,-0.08552113,1.0897835,-4.457484
725,1747666058390,1.261037735,1.2058563275,0.315773472,0.09075930580000001,1.0746392624999999,-4.767034435833334
726,1747666058400,1.3391379119658118,0.9600732363247862,0.07499232427350427,0.08777141767521368,1.2679108760683762,-5.193644148717949
727,1747666058410,1.3464638,0.93937635,0.056133166,0.04520403,1.4013249,-5.3921075
728,1747666058420,1.3844364112903225,0.8739434302419354,0.029316392653225807,-0.028592434991935485,1.5394297137096775,-5.5275768346774194
729,1747666058430,1.3956489592920354,0.8457339683185839,0.02430421418584071,-0.06326509753982301,1.6129059176991152,-5.597607023893805
730,1747666058440,1.4460392,0.68409246,0.013179091,-0.21441369999999998,1.9639317999999997,-5.9272256
731,1747666058450,1.378873018181818,0.6169262831404959,0.05735143562809917,-0.14059997442975208,2.0367913190082643,-6.053028504958678
732,1747666058460,1.1915525066666668,0.5037138115,0.14597877863333333,0.06717990739999999,2.0440619725,-6.188003912499999
733,1747666058470,1.0849593952,0.46110027824000005,0.19126083023999998,0.34454265896,1.8231444488,-6.146349927999999
734,1747666058480,1.0261501905982906,0.4341173408547009,0.21516670205128205,0.48926651478632477,1.6915015094017094,-6.11980973931624
735,1747666058490,0.8234451166666668,0.4129529753333333,0.22314358233333334,0.9164760408333332,1.3092878383333333,-6.001191250000001
736,1747666058500,0.6024019066115702,0.4057683757024793,0.19777309545454544,1.7081053933884298,0.5483903962809917,-5.567188698347108
737,1747666058510,0.5628263,0.3847249461946902,0.16573646159292035,1.9468923761061947,0.272554017539823,-5.331123894690266
738,1747666058520,0.5287268261904762,0.3217894930952381,0.06549450345238095,2.2618303666666666,-0.15223634328571428,-4.912127621428572
739,1747666058530,0.5417161161016949,0.17173151186440677,-0.2593501166101695,2.5703914508474575,-0.8386972728813559,-4.068093633898305
740,1747666058540,0.6911939629268292,0.08877731165853658,-0.4807094336585366,2.373211433333333,-1.1364129666666667,-3.5680639333333333
741,1747666058550,0.8614757210743802,0.025103605842975205,-0.6293611145454545,2.0470195165289256,-1.3027331925619836,-3.2498284214876034
742,1747666058560,0.9686820466666666,-0.03623311466666666,-0.7180414482051282,1.5942955870085471,-1.3983697777777777,-3.020551068376068
743,1747666058570,1.0388237581967212,-0.1795301137704918,-0.7688763475409836,0.463336261147541,-1.4128211180327868,-2.649653
744,1747666058580,0.9285208342975207,-0.23297181702479342,-0.7116669014876033,-0.1365208063636364,-1.2816406842975208,-2.435363265289256
745,1747666058590,0.8233876294117647,-0.2556715100840336,-0.622128602184874,-0.5453845903361345,-1.1356087613445376,-2.197841770588235
746,1747666058600,0.5500753267826087,-0.2802689793043478,-0.31719378452173913,-0.9106938260869566,-0.9182898130434783,-1.4479365391304346
747,1747666058610,0.33829589233333335,-0.26963444233333334,-0.106352007,-0.9808866666666667,-0.7628485033333333,-0.4506149386666667
748,1747666058620,0.2494622282926829,-0.23743199243902438,-0.04235881395121951,-0.9120218,-0.6908886,0.06780604
749,1747666058630,0.19304928,-0.1701079,-0.021232981,-0.9120218,-0.6908886,0.06780604
750,1747666058640,0.20818083,-0.11495096,-0.035876416,-0.61819565,-0.16554448,1.5754215
751,1747666058650,0.20818083,-0.11495096,-0.035876416,-0.61819565,-0.16554448,1.5754215
752,1747666058660,0.2633335753448276,-0.07181595137931035,-0.057765826155172416,-0.5124948465517242,0.13238924206896552,2.109401879310345
753,1747666058670,0.4567849473913043,0.04611620854347826,-0.0986707569673913,-0.3492422597826087,0.49002680576086954,3.0483504510869563
754,1747666058680,0.48158821574074073,0.09870082179629629,-0.04135414599074075,-0.14635878027777777,0.34467505675925925,3.4020838416666668
755,1747666058690,0.4949481,0.1461903,0.020988923,0.03848451,0.20158553,3.6975672
756,1747666058700,0.5311905800000001,0.18987654,0.0612583665,0.3340123942063492,-0.021123330666666666,3.981173476190476
757,1747666058710,0.5746107508196722,0.23740368196721312,0.10102369196721311,0.634689,-0.24740042,4.269337
758,1747666058720,0.7304692067999999,0.30250798968,0.058634263926400004,0.8710400768,-0.34873075328,4.4303123136
759,1747666058730,0.9019825152173913,0.37860708260869563,-0.038921828,1.5427003217391304,-0.5782503652173914,4.853218226086956
760,1747666058740,0.928581812704918,0.41550747172131147,-0.08131307856557377,1.6258278786885247,-0.5723406804098361,4.891183094262295
761,1747666058750,0.9569720875806451,0.49190918209677426,-0.14990626483870967,1.7073190201612904,-0.5680899184677419,4.957363662096774
762,1747666058760,0.9963230466666667,0.6055060666666667,-0.24454536000000002,1.6554449,-0.5882632,5.1239376
763,1747666058770,1.00576,0.6299118,-0.26358184,1.6554449,-0.5882632,5.1239376
764,1747666058780,1.044176348148148,0.6525006444444444,-0.2629671703703704,1.5919827666666666,-0.5855709037037037,5.183553514814815
765,1747666058790,1.1778261504,0.7579754096,-0.23903162496,1.3656601488000002,-0.5821203865600001,5.3632649072000005
766,1747666058800,1.4020843558139535,0.9212536821705426,-0.14907357643410854,1.1373174651162792,-0.6765119434883721,5.482444432558139
767,1747666058810,1.5175480000000001,0.9821873965517242,-0.12604294344827588,1.0829166206896552,-0.7681524989655173,5.391370186206896
768,1747666058820,1.6275626572580646,1.0330963314516128,-0.11974944036290322,1.0898377709677418,-0.8276140225,5.2339377258064514
769,1747666058830,1.7332945,1.0804414,-0.122760795,1.0922271,-0.94134337,4.918076
770,1747666058840,1.7064905867768594,1.1415101809917354,-0.1346449720661157,0.9304033206611569,-1.046129438677686,4.266444340495868
771,1747666058850,1.3485507173228346,1.3454376464566928,-0.033016909926929135,0.6395759,-1.1887437,3.1948252
772,1747666058860,1.1183516333333332,1.4343244333333331,0.08517597608,0.5811619120833333,-1.0619790354166667,2.755826969166667
773,1747666058870,1.0350468,1.4687365,0.12813005,0.55955255,-0.97005403,2.4923303
774,1747666058880,0.8146350221238937,1.5759640902654868,0.12675858132743364,0.7139392707964601,-0.6565828277876107,2.357491172566372
775,1747666058890,0.6631035,1.6979064,0.06833603,0.8112083262711864,-0.36158045101694913,2.1946005805084745
776,1747666058900,0.6900904803389831,1.8234530711864407,-0.059889169101694915,0.6549044889830509,-0.2063326742372881,1.9040773101694917
777,1747666058910,0.7153509233043478,1.98737719826087,-0.17596528104347825,0.455588612,-0.0572672839826087,1.6018905330434783
778,1747666058920,0.7404773546875,2.1382083468750004,-0.22864731953125,0.293072156140625,0.074377616453125,1.343598131484375
779,1747666058930,0.7604824,2.2131112,-0.22794947,-0.096516706,0.45204028,0.58032197
780,1747666058940,0.770227257936508,2.2398470984126986,-0.2327802572222222,-0.32054911988888884,0.6850417169047619,-0.036579190793650795
781,1747666058950,0.8948091255284554,2.3134405203252033,-0.24820027495934963,-0.5124315334959351,0.852946650894309,-0.6233904531707317
782,1747666058960,1.1032214459322034,2.1837746042372883,-0.25830770644067796,-0.759688586440678,1.2264517966101696,-1.7867084440677965
783,1747666058970,1.1329804859375,2.10922855078125,-0.24447099851562498,-0.819981603515625,1.3682283890625,-2.22940052734375
784,1747666058980,1.1620630472727274,1.9717074745454544,-0.19442931454545453,-0.8471368199999999,1.5287291709090909,-2.8787080345454545
785,1747666058990,1.234957223387097,1.7242802387096772,-0.07982640125,-0.7908143387096773,1.5733918419354838,-3.4138894645161293
786,1747666059000,1.2770222282051282,1.5830784205128205,-0.015692672418803417,-0.6097166222222222,1.5056157230769232,-3.9423102324786323
787,1747666059010,1.2971642,1.5158396,0.012446918999999999,-0.36468655,1.3903292,-4.514294
788,1747666059020,1.3317550661417323,1.4264799937007873,0.01898073553543307,-0.11789699138582678,1.2470164031496063,-4.854844209448819
789,1747666059030,1.3648223444444445,1.3118075888888887,-0.032785025333333336,0.16703770977777777,1.0737654,-5.2342328
790,1747666059040,1.3716017,1.2859375,-0.04807928,0.2302962,1.0348058,-5.317582
791,1747666059050,1.385977392920354,1.17576187079646,-0.14140634442477876,0.43989324584070794,0.7509804433628319,-5.830449320353982
792,1747666059060,1.3384381743801652,0.9986438487603305,-0.347690814214876,0.33724809650413223,0.6440084867768595,-6.127039152066116
793,1747666059070,1.2903306,0.8097819,-0.56718904,0.028099801,0.7067711,-6.2589254
794,1747666059080,1.204769954237288,0.7303640416949153,-0.5295380320338983,-0.3687037723728814,0.950992943220339,-6.202699808474576
795,1747666059090,1.0849575049586777,0.6206980851239668,-0.4571978673553719,-0.9603962927272728,1.3173838975206613,-6.113312041322313
796,1747666059100,1.0064921,0.5693855,-0.33875147,-1.0916162,1.4227052,-6.020077
797,1747666059110,0.91064982848,0.5191604992,-0.18945871016,-1.046333936,1.3730051784,-5.959332719999999
798,1747666059120,0.697267552704918,0.47768203204918036,0.032963732377049186,-0.63784345,1.044259113114754,-5.801262073770491
799,1747666059130,0.559983133898305,0.48210409406779664,0.09854328483050846,0.23762658,0.31337386,-5.3841662
800,1747666059140,0.593993251724138,0.4792779551724138,0.036473934137931034,0.6397655034482759,0.0003370200000000078,-5.026873268965518
801,1747666059150,0.7627137571428572,0.4689734171428571,-0.19942964285714285,1.0932645571428572,-0.3979059933333333,-4.45320773015873
802,1747666059160,0.9677982472,0.44511552064,-0.46170945871999997,0.8969847479999999,-0.40206660896,-4.1688280384
803,1747666059170,0.991232378,0.4199859295,-0.49017678175,0.7405315933333333,-0.34778593199999996,-4.13018224
804,1747666059180,0.9628794770689655,0.25898682844827586,-0.42657420870689655,0.11546406620689655,-0.21547745431034482,-4.004737834482759
805,1747666059190,0.9447456,0.21599068,-0.39293218,-0.054951313391304345,-0.2579444893913043,-3.92826201826087
806,1747666059200,0.7405479958490566,-0.15450665094339622,0.02878954396226415,-0.22817545886792454,-0.8345340943396227,-3.3724947339622644
807,1747666059210,0.6682882267226892,-0.21120796151260504,0.1346703805882353,-0.14420013100840337,-1.0256478529411763,-3.1522185899159663
808,1747666059220,0.5561545576377952,-0.23615326881889762,0.2665566475590551,0.09529017094488189,-1.3760244732283464,-2.664161365354331
809,1747666059230,0.48128092,-0.20964517,0.3265486,0.40317106,-1.6542231,-2.0641136
810,1747666059240,0.5080391681967213,-0.17756565098360655,0.22255621147540985,0.6369722039344262,-1.7498184836065573,-1.5672398721311476
811,1747666059250,0.5975628768907563,-0.16129518823529412,0.04925854406722689,1.218090974789916,-1.4314267252100839,0.0476885568907563
812,1747666059260,0.5968882793103447,-0.15672263241379308,0.027187134413793102,1.2129835370689654,-1.3625718413793104,0.13614922288793105
813,1747666059270,0.54059448390625,-0.103871147828125,-0.19354120375,1.07617271953125,-0.6462954121875,0.993037776640625
814,1747666059280,0.3029280979130435,-0.05980039243478261,-0.31112841391304347,0.67073002,-0.05461135200000001,1.85079944
815,1747666059290,0.27602875,-0.054668825,-0.3184947,0.5815437,0.03481932,2.0250182
816,1747666059300,0.2618634274590164,-0.053022438663934426,-0.32589443655737704,0.4041924987704918,0.2541549990983607,2.382749913114754
817,1747666059310,0.23087815909090909,-0.03206024681818182,-0.34995591090909095,0.1021154611570248,0.6629352330578513,3.0316231867768595
818,1747666059320,0.25040275,-0.01952458,-0.34729347,-0.25228736,1.1716396,3.9138136
819,1747666059330,0.36938973181818185,0.022965584981818183,-0.3207053303305785,-0.3480568852892562,1.2146071462809918,4.323886112396694
820,1747666059340,0.43640561056,0.056058973536000006,-0.30331627624,-0.38545597,1.2125676,4.520403
821,1747666059350,0.5379022,0.1210524,-0.26236153,-0.1373184694049587,0.721901329338843,4.80660068677686
822,1747666059360,0.5404113504132231,0.1235938226446281,-0.2609697987603306,0.09224065399999999,0.34025195,4.93518
823,1747666059370,0.7335278177419355,0.34909043241935483,-0.20948377637096774,0.370972544,0.05413055483870969,5.070260322580645
824,1747666059380,0.7981008206896552,0.41487207758620687,-0.25737097896551725,0.7300050220689656,-0.2843472206896552,5.266164275862069
825,1747666059390,0.9030278032786886,0.45925572737704917,-0.3267086244262295,0.8472701,-0.3475823,5.364619
826,1747666059400,1.0735372768595042,0.5690446696694215,-0.45026342123966945,0.9900358677685951,-0.21218731752066117,5.644157698347108
827,1747666059410,1.0928884,0.5947675,-0.47103047,1.0372492,-0.15149458,5.7549615
828,1747666059420,1.124248694214876,0.6973603057024793,-0.4863334618181818,0.8787220919834711,-0.12480834900826446,5.8423050991735535
829,1747666059430,1.1528604927927928,0.8149467342342344,-0.4332873554954955,0.7806858,-0.13439035,5.892406
830,1747666059440,1.1992973,0.9589009,-0.30848834,0.684438220338983,-0.20918510796610168,5.947487694915254
831,1747666059450,1.554612341322314,1.1619726727272728,-0.13131490033057852,0.7420043917355371,-0.39262479181818183,5.947924020661158
832,1747666059460,1.662542716101695,1.2324042669491526,-0.08781303472881355,1.1802538406779661,-0.7693588949152542,5.686606728813559
833,1747666059470,1.9918473527559055,1.4410465551181102,-0.11346932488188977,1.8129422850393702,-0.9197610198425197,4.938701330708661
834,1747666059480,1.9464217033333333,1.5130409966666667,-0.2238655833333333,2.0400455425,-0.76854481425,4.2778740950000005
835,1747666059490,1.7055692902439026,1.5787388406504066,-0.3021527994308943,2.0803686341463417,-0.6053227499999999,3.827100556097561
836,1747666059500,1.6066289,1.598819,-0.31703037,2.062892,-0.5045747,3.5851681
837,1747666059510,1.0068968646341463,1.6948704910569106,-0.3666196404065041,1.9461819186991869,-0.3496234967479675,3.2827153357723575
838,1747666059520,0.749802414,1.761937076,-0.40710701920000003,1.5507522975999999,0.020984451880000005,2.8459381519999996
839,1747666059530,0.5845379547008547,1.8642259743589744,-0.4789592264102564,1.163291033333333,0.24169901000000002,2.521448133333333
840,1747666059540,0.5610876,1.8821694,-0.49079913,1.0709981933884298,0.26476211214876033,2.457202912396694
841,1747666059550,0.5000344150442478,2.112740897345133,-0.5549127624778761,0.5250413715575222,0.3140009497345133,2.0381437663716815
842,1747666059560,0.50934748,2.4315423750000003,-0.605445005,-0.35589009679999994,0.4707632985,1.1765417675
843,1747666059570,0.51471674,2.4693713,-0.60989904,-0.43371433,0.49663344,1.0885619
844,1747666059580,0.51471674,2.4693713,-0.60989904,-0.43371433,0.49663344,1.0885618999999997
845,1747666059590,0.6321718581512605,2.476658118487395,-0.5477116109243697,-1.0587167342016808,0.8353454003361345,0.1295753025210084
846,1747666059600,0.9036399442622951,2.3522038032786883,-0.3596523662295082,-1.7945569336065574,1.3367935139344262,-1.6613882540983607
847,1747666059610,0.9545079,2.2660716,-0.30238694,-1.8332067,1.3866642,-2.1563544
848,1747666059620,0.9603203664,2.2488372400000003,-0.29332558327999997,-1.827752892,1.3811908432,-2.1950588224000005
849,1747666059630,1.1014754613445379,1.8025781579831934,-0.10954479542016807,-1.361146323529412,0.8961085009243698,-4.023122623529412
850,1747666059640,1.1750332677419357,1.562226314516129,-0.025232370277419355,-1.1270462999999997,0.64812803,-4.533231
851,1747666059650,1.2032637417391305,1.3812409817391305,-0.004849311403478261,-0.7835913824347827,0.29803319163826086,-5.011777631304348
852,1747666059660,1.2285842,1.2832531,-0.024405725,-0.49113566,-0.0030543262,-5.3914967
853,1747666059670,1.392181783116883,0.9947519922077922,-0.2890588675324675,-0.05192354490909091,-0.34919276363636365,-6.2378786090909095
854,1747666059680,1.411465138938053,0.9677237034513275,-0.3241123410619469,-0.06148115338053098,-0.33047266946902654,-6.287706601769911
855,1747666059690,1.4524862716666667,0.8409805976666667,-0.4640667275,-0.24908030208333332,-0.118100610375,-6.5826583125
856,1747666059700,1.3551684666666666,0.7167147766666666,-0.51756409,-0.48523062333333333,0.072082099,-6.736010766666666
857,1747666059710,1.2862819575342468,0.6608568657534247,-0.5232721271232876,-0.6443707821917808,0.17311753301369862,-6.781172898630137
858,1747666059720,1.2862819575342468,0.6608568657534247,-0.5232721271232876,-0.6443707821917808,0.17311753301369862,-6.781172898630137
859,1747666059730,0.8144648390625,0.4903338815625,-0.27756935265625,-1.4355715140625,0.53731326140625,-6.7023656484375005
860,1747666059740,0.8144648390625,0.4903338815625,-0.27756935265625,-1.4355715140625,0.53731326140625,-6.7023656484375005
861,1747666059750,0.6281752461538462,0.4484880394230769,-0.15128733115384616,-1.5133833884615386,0.5029888092307693,-6.3064669
862,1747666059760,0.5638652165079365,0.4423518225396825,-0.05543198803174603,-1.3030967674603176,0.3899065576984127,-6.049611611111112
863,1747666059770,0.5562640948818899,0.4363167051181102,-0.01205104711023622,-1.098903279527559,0.2899974453543307,-5.878928422834646
864,1747666059780,0.57377857,0.41880223,0.017328065,-0.7519334879545454,0.12518572704545455,-5.642728927272727
865,1747666059790,0.6204999072649572,0.3947052274358974,-0.04377803132478632,-0.03683987333333334,-0.24744743196581195,-5.207589742735042
866,1747666059800,0.7290157128205128,0.3490227146153846,-0.23017727,0.48485469230769235,-0.6376023538461538,-4.724384779487179
867,1747666059810,0.72704655,0.34656128,-0.28408262,0.552833,-0.7287622,-4.5674396
868,1747666059820,0.7241474186868686,0.33510291636363637,-0.309898455959596,0.5376292602020202,-0.7792110727272727,-4.4140196242424246
869,1747666059830,0.7373670929885058,0.20629290034482758,-0.41920900666666666,-0.09135595591954022,-0.8220139698850575,-3.3973095195402294
870,1747666059840,0.7156572184210526,0.09925422666666667,-0.3810590063157895,-0.44326312184210526,-0.7501907568421052,-2.9598831763157896
871,1747666059850,0.6511854183333333,0.03660045041666667,-0.30952966833333334,-0.6756627858333334,-0.6993745530833333,-2.551258371666667
872,1747666059860,0.6062382,0.0024405725,-0.26236153,-0.7489208,-0.68539083,-2.3976462
873,1747666059870,0.41812338789915965,-0.05135046363445379,-0.0002502065210084052,-0.7896690820168067,-0.8986957331092437,-1.1481700406722688
874,1747666059880,0.3609514611320755,-0.06889781924528303,0.09393901633962265,-0.7818152905660377,-1.018992403773585,-0.44208203698113213
875,1747666059890,0.4119398941176471,-0.0781126744117647,0.17694150529411765,-0.59489036302521,-1.1250905999999998,0.3058638268907563
876,1747666059900,0.4586207966101695,-0.05830486127118644,0.16838708966101695,-0.17015703244915256,-0.9698365959322034,1.3309201177966103
877,1747666059910,0.45541083305084745,-0.02805417253220339,0.1396503813559322,0.012962767279661015,-0.8012584811864408,1.7588312491525422
878,1747666059920,0.3989638761904762,0.020593782095238093,0.08652410461904762,0.13945181142857144,-0.5089380104761906,2.1861994904761906
879,1747666059930,0.3682824,0.044418417,0.059794027,0.20482556656000003,-0.254159028552,2.5478603128
880,1747666059940,0.3393702466929134,0.10814425807874016,0.022120811820787404,0.3155576004724409,0.1662130603070866,3.400831122047244
881,1747666059950,0.34969141761904765,0.16865904126984127,0.0008096502190476191,0.361001973015873,0.29738470634920633,3.7346264587301587
882,1747666059960,0.4039639669747899,0.20445638647058823,0.008234368327731091,0.4830147388235294,0.32638170470588235,4.198871911764706
883,1747666059970,0.485918,0.23405088,0.010738519,0.6365216,0.29016098,4.5570545
884,1747666059980,0.5031309715447154,0.23489020154471543,0.006335567601626016,0.662550417886179,0.278922053902439,4.588536443902439
885,1747666059990,0.761806066101695,0.23331045033898304,-0.12354674394915255,1.2351902533898305,0.09230795406779661,5.201419283050847
886,1747666060000,0.8091886835772357,0.24247583585365853,-0.19061665284552848,1.4401073829268292,0.05982009890243902,5.4251837707317065
887,1747666060010,0.8192837911764707,0.26248869815126047,-0.2511800394957983,1.5253305,0.047036625,5.577811
888,1747666060020,0.860747299047619,0.31150615492063494,-0.33860426746031747,1.5517528412698414,0.049218286904761904,5.814399888888889
889,1747666060030,0.9059405,0.340948,-0.37584817,1.5906329844262297,0.053816228631147545,6.178085767213115
890,1747666060040,1.02152602,0.45380006399999995,-0.44887008199999995,1.367390036,0.23053565184,6.7669795312
891,1747666060050,1.0504224,0.48201308,-0.46712556,1.2834278,0.25717425,6.885673
892,1747666060060,1.0504224,0.48201308,-0.46712556,1.2834278,0.25717425,6.885673
893,1747666060070,1.1597619910569106,0.6095200800813009,-0.45202974764227644,1.0242968260162602,0.2452251368292683,6.971934029268293
894,1747666060080,1.4071012553571427,0.7849164357142857,-0.33232100464285713,0.4857469464285714,0.15031648700892858,6.922821253571429
895,1747666060090,1.4674224153846154,0.804938323076923,-0.2669423276923077,0.4286864330769231,0.11282211461538462,6.808468969230769
896,1747666060100,1.4834788267241379,0.9109267956896553,-0.15710764008620687,0.566082510775862,0.018241699137931028,6.531502874137931
897,1747666060110,1.4953107524590163,1.1385150393442622,-0.029752977000000003,1.1174427508196723,-0.2327697045901639,6.304499918032787
898,1747666060120,1.5805538192,1.3110579712,-0.059143855104,1.6426410672,-0.44476854911999997,6.191647272
899,1747666060130,1.656458700862069,1.404265425862069,-0.1318918979137931,1.941076982758621,-0.5263762613793104,6.030504
900,1747666060140,1.7015369661157023,1.4665460752066115,-0.19786386107438014,2.077704185123967,-0.49718371735537187,5.604264553719008
901,1747666060150,1.7118647403225806,1.7330623887096774,-0.506068464032258,2.0552364983870968,-0.3544200585483871,4.8558071451612905
902,1747666060160,1.6119982,1.8916875999999998,-0.647972,1.6884315,-0.14049901,4.255898
903,1747666060170,1.4302122920634919,2.046573092857143,-0.741240607936508,0.9706648904761905,0.19019241333333334,3.5150931904761906
904,1747666060180,1.308879,2.1506326,-0.7643873,0.3171529525423729,0.4667217642372882,2.87763096779661
905,1747666060190,1.0986862121008403,2.2572650142857142,-0.5803783852941177,-0.6205158907563025,0.8880029821008404,1.7692198647058823
906,1747666060200,0.9191731082926828,2.299763387804878,-0.377223206097561,-0.9308692219512195,1.0370703673170731,0.9654948682926829
907,1747666060210,0.8524543692307692,2.298906623076923,-0.29305642153846156,-0.9893197461538461,1.047117023076923,0.5375613846153846
908,1747666060220,0.7635281972,2.276839276,-0.1843022664,-0.95773897504,0.9540298319999999,-0.15046345232000002
909,1747666060230,0.701635894117647,2.182130123529412,-0.09295710235294118,-0.7797156070588235,0.7053337623529411,-0.9648077741176471
910,1747666060240,0.6977771384920635,2.1128809928571433,-0.05709002694444445,-0.6167072684126984,0.48616630666666666,-1.5885938722222221
911,1747666060250,0.8119744672131147,2.007971024590164,-0.0719968862295082,-0.4509587327868852,0.2582457868852459,-2.206194926229508
912,1747666060260,0.88007045,1.9434278,-0.09005712,-0.37018433,0.14782938,-2.557082
913,1747666060270,0.98777089875,1.8207748091666667,-0.14521406058333333,-0.32529591416666664,0.013968446316666668,-3.4881778758333337
914,1747666060280,1.1463635163636363,1.5903746254545454,-0.2567571058181818,-0.36829620181818185,-0.09673884272727273,-4.525789636363636
915,1747666060290,1.2002380693548387,1.4962087,-0.31228306129032257,-0.4970078322580645,-0.06810162220967743,-4.841718164516129
916,1747666060300,1.3028915893442623,1.3389600901639342,-0.33696904934426225,-0.7672066606557377,0.07084034031147542,-5.25825797704918
917,1747666060310,1.446279152542373,1.117467770338983,-0.30421323016949153,-1.1439020881355932,0.32191563,-5.8170936508474576
918,1747666060320,1.5089846373015872,0.9628833023809524,-0.2498177738888889,-1.2339478,0.41599923,-6.010914
919,1747666060330,1.5214529,0.92937,-0.23917611,-1.2339478,0.41599923,-6.010914
920,1747666060340,1.5214529,0.92937,-0.23917611,-1.2339478,0.41599923,-6.010914
921,1747666060350,1.5229906585365856,0.9247210073170732,-0.23839830146341465,-1.2429270268292683,0.42811224430894307,-6.050073938211382
922,1747666060360,1.5570792475409836,0.49133723483606556,-0.153015891147541,-1.349501467213115,0.5896051224590164,-7.239489068852459
923,1747666060370,1.4936304,0.4556549,-0.14204131,-1.3420709,0.61453044,-7.375587
924,1747666060380,1.1517019847457626,0.3710249379661017,-0.0858916025423729,-1.3088564322033898,0.6806591886440679,-7.389108983050847
925,1747666060390,0.8870766341463415,0.3352870390243903,-0.03868605024390244,-1.2742649000000001,0.7263188,-7.349931
926,1747666060400,0.7792318128,0.34459321024,-0.009549473024000001,-1.0603740784,0.6133771412,-7.0854748296
927,1747666060410,0.6962953,0.35754386,0.016351834,-0.9816604,0.5662721,-6.98952
928,1747666060420,0.5691395398373983,0.4214134746341463,0.0746259619105691,-0.715775136097561,0.27217274373983735,-6.634349003252033
929,1747666060430,0.5679211999999999,0.5110559,0.090789296,-0.36346483,-0.16065755,-6.1324763
930,1747666060440,0.5679212,0.5110559,0.090789296,0.3087274633070866,-0.7943700992125984,-5.393545886614174
931,1747666060450,0.7397009075,0.48069719333333333,-0.07310124027499999,0.462195925,-0.9013621825,-5.224241875000001
932,1747666060460,0.86369127592,0.4678030816,-0.32883494016,0.5548171376800001,-1.0683739504,-4.892835196
933,1747666060470,0.7931685928571429,0.39113660571428577,-0.4982603192857143,0.16410458928571425,-1.1191051499999998,-4.400454964285714
934,1747666060480,0.6955888557894737,0.2664719668421053,-0.5378636442105263,-0.13897185,-0.8924740999999999,-4.01277375
935,1747666060490,0.63406074,0.20866893,-0.53863436,-0.25473082,-0.7703011,-3.8344011
936,1747666060500,0.4628268848739496,0.15319616302521008,-0.4560568705882353,-0.46361079294117646,-0.562504234789916,-2.9629119957983194
937,1747666060510,0.22082591247863248,0.08687395589743589,-0.3242707423076924,-0.7154537324786324,-0.34009530273504274,-1.7182020504273505
938,1747666060520,0.20121707233333333,0.116887153,-0.24827945383333333,-0.761056662,-0.3626299733333333,-0.790703995
939,1747666060530,0.2272173,0.13447554,-0.18060236,-0.76174897,-0.37751472,-0.37323865
940,1747666060540,0.25234266324786325,0.14067084341880343,-0.14010345786324788,-0.7352468176923077,-0.3735675969230769,-0.0853801576923077
941,1747666060550,0.3743143575609756,0.1340191731707317,0.022963205845528457,-0.39876091902439026,-0.1396845217886179,1.2082665654471545
942,1747666060560,0.40196228,0.12983845,0.058817793,-0.3182608,-0.07574729,1.4434745
943,1747666060570,0.40196228,0.12983845,0.058817793,-0.26137021704918034,-0.02783943245901639,1.5588679508196719
944,1747666060580,0.3081822888524591,0.13754625885245902,0.10233799809836067,0.13654340278688523,0.1261787213114754,2.376966759836065
945,1747666060590,0.3032991433606557,0.14559615057377048,0.10903757229508197,0.452811376557377,0.11472249401639345,2.9410206729508195
946,1747666060600,0.34940049300000003,0.15606241133333335,0.09361629433333334,0.7699956416666667,0.04143702416666666,3.444058141666667
947,1747666060610,0.3912238,0.17352471,0.05588911,1.0219775,-0.09407325,3.7867537000000002
948,1747666060620,0.45952832741935484,0.1946750264516129,-0.04493801846774194,1.1850194193548387,-0.24777482129032258,4.1041475451612905
949,1747666060630,0.5298483,0.21623473,-0.15302388,1.350623,-0.43004912,4.5039096
950,1747666060640,0.529137940813008,0.24989874642276422,-0.20980787121951222,1.26649248699187,-0.37416239747967484,4.69560675203252
951,1747666060650,0.5556223385245902,0.27715702721311475,-0.22680119360655737,1.0987212983606556,-0.2100124626065574,4.9820818762295085
952,1747666060660,0.59867245,0.29604146,-0.23112221,0.9957104,-0.099571034,5.159979
953,1747666060670,0.6133739761904762,0.30869757285714283,-0.2271591876190476,0.8862782095238095,0.06745698047619048,5.399001666666667
954,1747666060680,0.626739,0.32020313,-0.22355644,0.7867944,0.21930063,5.616295
955,1747666060690,0.67494911744,0.3637155828,-0.21158396608000002,0.78397465808,0.136511282408,5.8639885744
956,1747666060700,0.7465311521311475,0.4219109337704918,-0.20017095213114755,0.7945353849180328,-0.026782937680327867,6.1498505836065585
957,1747666060710,0.9120243637600001,0.51625720144,-0.21654712168,0.8348573448000001,-0.45118507911999994,6.3674981408
958,1747666060720,1.0155721217322835,0.5969217173228346,-0.21293514102362204,0.8335857554330709,-0.5556468796850393,6.459856571653543
959,1747666060730,1.1415245598290598,0.6847579102564103,-0.19632005991452992,0.82100288,-0.5541017707692307,6.546877830769231
960,1747666060740,1.3613159048387098,0.8298301193548386,-0.1755381718548387,0.8153770169354838,-0.3764210714516129,6.597541959677419
961,1747666060750,1.5895651966666666,0.9692815416666666,-0.164689826,0.8184372599999999,-0.14078407013333333,6.580037146666666
962,1747666060760,1.7559919,1.0513986,-0.17425688,0.8136725,0.115453534,6.4079766
963,1747666060770,1.757693327142857,1.052699077142857,-0.1743928547142857,0.8135677800000001,0.11898782551428572,6.402330462857143
964,1747666060780,1.757693327142857,1.052699077142857,-0.1743928547142857,0.8135677800000001,0.11898782551428572,6.402330462857143
965,1747666060790,1.4348407403846155,1.414180294230769,-0.2416495251923077,0.5845510261538462,0.2231067880769231,4.643926763461538
966,1747666060800,1.4348407403846155,1.414180294230769,-0.2416495251923077,0.5845510261538462,0.2231067880769231,4.643926763461538
967,1747666060810,1.2351737,1.4999758,-0.1986626,0.4025602,0.04886922,4.359134
968,1747666060820,1.2420658231404957,1.5136571190082646,-0.19197623867768596,0.24331115312396695,0.08412775743801654,4.145321312396694
969,1747666060830,1.2752388138211381,1.5851041414634148,-0.16507198804878048,-0.11523003351219513,0.2883581938211382,3.524578178861789
970,1747666060840,1.2935034,1.6654466,-0.12886222,-0.338352518125,0.4346974375,3.0177601531250002
971,1747666060850,1.2879078338709677,1.7069855661290323,-0.02295712629032258,-0.46266638951612904,0.5947955511290323,2.217288112903226
972,1747666060860,1.278017419047619,1.7210277642857144,0.0200940469047619,-0.50946164,0.6872234,1.7037032
973,1747666060870,1.05768116953125,1.8215059859375,0.025031121480468748,-0.460411034609375,0.7739853778906249,1.0453431804687499
974,1747666060880,0.9425206113333332,1.8742742916666666,0.0033313811416666663,-0.44753514125,0.84444483375,0.4711298
975,1747666060890,0.77414954,1.9512378,-0.04905551,-0.50579643,0.86742866,0.1301143
976,1747666060900,0.77414954,1.9512378,-0.04905551,-0.50579643,0.86742866,0.1301143
977,1747666060910,0.6879267918181818,1.951729947933884,-0.0692598154214876,-0.8744359195041322,0.8776770649586776,-0.5678825512396695
978,1747666060920,0.7456261308000001,1.8416072088000002,0.014432569880000001,-1.2003697744000001,0.85701460064,-1.5206732816000001
979,1747666060930,0.9989550593277311,1.533317351260504,0.2063637377647059,-1.1095109764705884,0.6731375664705882,-2.5117341411764706
980,1747666060940,1.0472497,1.470689,0.23990828,-0.99082345,0.5363397,-3.091589
981,1747666060950,1.1295631508474575,1.3036793635593222,0.2726078076271186,-0.7597766182203389,0.4242096686440678,-3.817949177966102
982,1747666060960,1.1652729556451615,1.1732009887096777,0.27492853080645163,-0.4653216741129032,0.3645387637096774,-4.589509225806451
983,1747666060970,1.1852942488,1.0783620976000001,0.13797630432,-0.29108949736,0.5245524632,-5.1843351936
984,1747666060980,1.2443526479674798,0.9651749678861788,-0.022842170878048778,-0.29695499560975613,0.7879118634146342,-5.632371170731707
985,1747666060990,1.3323319976,0.8891825084,-0.129647123824,-0.3109304,0.8222246,-5.6712728
986,1747666061000,1.3579346,0.8690878,-0.15888128,-0.3109304,0.8222246,-5.6712728
987,1747666061010,1.4184607333333334,0.7974977066666666,-0.22070911333333335,-0.513679498095238,1.0625564476190477,-6.012077476190476
988,1747666061020,1.4487238,0.76170266,-0.25162303,-0.7770206,1.2675453,-6.505715
989,1747666061030,1.3719606727272726,0.5080606221487602,-0.18188316239669422,-0.8267480704132232,1.1561054074380164,-7.073647872727273
990,1747666061040,1.2283752000000001,0.3811451844,-0.09462001944,-0.6978768736000001,1.02786628,-7.178546216
991,1747666061050,1.0859559904761906,0.40856346071428573,-0.014010046547619047,-0.5839144395238095,0.9462884333333333,-7.05056299047619
992,1747666061060,1.0099089,0.4617563,0.03904916,-0.42210788,0.8313876,-6.8618493
993,1747666061070,0.9880081836000001,0.5347899664,0.064436970768,-0.29822929752,0.8165753472,-6.675212785599999
994,1747666061080,0.9586569,0.6299118,0.097134784,-0.10934488000000002,0.79412484,-6.390872
995,1747666061090,0.8913048303174603,0.6293306904761904,0.07608000468253968,0.14867781444444442,0.7871677522222222,-6.247624227777778
996,1747666061100,0.6996074985714286,0.5862952714285714,-0.02182569157142857,0.9358795063492064,0.7440920380952382,-5.848680952380953
997,1747666061110,0.5811910615702479,0.5324845363636364,-0.19729104214876034,1.3230281330578513,0.5186548991735537,-5.5287143264462815
998,1747666061120,0.44305371439999996,0.49329243840000003,-0.41221855648,1.4216251208000001,0.039134470799999994,-5.028843184
999,1747666061130,0.31605413,0.516303125,-0.6129497599999999,0.9385944300000001,-0.5968153249999999,-4.3261477500000005
1000,1747666061140,0.23112221,0.54888475,-0.7390053,0.47342056,-1.0995574,-3.7513235
