id,timestamp,acc_x,acc_y,acc_z,gyro_x,gyro_y,gyro_z
0,1747666135800,1.1968567,2.3632064,1.095573,-2.779676880952381,-0.7643087946428571,2.9163141190476187
1,1747666135810,1.0804650524193549,2.532489533870968,1.1467974362903224,-2.545519758064516,-0.5068013971774193,2.4952071741935486
2,1747666135820,0.98220744656,2.6474040912,1.1662538919999998,-2.3275871032,-0.26075637808,2.137842732
3,1747666135830,0.7826661434782609,2.7074607008695653,1.0920330973913044,-1.5117161791304348,0.5434150900869565,0.9710951486956522
4,1747666135840,0.7268477888495575,2.7016489539823008,0.991090607079646,-1.0915999638938052,0.8659582690265486,0.3740873865486725
5,1747666135850,0.7087322090163934,2.6251317467213116,0.7931000758196722,-0.6878342559016393,1.5622527836065574,-0.6759574288524589
6,1747666135860,0.6620970424793389,2.497159411570248,0.6228744433884298,-0.5363245137190082,2.0377252190082644,-1.3678383768595042
7,1747666135870,0.6017874955905512,2.4488415196850397,0.6154047589763779,-0.49193890834645665,2.1948290976377955,-1.7584646385826772
8,1747666135880,0.6051534793162393,2.388356733333333,0.7523971997435898,-0.44080976307692304,2.2072439846153844,-2.028542530769231
9,1747666135890,0.8318771027868852,2.2165500237704916,1.0708731659836066,-0.001381943442622925,1.9377947967213116,-2.487353068852459
10,1747666135900,1.0790302017741935,1.9927629112903225,1.2753545943548388,1.1737479911290323,1.7261672548387095,-3.295213966129032
11,1747666135910,1.1757214066666668,1.84308772,1.2481575933333333,1.625542955,1.9387793,-3.635442265
12,1747666135920,1.23287885,1.6866618403225806,1.2081483217741935,1.9464137322580644,2.136333690322581,-3.897083770967742
13,1747666135930,1.2641352230769232,1.5679634769230768,1.1788465384615385,2.1691825,2.2870796,-4.0866885
14,1747666135940,1.3154402991735539,1.3533922537190084,1.1323832173553718,2.5839246760330576,2.4149017785123967,-4.422709761157025
15,1747666135950,1.3904344377952755,1.0077699787401575,1.0588221220472442,3.302096994488189,2.2937653102362203,-4.94113495984252
16,1747666135960,1.4300040190082646,0.8419934363636363,0.9751599454545454,3.5513635165289252,2.1755636933884293,-5.136377
17,1747666135970,1.394515411382114,0.5944817603252033,0.7518927440650406,3.719732291869919,2.1703594544715443,-5.512517572357724
18,1747666135980,1.361305483760684,0.5071655531623932,0.6665912547008548,3.665786698290598,2.2522758316239315,-5.638014750427351
19,1747666135990,1.3480841737704918,0.46499307475409835,0.6135319,3.476223895081967,2.416152409836066,-5.694075350819673
20,1747666136000,1.3101549170731706,0.4439203008130081,0.5847949154471545,3.21174076097561,2.652381956097561,-5.7121017983739835
21,1747666136010,1.0375940181512604,0.476984258487395,0.604786143277311,2.9484924537815123,2.686066848739496,-5.5016780504201686
22,1747666136020,0.90894658,0.49324566219512195,0.6309713019512195,2.8997921658536585,2.5683157829268293,-5.275089363414635
23,1747666136030,0.8227388237398373,0.49927368650406506,0.6620658039024391,2.9485025528455284,2.375341935772358,-5.036087295121951
24,1747666136040,0.7682922,0.4588276,0.686289,3.2168164,1.7299703,-4.585154500000001
25,1747666136050,0.927518215079365,0.41194538468253966,0.4784335757936508,3.7154279428571426,-0.09253153619047617,-3.86174459047619
26,1747666136060,1.203615246153846,0.42474723512820517,0.40084212128205127,3.8698105076923075,-1.3122063897435896,-3.482861224786325
27,1747666136070,1.4322202527559056,0.44875210440944885,0.3731596837795276,3.6795443700787405,-1.5843872118110236,-3.5475156968503936
28,1747666136080,1.5685316033333334,0.3056328958333333,0.024596903166666673,3.244773571666667,-1.786343065,-3.7762365425
29,1747666136090,1.4818789633333334,0.13439012783333334,-0.11321407916666666,2.0353419225000002,-1.4590516525000001,-4.111733965
30,1747666136100,1.194339921875,-0.04730134312499999,-0.1611235375,1.09719033859375,-0.901880477890625,-4.0149595546875
31,1747666136110,0.8784335684482758,-0.17488805577586208,-0.10984049224137932,0.7276879489655173,-0.6043352941379311,-3.773525227586207
32,1747666136120,0.64714803664,-0.26074490672,0.012946749079999998,0.26888332448,-0.29393858144,-3.240239344
33,1747666136130,0.6334989396551725,-0.4141967,0.3191174590948276,0.011880273086206894,-0.4557159937068965,-2.509028884482759
34,1747666136140,0.8231562680000001,-0.525601684,0.46326948,-0.1513724188,-1.0196563060000001,-1.2075584
35,1747666136150,0.9574346490476191,-0.6195354301587301,0.48072886047619046,-0.16193746476190476,-1.0858857238095239,-0.68684523
36,1747666136160,0.9310168997560976,-0.740642317398374,0.392654369105691,-0.20794746211382115,-0.6047566022764227,-0.17497066951219511
37,1747666136170,0.8357169760483871,-0.7763854685483872,0.28593471733870973,-0.2998067514516129,0.030641793387096754,0.31519661201612903
38,1747666136180,0.6385050363025211,-0.7482528226890757,0.22124506294117646,-0.4397870423529412,0.7641205658823529,0.9019964305882352
39,1747666136190,0.38100537918032784,-0.6143840947540983,0.27495249491803275,-0.4773661631147541,1.025883106557377,1.5382788590163934
40,1747666136200,0.27803452521008404,-0.40281956436974786,0.3122476719327731,-0.34068315,0.7600241823529411,2.3265341647058824
41,1747666136210,0.3040372004761905,-0.17429175,0.29596009714285715,-0.06082472747619048,0.21720623285714286,3.543309323809524
42,1747666136220,0.36047253,-0.14863087,0.26992732,0.015271631,0.08735373,3.8325686
43,1747666136230,0.36047253000000007,-0.14863087,0.26992732,0.015271631,0.08735373,3.8325686
44,1747666136240,0.5074966780833333,-0.14551303908333332,0.20857946208333333,0.062399884825,-0.08380561533333332,4.1124008875
45,1747666136250,0.9479183,-0.13374338,0.02391761,0.18065847000000002,-0.6073773787096775,4.953309303225806
46,1747666136260,1.1719070983050848,-0.04654047531355932,-0.13039275593220337,-0.20313858550847458,-0.782513186440678,5.193488372033899
47,1747666136270,1.2266414864000001,-0.0432879448,-0.18576661496,-0.5295713236799999,-0.7200977287999999,5.2662792024
48,1747666136280,1.2604967068965518,-0.010738518510344828,-0.2401186696551724,-0.8551902896551723,-0.6580282793103448,5.337529827586207
49,1747666136290,1.2869773974789915,0.022030780924369747,-0.22049650470588236,-1.587002274789916,-0.6587745462184874,5.614488008403361
50,1747666136300,1.3125602,0.04531329616666667,-0.15853552791666667,-1.8727957708333336,-0.7269245541666667,5.722000066666666
51,1747666136310,1.3455143016806725,0.06576009898319328,-0.07990106400840336,-2.1958859571428575,-0.9096656142857142,5.833152
52,1747666136320,1.45283025,0.09129484543650794,0.11509235854761904,-2.520808176190476,-1.2188943380952382,5.937479130952381
53,1747666136330,1.6425428581196582,0.01881744021196581,0.3271743830769231,-2.73516215982906,-1.5638568589743589,6.003072050427351
54,1747666136340,1.6840811705882353,-0.017787466482352944,0.35905127823529415,-2.796915769747899,-1.666173531932773,6.02483571512605
55,1747666136350,1.6607812046511627,-0.03722156895813953,0.2920400353488372,-2.996805452713178,-1.779919284496124,6.078346197674419
56,1747666136360,1.665042618487395,0.10724162874957983,0.22542276016806725,-3.395317314285714,-1.7887366470588235,6.1170660621848745
57,1747666136370,1.7151277,0.33568718761904764,0.2764684352380952,-3.948836419047619,-1.7423331857142859,6.127385566666667
58,1747666136380,1.7704078033898305,0.544868139661017,0.5852368711864406,-4.250193110169492,-1.731585593220339,6.0231829999999995
59,1747666136390,1.7911873915966385,0.6593893640336135,0.7882577226890757,-4.3065385134453775,-1.7560066352941175,5.9386418403361345
60,1747666136400,1.87997302,1.024747564,1.26499748,-3.6918398767999996,-2.1087605712,5.510112144
61,1747666136410,1.9658344756521737,1.3299550130434783,1.540828872173913,-3.250328944347826,-2.216139469565217,5.208747109565217
62,1747666136420,1.9499307258064515,1.618398764516129,1.5687527838709678,-2.5112669580645157,-2.0344375064516127,4.456813732258064
63,1747666136430,1.944404,1.6808223,1.5585496,-2.3402247,-1.9688187,4.2534547
64,1747666136440,1.892664,1.9246354,1.4374971,-1.9889772,-1.6163495,3.513086
65,1747666136450,1.4396442072463769,2.6381314724637686,1.294051688405797,-2.0022126463768117,-0.49494251347826096,1.7472428217391305
66,1747666136460,1.4396442072463769,2.6381314724637686,1.294051688405797,-2.0022126463768117,-0.49494251347826096,1.7472428217391305
67,1747666136470,1.1096661607843137,2.8804977019607847,1.5348042588235293,-1.6962769647058822,0.2854178062745098,0.4758400725490196
68,1747666136480,1.1379576166666667,2.8308200833333332,1.5341845166666668,-1.34374355,0.43886305142857146,0.08915723652380952
69,1747666136490,1.156155195081967,2.7298043786885247,1.4587181573770491,-0.9482531269672132,0.5863855782786885,-0.40618533444262295
70,1747666136500,1.0915231031250001,2.3282071703125,1.0431579046875,0.17170085390625,1.05142318734375,-2.0625674851562503
71,1747666136510,1.0780008,2.2999957,1.0094208,0.22540927,1.0830641,-2.1563544
72,1747666136520,1.0780008,2.2999957,1.0094208,0.22540927,1.0830641,-2.1563544
73,1747666136530,0.8909061647154471,1.964601349593496,0.6841916904065041,0.44234590471544716,1.4411106032520324,-2.9463620569105693
74,1747666136540,0.8542245904958677,1.5067710553719007,0.4584645649586777,0.557906785123967,1.8839992991735537,-4.115833299999999
75,1747666136550,0.9029285008130081,1.4681590585365856,0.525034599593496,0.5796962317073171,1.8870521146341461,-4.259980495121951
76,1747666136560,1.0550847362068965,1.3750858689655172,0.7328197426724138,0.8483865068965517,1.782947072413793,-4.630969472413793
77,1747666136570,1.295991619512195,1.239864424390244,0.9914022170731707,1.3727432845528453,1.6109062211382115,-5.088656556097561
78,1747666136580,1.4784075463414634,1.1361301317073171,1.03497341300813,1.772050482113821,1.6418816024390244,-5.400217598373984
79,1747666136590,1.5700260928,1.0791996832,1.037266768,2.0021474504,1.7487508215999998,-5.6123268368
80,1747666136600,1.6651399928000001,1.0147686360000001,1.0322606576,2.220358292,1.9205212304,-5.8480279184
81,1747666136610,1.7486345794871794,0.8380279247863248,0.9481519760683761,2.61886797008547,2.3293701162393163,-6.376759735042736
82,1747666136620,1.7482353921875,0.769850025,0.917681894609375,2.7207937,2.4263568,-6.508769
83,1747666136630,1.7082001152542374,0.6716910694915255,0.9162798159322034,3.0029927525423727,2.3100231271186438,-6.669690796610169
84,1747666136640,1.6049459741935483,0.573133040967742,0.8681765874999999,3.2588084064516125,2.0759367612903223,-6.70968493548387
85,1747666136650,1.5040124857142858,0.4926237474603175,0.6795018523809523,3.3543290277777777,1.7882740333333336,-6.630263416666667
86,1747666136660,1.4278277115044247,0.44694873106194694,0.4939632345132743,3.3231448858407084,1.65690980619469,-6.5554001539823
87,1747666136670,1.2799341937007875,0.44793152283464566,0.3964046862992126,3.151862616535433,1.7008123488188975,-6.431516303937007
88,1747666136680,0.9752808619469026,0.5346149265486726,0.3870640021238938,3.0026459849557523,1.5298714504424777,-5.976700104424778
89,1747666136690,0.8682736508620689,0.5645758956896552,0.39504241844827587,3.0397707499999997,1.218913127586207,-5.593545598275862
90,1747666136700,0.8700641,0.5625519,0.39854547,3.0641,1.1123856000000003,-5.4788504
91,1747666136710,0.845231912631579,0.4778666450526316,0.2869779274736842,3.232460894736842,0.49392633494736843,-5.186258722105263
92,1747666136720,0.8427297,0.34656128,0.08908089,3.372587,-0.25289822,-4.918687
93,1747666136730,0.8763360753012048,0.16600303060240965,-0.18104048891566266,2.872214831325301,-1.500542676385542,-4.355976939759036
94,1747666136740,0.9317318193548386,-0.2697068741935484,-0.8210243516129032,1.3374796245161291,-2.394591758064516,-3.4123917419354837
95,1747666136750,0.9913134771084338,-0.34152722915662653,-0.7826592513253012,0.24564142795180724,-2.0128966542168674,-2.8897827036144577
96,1747666136760,1.026552625490196,-0.36554509666666674,-0.7351769801960784,-0.14342157647058823,-1.816509607843137,-2.694838039215686
97,1747666136770,1.2385838297297296,-0.5636601105405405,-0.22188102027027023,-1.6211042756756757,-0.42877788108108106,-1.6141206864864863
98,1747666136780,1.2739624561797753,-0.661493836741573,0.09152421449438203,-1.918597288764045,0.257380175505618,-1.00206608247191
99,1747666136790,1.1774864623931625,-0.6718729042735043,0.47151237162393167,-1.7026015376068375,0.4527451147008547,-0.5388144688888888
100,1747666136800,0.9952229321739131,-0.6417580942608696,0.5301539106086957,-1.0125011982608696,0.22347575182608695,0.03663066591304349
101,1747666136810,0.8994039666304348,-0.6110742658695653,0.4949003672826087,-0.1886245739130435,-0.10817627,0.6854173469565218
102,1747666136820,0.7213448562068965,-0.5057707594827586,0.32284146120689655,0.42688947793103443,-0.3212940543103448,1.2593513234482758
103,1747666136830,0.6053459999999999,-0.41506134081967216,0.16634702216393443,0.54367006,-0.3567453,1.382388
104,1747666136840,0.5288798142857143,-0.34082012476190476,0.0164758033015873,0.9296205571428572,-0.48928369365079366,2.2352626285714288
105,1747666136850,0.464343318,-0.178893962,-0.27475964599999997,0.8949298113,-0.5125587314000001,3.0671788170000003
106,1747666136860,0.4479071743636363,-0.09471639581818181,-0.3506925096363636,0.8289996594545455,-0.5159257083636364,3.5197833109090912
107,1747666136870,0.533531810515464,-0.009812611268041237,-0.36362768536082474,0.6574043618556701,-0.6068159092783505,4.1728456546391755
108,1747666136880,0.7613882097938144,0.1047156552371134,-0.31082073402061855,0.5519576832989691,-0.7104740556701031,4.57248997113402
109,1747666136890,0.85908157,0.15253578,-0.2848148,0.52412236,-0.7470882,4.6896124
110,1747666136900,0.8785552888333332,0.17101701708333333,-0.28710690466666666,0.49772789566666664,-0.7652359916666666,4.747593735
111,1747666136910,0.9779053427868852,0.27500851795081965,-0.30039245565573774,0.3439922471311475,-0.8596626688524589,5.052416513114754
112,1747666136920,0.98005760625,0.329553554375,-0.30080055,0.133369060265625,-0.90976445328125,5.20724916796875
113,1747666136930,1.005419075862069,0.347440745,-0.25349552586206897,-0.22225489281034483,-1.0683874562068965,5.566478
114,1747666136940,1.0772255882352941,0.37525954941176476,-0.23730979823529413,-0.5361240882352941,-1.2766004941176472,5.83861405882353
115,1747666136950,1.0889834,0.37999713,-0.23942018,-0.5888741,-1.318858,5.874691
116,1747666136960,1.0889833999999998,0.37999713,-0.23942018,-0.5888741000000001,-1.318858,5.874691
117,1747666136970,1.2842578375,0.52300135828125,0.018567416124999996,-1.15611973046875,-1.7708124625,5.8625928046875
118,1747666136980,1.3281634192,0.5779002928,0.114763529824,-1.2693046704000002,-1.8483365327999999,5.8527583839999995
119,1747666136990,1.3481722,0.6164886,0.13691612,-1.2956452,-1.8490891,5.8410935
120,1747666137000,1.3393098734375,0.642011660625,0.170489243359375,-1.38101361015625,-1.8377976453125,5.840969390625
121,1747666137010,1.340678436065574,0.7555452491803278,0.3102247663934426,-1.7170821278688526,-1.797556142622951,5.851568172131148
122,1747666137020,1.4551608625,0.8640236875,0.42311898312499996,-1.9345624296875,-1.7768925140625,5.8585125781250005
123,1747666137030,1.5104704,0.9054524,0.46785772,-2.025629,-1.7580702,5.8526998
124,1747666137040,1.5832410707317073,0.9566449,0.5706891712195122,-2.117353321951219,-1.7290665284552846,5.7794656658536585
125,1747666137050,1.715032553543307,1.0472246661417324,0.8069378070866142,-2.1401640653543303,-1.5681343858267716,5.475430618110236
126,1747666137060,1.7974513442477875,1.2489424230088495,1.153043071681416,-1.7546320353982299,-0.8262412088495574,4.573634568141593
127,1747666137070,1.7286574,1.3144923,1.1641531,-1.5937474,-0.5540548,4.3322563
128,1747666137080,1.4790509040983608,1.4992637213114752,1.052456862295082,-1.4128612213114753,-0.11414668108196721,3.844254989344262
129,1747666137090,1.2667211524590165,1.7327584377049179,0.9657825245901639,-1.3698904262295082,0.3192922476721311,3.1437527377049177
130,1747666137100,1.0775608755905512,2.065565974803149,0.9208337655905512,-1.3586076291338585,0.5043438066929133,2.78452572992126
131,1747666137110,1.093227681300813,2.2118709650406503,0.9368186623577236,-1.2811929780487805,0.7360628341463414,2.305807731707317
132,1747666137120,1.1603179309523812,2.31438914047619,0.9348438202380952,-1.0992180761904762,1.0282510587301588,1.6856487523809525
133,1747666137130,1.2666088103448276,2.478382352586207,0.8971102129310344,-0.5145381043103449,1.2986152137931035,0.207841650862069
134,1747666137140,1.2951567467741936,2.501641766129032,0.8781533935483871,-0.37323865,1.3402383,-0.13500121
135,1747666137150,1.3181379078125,2.4671631328125,0.836677840625,0.0023002953125000076,1.3452493078125,-0.67838494203125
136,1747666137160,1.3428029,2.4049401,0.7475473,0.5448918,1.3524556,-1.4159856
137,1747666137170,1.3428029,2.4049401,0.7475473,0.5448918,1.3524556,-1.4159856
138,1747666137180,1.3991922512396693,2.2612166132231404,0.5696356339669422,0.8613805809917355,1.4445599801652893,-2.154213704132231
139,1747666137190,1.5415776065573772,1.8711309475409836,0.15282784459016394,1.4138326,1.6646779573770494,-3.8028863278688525
140,1747666137200,1.6080444,1.6519259199999998,0.124078704,1.2831444352,1.6920478784,-4.407749408
141,1747666137210,1.700665976923077,1.380951023076923,0.18839341384615388,1.178359,1.6571729786324787,-5.02327036923077
142,1747666137220,1.7510954390625,1.196254284375,0.29454469101562497,1.223314890625,1.63017025625,-5.3609917375
143,1747666137230,1.7843742529411766,0.9574468334453782,0.39798149621848733,1.3417578176470588,1.5978848865546218,-5.627152144537815
144,1747666137240,1.7833638,0.808204996923077,0.4329951184615385,1.784217317094017,1.438582458119658,-6.1296985196581195
145,1747666137250,1.763688424,0.7357056992000001,0.40245627344,2.1141459616,1.2411658008,-6.4423508888
146,1747666137260,1.7475933915966386,0.6832167226890756,0.367697884789916,2.258235375630252,1.0826072336134454,-6.603129766386554
147,1747666137270,1.6325972725806452,0.5585801564516129,0.2879206417741936,2.3109033,1.0091494,-6.6749244
148,1747666137280,1.558255394871795,0.50978765,0.25142069675213674,2.287716477777778,0.878231023076923,-6.791839824786325
149,1747666137290,1.469376833027523,0.47162609541284406,0.2122111441284404,2.19818456146789,0.7837680871559632,-6.856345669724771
150,1747666137300,1.3204937770491803,0.43570222524590163,0.16296222836065574,2.0326089385245902,0.8204871409836065,-6.793827889344262
151,1747666137310,1.1570660076923078,0.4458785171153846,0.1453924223076923,1.9311800509615387,0.8749998557692309,-6.7064428240384615
152,1747666137320,0.8809199344230769,0.4492718384615385,0.17536452153846155,1.9122666115384617,0.6153057634615385,-6.183342334615385
153,1747666137330,0.76267886,0.4412555,0.19597797,1.9859229,0.26816985,-5.7170877
154,1747666137340,0.91057765,0.13496366,-0.31581008,2.2192733,-0.7489208,-4.783075
155,1747666137350,0.91057765,0.13496366,-0.31581008,2.2192733,-0.7489208,-4.783075
156,1747666137360,0.9460472833333333,0.07948131066666668,-0.38447151333333335,1.5572991333333335,-1.4591534666666666,-3.7887896666666667
157,1747666137370,0.9712851171428571,0.03846342217142857,-0.425217454,1.303097746,-1.50529416,-3.5995844
158,1747666137380,1.0394049857142855,-0.08430434285714285,-0.47615572,0.7797549147619048,-1.538129638095238,-3.301668361904762
159,1747666137390,1.1129531016393441,-0.25244321278688525,-0.4571192180327869,0.17708081901639341,-1.550596324590164,-2.998937785245902
160,1747666137400,1.2083637322314051,-0.5984969502479339,-0.22820159570247933,-0.7307159948760331,-1.4350991404958677,-2.3007709132231406
161,1747666137410,1.2429114260869565,-0.715577968,-0.09057283045217392,-1.180754724347826,-1.2838687495652175,-1.786159315652174
162,1747666137420,1.2666571,-0.7826916,-0.014643434,-1.3121386,-1.1313224,-1.4660766
163,1747666137430,1.1624308566037735,-0.9135201062264151,0.2617675006037736,-1.1595144396226416,-0.41681755396226416,-0.4229377383018868
164,1747666137440,1.067437812396694,-0.9391161633884297,0.35704566347107436,-0.9634657446280992,-0.03483446495867768,0.05831490983471074
165,1747666137450,0.7738147162790697,-0.8377520381395348,0.35852011209302326,-0.48497016976744184,0.47188631651162793,0.626151080232558
166,1747666137460,0.6667915333333333,-0.7880879555555556,0.3451783088888889,-0.3389720182539683,0.5990649023809524,0.7917395396825396
167,1747666137470,0.46548201875,-0.65663599765625,0.27942267078125,0.06759605671875,0.79282673359375,1.3168632390625001
168,1747666137480,0.3186469908,-0.4478704376,0.11634111624799999,0.48882414096000004,0.71029948576,2.1157391656
169,1747666137490,0.27310005,-0.2997023,-0.023673553,0.7275405,0.54305923,2.702468
170,1747666137500,0.36492350338983054,-0.15957206830508475,-0.13017765186440677,0.801755453898305,0.15412440972881356,3.2673939508474574
171,1747666137510,0.4036707,-0.10177187,-0.1701079,0.82527894,0.004886921999999999,3.4788775
172,1747666137520,0.4660926972,0.00101332624,-0.22414217656,0.8170689196800001,-0.230711576896,3.7927595527999998
173,1747666137530,0.5125202,0.08346757,-0.28359452,0.7495316,-0.44593164,4.0866885
174,1747666137540,0.5125202,0.08346757,-0.28359452,0.7495316,-0.44593164,4.0866885
175,1747666137550,0.6783806165137614,0.08038663791743118,-0.3799926568807339,-0.08825043091743122,-0.6627551826605504,5.096846472477064
176,1747666137560,1.0572797853658535,-0.013345764717073171,-0.2876363475609756,-1.6873587756097561,-0.28400764951219515,6.532220634146341
177,1747666137570,1.196101659375,0.0181784519984375,-0.15911388375000002,-2.18918824375,0.032375853125000006,6.903960737499999
178,1747666137580,1.3018249822580643,0.06475389912903226,-0.023968778870967745,-2.4295884419354836,0.21727096903225807,7.081583283870968
179,1747666137590,1.4512912448000002,0.153414384,0.17842928864000002,-2.6328292,0.38912117,7.25769
180,1747666137600,1.6608096,0.29213652,0.4283205,-2.6328292,0.38912117,7.25769
181,1747666137610,1.6608096,0.29213652,0.4283205,-2.6328292,0.38912117,7.25769
182,1747666137620,1.7125516642857144,0.3765822682539683,0.4349429667460317,-2.4221000793650793,0.0641069285714286,7.153367755555556
183,1747666137630,1.9286982621848738,0.849329475630252,0.47433242100840334,-1.4200255151260506,-1.5500577033613445,6.488533512605042
184,1747666137640,1.9871645165289258,1.0710925595041323,0.5489311024793389,-1.0118301429752066,-2.1013361099173555,6.173277960330579
185,1747666137650,2.0134664584,1.192922524,0.5558101352,-0.8537696896,-2.1156756679999997,6.0020003144
186,1747666137660,2.0176213,1.2205303,0.5544981,-0.8026768999999999,-2.0934353,5.929669
187,1747666137670,2.0124775050420167,1.3544993638655463,0.47640790840336134,-0.7355946512605042,-1.8212253840336137,5.573190405042016
188,1747666137680,1.9827427812499998,1.411411480357143,0.4429900227678571,-0.8120689824999999,-1.508820777232143,5.1691743741071425
189,1747666137690,1.690952686440678,1.7549164186440676,0.35603401101694915,-1.043420013898305,-0.9898553894067798,4.454149941525423
190,1747666137700,1.524795869767442,1.9506247302325581,0.4023312160465116,-1.313587623255814,-0.6427581141860464,3.755727446511628
191,1747666137710,1.3703582543103447,2.1469274198275863,0.4932691789655172,-1.5192429310344828,-0.42354026586206894,3.0744425862068963
192,1747666137720,1.3179091,2.2189684,0.5793919,-1.498994872,-0.37114217376,2.6799196448
193,1747666137730,1.18984416,2.283432133333333,0.7063179533333332,-1.1881227549999998,-0.13994922608333335,1.3508877891666666
194,1747666137740,1.1031831909090908,2.258372509090909,0.7555124636363637,-0.9772682851239669,0.0027009317355371877,0.7146315649586777
195,1747666137750,1.07057245,2.2329178,0.7738902234375,-0.7883025214062499,0.10523585234374999,0.23715889234375
196,1747666137760,1.0269929,2.126419347368421,0.8070587552631578,-0.25106561699999996,0.37904189499999996,-0.9663888
197,1747666137770,1.0457853,2.0793676,0.79660285,0.001049309725806455,0.5180777801612904,-1.5408878330645162
198,1747666137780,1.0829037375,1.9971290982142857,0.7903794383928571,0.12095132,0.5778785300000001,-1.8191566
199,1747666137790,1.108528834188034,1.9341640555555557,0.7847629923076923,0.2381121370940171,0.6046104052136753,-2.067992822222222
200,1747666137800,1.21775420625,1.66103834375,0.7599027625,0.81660272890625,0.7334486953125,-3.29136094921875
201,1747666137810,1.2566508,1.5583055,0.7512082,1.1606439714285715,0.7171558028571429,-3.8245399285714283
202,1747666137820,1.2837350776859504,1.5165737115702478,0.7313992203305786,1.3189136000000001,0.7290399236363637,-4.044150009090909
203,1747666137830,1.5123399838983052,1.3103061440677968,0.506764201101695,1.5465555423728812,0.9152728540677967,-4.653043406779661
204,1747666137840,1.5729489,1.2761754,0.43613032,1.4943143677419355,1.0341555012903225,-4.92779064516129
205,1747666137850,1.5729489,1.2761754,0.43613032,1.450805,1.0842859,-5.039638
206,1747666137860,1.5729489,1.2761754,0.43613032,1.450805,1.0842859,-5.039638
207,1747666137870,1.582715265,1.26769035,0.423943726,1.450805,1.0842859,-5.039638
208,1747666137880,1.7337785264957266,0.9982796810256411,0.2201020829059829,0.9655430461538462,1.515598494017094,-5.570417458974359
209,1747666137890,1.8079761,0.84785485,0.16498269,0.6084218,1.8197676,-5.9076777
210,1747666137900,1.7997821655737705,0.8324112303278689,0.18090642639344262,0.5711540120491804,1.8484282032786885,-5.943863948360655
211,1747666137910,1.7188951,0.690682,0.3431445,0.10323623,2.208278,-6.3982024
212,1747666137920,1.5451224715447154,0.5661413858536585,0.4868485904065041,0.3777332601626016,2.224041182113821,-6.405349213821138
213,1747666137930,1.3490306224137931,0.4723643746551724,0.5689100396551724,0.8074216717241379,2.138428594827586,-6.321296631034483
214,1747666137940,1.242909143220339,0.45167757872881353,0.5514307786440679,1.1371981888135592,1.9690723220338984,-6.210780655084746
215,1747666137950,0.9132682008196722,0.3927261265573771,0.44008920770491805,1.5776746950819671,1.5401063778688524,-5.929884209836066
216,1747666137960,0.8486310314754097,0.3616528351639344,0.3751699834426229,1.9404585163934427,1.048124544262295,-5.597879144262295
217,1747666137970,0.8760545690909091,0.2976832827272727,0.2018353381818182,2.225866729752066,0.3708204475371901,-5.149053866115702
218,1747666137980,0.91521466,0.27139166,0.11519502,2.3005185,0.122783914,-4.9919906
219,1747666137990,0.91521466,0.27139166,0.11519501999999998,2.3005185,0.122783914,-4.9919906
220,1747666138000,0.91521466,0.27139166,0.11519502,2.3005185,0.122783914,-4.9919906
221,1747666138010,0.91521466,0.27139166,0.11519502,2.3005185,0.122783914,-4.9919906
222,1747666138020,0.91521466,0.27139166,0.11519502,2.3005185,0.122783914,-4.9919906
223,1747666138030,0.966717426090909,0.02126626377272725,-0.05211287463636364,1.2934349595454544,-0.2991462534727273,-4.346911444545455
224,1747666138040,1.0169662383333333,-0.6443172325000001,-0.22985107125,-0.9959648583333334,-0.5309335291666667,-2.638795346666667
225,1747666138050,1.0579728267716535,-0.7303442039370078,-0.11110946503937008,-1.0614192673228346,0.3358941173228347,-1.319493005511811
226,1747666138060,1.052762937704918,-0.7513682426229508,-0.07629389882786886,-0.9442975359836064,0.5354384204918032,-0.8952730767213115
227,1747666138070,0.8929694775409837,-0.7310114377049179,-0.03352386240983606,-0.542157915409836,0.5952131039344263,-0.03837435573770494
228,1747666138080,0.7397255298360655,-0.6870011270491804,-0.019516577704918034,-0.3225468593442623,0.5127362786885246,0.36720012459016393
229,1747666138090,0.5407714016806723,-0.608159895882353,-0.0048955012100840335,-0.12623350583193277,0.35471249596638654,0.7372938617647059
230,1747666138100,0.39561680000000005,-0.54156303,0.008542004,0.021991149,0.21380283,1.0329732
231,1747666138110,0.31338781308333336,-0.42694560974999995,0.006349556225833333,0.27476717730833333,-0.08423322308333332,1.6973146083333333
232,1747666138120,0.17523311,-0.20525214,-0.0046370877,0.6762278,-0.55771995,2.7537806
233,1747666138130,0.3020669993277311,-0.13853427420168066,-0.09803307503697478,0.8221886657983193,-0.6736611798319327,3.4177294260504203
234,1747666138140,0.49175435362068964,-0.01197142878448276,-0.20879307060344826,0.8065737963793104,-0.6354051625,4.181404137931034
235,1747666138150,0.55628086953125,0.0544495510546875,-0.234218683671875,0.74742700703125,-0.607099829296875,4.4479388265625
236,1747666138160,0.5881413755,0.11194905475,-0.21763804175,0.6542926558333334,-0.6369746448333334,4.75931725
237,1747666138170,0.6595206369747899,0.14547042857142856,-0.17866630899159663,0.5590700210084033,-0.7492339403361344,5.125005361344537
238,1747666138180,0.7920471120000001,0.18190399599999998,-0.14711770333333335,0.4923879310833333,-0.8988780075,5.47360716
239,1747666138190,0.9171399830769231,0.21531271076923078,-0.11917293811965811,0.4583055717948718,-0.9849026871794871,5.6620943948717954
240,1747666138200,0.9942576983870969,0.23462560629032259,-0.08768740774193548,0.4126394806451613,-1.1389287354838709,5.864858277419355
241,1747666138210,1.0335824,0.24454537,-0.05686534,0.398895,-1.2205088,5.9730406
242,1747666138220,1.095256881967213,0.25813054950819675,-0.015953742344262296,0.41990977852459016,-1.2882547459016394,6.146265702459017
243,1747666138230,1.3262376225,0.34483458025,0.0704166187,0.5042692422499999,-1.4156343500000002,6.59039608
244,1747666138240,1.3686731,0.36315718,0.07541369000000002,0.5317980147826087,-1.4320062243478262,6.68167055826087
245,1747666138250,1.5305759746031746,0.4633213806349206,0.0787413905079365,0.5447172503968253,-1.4225839404761904,6.701715265873016
246,1747666138260,1.7033740131578947,0.6026479649122808,0.09521658101754386,0.5691870780701754,-1.3650480719298246,6.696508494736842
247,1747666138270,1.8399822574803149,0.8585184660629921,0.13212721385826773,0.5956321188976378,-1.286083025984252,6.650388880314961
248,1747666138280,1.917488157142857,0.9798201285714285,0.13649773142857144,0.6109371470588235,-1.1655668499999998,6.4964440588235295
249,1747666138290,2.033476846218487,1.1093344773109244,0.11947525117647059,0.6073027231932773,-0.8641279226890757,5.973122470588236
250,1747666138300,2.0286038,1.2136967,0.10079564,0.42468602661417326,-0.6514084173228347,5.09123453543307
251,1747666138310,1.9403272976,1.3236806072,0.07233466132400002,0.32034262752000003,-0.5828192016,4.743798528
252,1747666138320,1.672390459677419,1.6035938903225806,0.009703244217741935,-0.007197371048387099,-0.4562670758064516,4.133000955645162
253,1747666138330,1.5481453756302521,1.688299850420168,0.017447016588235293,-0.22052235647058824,-0.37284340588235293,3.880790911764706
254,1747666138340,1.4331747165289255,1.7742820363636362,0.05901546452892562,-0.548551932892562,-0.25214598859504134,3.535072134710744
255,1747666138350,1.3580429412698414,1.8750762825396825,0.15874567746031745,-0.8692903238095238,-0.0953386057142857,3.1320225833333333
256,1747666138360,1.3744456322033898,2.0165788330508474,0.32934492415254235,-1.2235527152542374,0.18098176983050848,2.4617249576271187
257,1747666138370,1.470767084,2.132328248,0.44029878559999996,-1.3016609600000002,0.44122064976,1.79063664
258,1747666138380,1.4916779,2.1601508,0.46419686,-1.191389170247934,0.7618448603305786,0.6594416495867769
259,1747666138390,1.5058828869918701,2.2953941203252035,0.5918229176422765,-1.0616987048780488,0.9548270585365853,-0.1397093575609756
260,1747666138400,1.4838952777777776,2.3637486,0.6724319122222222,-0.9549181311111111,1.0607335555555555,-0.6295305755555556
261,1747666138410,1.4045495,2.3331873,0.68458056,-0.82711154,1.1685852,-1.1246029
262,1747666138420,1.4045495,2.3331873,0.68458056,-0.82711154,1.1685852,-1.1246029
263,1747666138430,1.3913936523809523,2.321089033333333,0.6838716309523809,-0.8011352228571428,1.1788826428571428,-1.1804825238095238
264,1747666138440,1.3913936523809523,2.321089033333333,0.6838716309523809,-0.8011352228571428,1.1788826428571428,-1.1804825238095238
265,1747666138450,1.0484699,1.6569047,0.40952805,0.51068336,1.2779301,-3.372587
266,1747666138460,1.0484699,1.6569047,0.40952805,0.51068336,1.2779301,-3.372587
267,1747666138470,1.22977866,1.44263674,0.25983770352941177,0.6885169552941176,1.2829822905882353,-4.045207211764706
268,1747666138480,1.4904239137931035,1.2234042482758622,0.23889416206896552,0.6350681275862068,1.4188399068965516,-4.729276510344827
269,1747666138490,1.5404893,1.1814811,0.234539,0.6236934,1.4477507,-4.877148
270,1747666138500,1.575598983464567,1.138680753543307,0.26340694724409447,0.626603437007874,1.4792318771653543,-5.0033374881889765
271,1747666138510,1.6173674,1.0877631,0.29774985,0.63041294,1.5204436,-5.168531
272,1747666138520,1.7978082748031496,0.8359537031496064,0.361929226535433,0.98091496503937,1.7766222314960631,-5.94316077952756
273,1747666138530,1.802982886885246,0.7795268360655737,0.3609466804918033,1.0623648155737706,1.787091320491803,-6.082340057377049
274,1747666138540,1.5681194113821137,0.5774692235772358,0.2867057712195122,1.4410609528455285,1.5070046170731708,-6.5397990813008136
275,1747666138550,1.4886330063492064,0.5420511555555556,0.2664756652380952,1.5058216444444443,1.4094019253968253,-6.580696126984128
276,1747666138560,1.2808045467741935,0.4476639996774193,0.19288001887096773,1.6410303774193549,1.1757284185483872,-6.4674963887096775
277,1747666138570,1.1407077870967741,0.37816276774193547,0.09710329419354838,1.7482322846774194,1.0772313016129034,-6.324662248387097
278,1747666138580,0.9190771617391303,0.2936645262608696,-0.1273575604347826,1.866698,0.8548926173913044,-5.943825247826087
279,1747666138590,0.853741482905983,0.2655655685470085,-0.22765117205128205,1.8749699786324787,0.6772668085470085,-5.678634892307692
280,1747666138600,0.8467972884920635,0.2371326107142857,-0.3764408707936508,1.6923875666666668,0.33772121619047624,-5.276334098412699
281,1747666138610,0.8986772404958677,0.22237044818181817,-0.4409993544628099,1.2774555223140496,-0.046678184380165286,-4.8865937520661165
282,1747666138620,0.9683357841463415,0.1906563331707317,-0.43338017073170737,0.7740258614634146,-0.32226865317073167,-4.630835380487805
283,1747666138630,1.1246768,-0.06943428250000001,-0.28219118,-0.3420736364285714,-0.5774749232142857,-4.2877614714285714
284,1747666138640,1.1557168946902656,-0.2446079983185841,-0.1812827007079646,-0.8459510701769912,-0.5173812391150442,-4.073433210619469
285,1747666138650,1.089323462295082,-0.43501803434426234,-0.04441842319672131,-1.0484750955737705,-0.33526487409836064,-3.837675704918033
286,1747666138660,0.9477755572033898,-0.6233511707627118,0.13766896474576273,-1.1037765610169492,-0.08194912398305085,-3.437525083898305
287,1747666138670,0.8237673811999999,-0.75194039376,0.2544716544,-0.8412005471999999,0.16741617424,-2.6712501144
288,1747666138680,0.753343705,-0.8312223990000001,0.1824571995,-0.227455675625,0.10628546133333333,-1.3928032624166666
289,1747666138690,0.7453346925619834,-0.8368864198347107,0.034882034135454536,0.2680335376033058,-0.11061709793388429,-0.2599812216942149
290,1747666138700,0.7497194500000001,-0.82097196,-0.010872750265500001,0.36163223,-0.17531833,-0.017715093
291,1747666138710,0.6861329229508196,-0.6357731139344263,-0.23164633549180327,0.4669263874590164,-0.4187080594262295,1.1068127821229508
292,1747666138720,0.6369894,-0.5854933,-0.264314,0.44409904,-0.45570546,1.4636332
293,1747666138730,0.6369894,-0.5854933,-0.264314,0.44409904,-0.45570546,1.4636331999999999
294,1747666138740,0.504419142857143,-0.48412341722689073,-0.2662233882352941,0.3114591501680672,-0.25632212998319326,2.0229187739495798
295,1747666138750,0.2927214726190476,-0.2844719647619048,-0.23961773666666666,0.13177237095238095,0.02911790904761905,2.850588080952381
296,1747666138760,0.32135252016129034,-0.21793524564516126,-0.20828120903225805,0.1214242493548387,0.15360304677419356,4.207088112903226
297,1747666138770,0.41470445604838707,-0.1728692943548387,-0.19670424120967744,0.17363845,0.047189339500000003,4.683198550000001
298,1747666138780,0.6150529823529413,-0.10574857235294118,-0.21323425411764707,0.25083461008403357,-0.2577235405210084,5.253528443697479
299,1747666138790,0.756838643859649,-0.058929121736842116,-0.24150962438596493,0.2628328,-0.4186677578947368,5.466826
300,1747666138800,0.891409097704918,-0.0072376974262295096,-0.2960794360655738,0.1863839948032787,-0.6478075713114754,5.606751513114754
301,1747666138810,0.94572186,0.019768637,-0.31483384999999997,0.002363347639344263,-0.8679293475409836,5.690690239344262
302,1747666138820,1.0214259646280992,0.05218790953719008,-0.27098019388429756,-0.28979246008264464,-1.0456094512396694,5.851589042975207
303,1747666138830,1.1329935927272727,0.085486596,-0.18234183072727275,-0.5222898,-1.1582005,5.995031400000001
304,1747666138840,1.2043460050847459,0.1006012247881356,-0.07695662927966102,-0.6199764474576271,-1.1022701084745763,6.223349996610169
305,1747666138850,1.2982555536585367,0.14789472341463414,0.027134005902439026,-0.659565599186992,-1.0610878325203252,6.424782430894309
306,1747666138860,1.412264452892562,0.21323946776859504,0.11146760388429752,-0.5710782294214877,-1.0655003983471072,6.641720483471074
307,1747666138870,1.64352534296875,0.342715490234375,0.206889999609375,-0.364753370625,-1.20236417421875,6.82441001328125
308,1747666138880,2.052773532520325,0.5608157841463415,0.1895412069918699,-0.09057195089430894,-1.3739203796747967,6.618138897560976
309,1747666138890,2.2621667333333333,0.7211078200000001,0.15912532333333332,0.039909861666666664,-1.4255558999999998,6.213110333333334
310,1747666138900,2.2279544598425196,0.8797168122047244,0.120654598503937,0.05719526444881889,-1.3348993212598426,5.5459349354330705
311,1747666138910,2.095042686792453,1.0173825188679244,0.09047616498113208,0.014407200132075472,-1.1748206603773585,4.892800237735849
312,1747666138920,1.94319552,1.0873882351999997,0.107158703488,-0.11285857439199999,-0.9828479848,4.584636606399999
313,1747666138930,1.8256122606557377,1.1595679721311476,0.14875089336065575,-0.2568938714754098,-0.8031575983606557,4.351182995081968
314,1747666138940,1.6613500214285715,1.3089313571428571,0.24165152857142855,-0.3830125092857143,-0.6361724950000001,4.109072175
315,1747666138950,1.5533159301587303,1.4158710396825396,0.29711645158730154,-0.527171853968254,-0.4200910615079365,3.701518515079365
316,1747666138960,1.4929760732758621,1.4754544120689654,0.3190985564655172,-0.5607795543103449,-0.3276554797413793,3.4722790870689653
317,1747666138970,1.408561482113821,1.5889138739837398,0.33465604024390244,-0.5552765073170731,-0.2284040024390244,3.2249512341463413
318,1747666138980,1.3169141307692307,1.834052676923077,0.35127346461538467,-0.44029811333333335,-0.13785192777777777,2.6185756444444444
319,1747666138990,1.334440931147541,2.083860744262295,0.33254599475409835,-0.3238286759016394,-0.16340145377049178,1.9254472131147542
320,1747666139000,1.3608452999999998,2.1367707455284553,0.32678471121951225,-0.3048167921951219,-0.20418791959349594,1.5094430463414634
321,1747666139010,1.4398366170731707,2.267672743902439,0.3281617487804878,-0.30240314195121953,-0.23195000398373986,0.9459124197560975
322,1747666139020,1.4699568,2.3124423,0.33240595,-0.3115413,-0.22235495,0.43554693
323,1747666139030,1.4699568,2.3124423,0.33240595,-0.3115413,-0.22235495,0.43554693
324,1747666139040,1.4599125956896553,2.300273119827586,0.3277562411206897,-0.34845124663793103,-0.1023673205775862,0.06644213724137932
325,1747666139050,1.3586667,2.1171966,0.2660224,-0.59437186,0.6719518,-1.9737056
326,1747666139060,1.2910857820512822,1.9374369760683763,0.22124519008547008,-0.7730786806837606,1.1123855512820513,-2.5006630888888886
327,1747666139070,1.223019645,1.6662215575,0.25394766900000004,-0.97616262,1.6900197799999999,-3.37839015
328,1747666139080,1.2027141,1.5758777,0.27480847,-1.0146471,1.8161024000000001,-3.6102135
329,1747666139090,1.2027141,1.5758777,0.27480847,-1.0146471,1.8161024,-3.6102135
330,1747666139100,1.2027141,1.5758777,0.27480847,-1.0146471,1.8161024,-3.6102135
331,1747666139110,1.2283781798165139,1.505918347706422,0.3034795941284404,-0.921442533944954,1.7588155623853212,-3.811591676146789
332,1747666139120,1.5056705238095238,1.008254692063492,0.44283992539682543,-0.10088487568253968,1.2299190222222223,-5.339956234126984
333,1747666139130,1.5541728133333335,0.8977727066666666,0.40095350533333335,0.028471409633333333,1.2863905391666668,-5.6889221391666664
334,1747666139140,1.5887506279661014,0.7241075090677965,0.3521787438135593,0.09535709508474575,1.48074766779661,-5.939598371186441
335,1747666139150,1.5974757214876032,0.6730312608264463,0.3326177395041322,0.14741540570247935,1.6986698429752065,-6.15205447107438
336,1747666139160,1.5886978823529412,0.5808993394117646,0.3021715835294117,0.1793428442857143,1.9888386428571427,-6.289283781512605
337,1747666139170,1.5661154,0.5339973,0.30043447,0.20097467,2.1508565,-6.365216
338,1747666139180,1.4737118894736843,0.4717284215789474,0.31174031491228077,0.27495901789473687,2.2009689166666666,-6.400506609649123
339,1747666139190,1.3618395,0.38536638,0.31483385,0.47769663,2.221717,-6.4385195
340,1747666139200,1.3618395,0.38536638,0.31483385,0.47769663,2.221717,-6.4385195
341,1747666139210,1.3618395,0.38536638,0.31483385,0.47769663,2.221717,-6.4385195
342,1747666139220,1.0672642872440945,0.2914754525984252,0.19304736102362208,0.7428650791338584,2.039174059055118,-6.364518406299212
343,1747666139230,0.74510676,0.1969542,0.06296677,1.0152581,1.8637499,-6.269921
344,1747666139240,0.6723943957264957,0.11129636312820514,-0.01022954528205128,1.1408457188034187,1.6515029444444445,-5.925037895726496
345,1747666139250,0.59842837,0.024161667,-0.084687866,1.2858714,1.3909402,-5.507561
346,1747666139260,0.5839752173728814,-0.01478407843220339,-0.17972541133898304,1.1955824055932203,1.1773599495762712,-5.23306508220339
347,1747666139270,0.49500960472440947,-0.2568808273228346,-0.6076545086614172,0.42777402598425196,0.05750310259842521,-3.8395044732283465
348,1747666139280,0.4548243064516129,-0.3170264326612903,-0.5626976040322581,-0.055918797903225806,-0.3133393759677419,-3.1595478322580646
349,1747666139290,0.5724593594594595,-0.32420036306306305,-0.3828642553153153,-0.42402852792792795,-0.5054772455855856,-2.3658811099099095
350,1747666139300,0.6045298,-0.3236199,-0.34387666,-0.4709771,-0.52534413,-2.2498167
351,1747666139310,0.8128799254032258,-0.3767161295967742,-0.2151463110483871,-0.6293931766129033,-0.5389112511290323,-0.8224758623709677
352,1747666139320,1.0151290083333333,-0.4137990438888889,-0.09549418111111112,-0.6262241428571428,-0.5895528452380953,0.40183297425396824
353,1747666139330,1.1713107639344265,-0.4063353072131147,-0.025582000286885245,-0.46903936827868853,-0.6611014118032787,1.0483749464754097
354,1747666139340,1.438719631355932,-0.2952430926271186,0.03781232578389831,-0.08219761578644068,-0.7271574132203389,1.9045122135593222
355,1747666139350,1.4732004290322582,-0.2376015441935484,0.030349698322580644,0.0782301638967742,-0.6837552512903226,2.131762048387097
356,1747666139360,1.4285311966101695,-0.16072617415254237,0.0018345652288135597,0.21408238830508472,-0.5626431218644068,2.2573333864406777
357,1747666139370,1.3676969,-0.11665936,-0.016595893,0.40494453806451614,-0.29049598161290324,2.6056753
358,1747666139380,1.1716142960317462,-0.06180846434920635,-0.062447665904761904,0.45265114,-0.21991149,2.7220156
359,1747666139390,0.8812314223364486,0.03079454853271028,-0.13269871775700937,0.5251442829906542,-0.24747463654205606,3.1593722224299063
360,1747666139400,0.8262430673134329,0.09064722738805969,-0.1414002152238806,0.583640694402985,-0.34749570313432837,3.4963190485074627
361,1747666139410,0.8150280432710281,0.13327578336448598,-0.14017782112149532,0.6354482699065421,-0.4742654898130841,3.736120223364486
362,1747666139420,0.8528492532799999,0.18015135391999998,-0.14124471936,0.7209675896,-0.6980234948,4.025455268
363,1747666139430,0.9072232925619835,0.21388087785123966,-0.1663098852892562,0.8358554975206611,-1.0146017479338842,4.337471260330579
364,1747666139440,0.9034999,0.23722363,-0.18621568,0.8546005,-1.0800097,4.401284000000001
365,1747666139450,0.9008074,0.24156942516129032,-0.18784535161290322,0.8546005,-1.0800097,4.401284
366,1747666139460,0.8628210037288137,0.3076134659322034,-0.19869362101694915,0.7271263381355932,-1.1800104466101695,4.716335324576271
367,1747666139470,0.9199506459504133,0.3573260357024793,-0.14924403619834709,0.6141063404132232,-1.1932772727272727,4.954687572727273
368,1747666139480,0.92814976,0.36413342,-0.14228538,0.56077427,-1.187522,5.0866747
369,1747666139490,0.9690848168595042,0.3936502309917355,-0.09509358096694215,0.5109559468595042,-1.2240224694214876,5.260311863636363
370,1747666139500,1.2259256393442624,0.5350635027868853,0.058533728114754095,0.43446539852459015,-1.4506647524590164,5.809518773770492
371,1747666139510,1.3399953008403362,0.5950361613445379,0.08446431521008403,0.449391495882353,-1.5258900512605043,5.8709694294117645
372,1747666139520,1.4125874406504066,0.6501565926829269,0.0909698619105691,0.4590776549593496,-1.5464177959349592,5.881713526829269
373,1747666139530,1.4708709355932204,0.7112696898305085,0.0901067679661017,0.4698899762711864,-1.526138093220339,5.865849118644068
374,1747666139540,1.5639188,0.8324793,0.08078295,0.47036624000000005,-1.4165965,5.81727
375,1747666139550,1.5639188,0.8324793,0.08078295,0.47036624000000005,-1.4165965,5.81727
376,1747666139560,1.6530192080000001,1.162376332,0.0325767614,0.23823743999999997,-1.056186,5.357899
377,1747666139570,1.6530192080000001,1.162376332,0.0325767614,0.23823743999999997,-1.056186,5.357899
378,1747666139580,1.5788063,1.3401184,0.08956901,0.037160967777777776,-0.9225592291666668,4.979926083333333
379,1747666139590,1.4835618654545455,1.489485869090909,0.1407988470909091,-0.22335454654545456,-0.7575061981818182,4.285419789090909
380,1747666139600,1.422177154471545,1.609833338211382,0.16700261658536586,-0.31103967780487807,-0.7017053627642276,3.925484669918699
381,1747666139610,1.3511501754385966,1.8381449842105262,0.17647265675438598,-0.5055070742105263,-0.5243474242105263,3.246009268421053
382,1747666139620,1.3287303491525424,2.0475244423728816,0.17449679915254238,-0.6436034855932203,-0.38062080483050853,2.8454102423728815
383,1747666139630,1.343291,2.1520967,0.16986385,-0.93218035,-0.013439035,2.3689353
384,1747666139640,1.343291,2.1520967,0.16986385,-0.93218035,-0.013439035,2.3689353
385,1747666139650,1.2696718114754098,2.3133746729508196,0.47702390049180327,-1.3171256180327868,0.6613117013114754,1.1297451983606557
386,1747666139660,1.2211080726495727,2.2675964683760683,0.6791946401709401,-1.0783808358974358,0.6909512471794871,0.08243548923076922
387,1747666139670,1.2338635584000002,2.1530456552,0.7184596348,-0.5658615916799999,0.57387615032,-0.8856471105200001
388,1747666139680,1.2695937737704917,2.0910864106557376,0.6843565331967214,-0.20601680172131148,0.5393439587704918,-1.6611128868852458
389,1747666139690,1.3035298655737704,1.8571756262295083,0.5497449475409837,0.2625118336065574,0.5500992139344262,-2.8584588852459016
390,1747666139700,1.2830359236220472,1.7537780787401576,0.48391940236220476,0.42666772897637795,0.5591870294488189,-3.294939874015748
391,1747666139710,1.23800486,1.58661606,0.33304052,0.568803524,0.6195053240000001,-3.8487441952
392,1747666139720,1.2346857,1.565139,0.3099527,0.57971114,0.63041294,-3.9144244
393,1747666139730,1.2639809373913042,1.456187652173913,0.19167194701739132,0.31820768610434785,0.8934462262608696,-4.3029029043478255
394,1747666139740,1.364524,1.2229708,-0.025381953,0.040927973000000006,1.1557571,-4.6633453
395,1747666139750,1.428633106557377,1.1183742573770492,-0.020392783147540984,-0.2566735619508197,1.3984007,-4.962779239344263
396,1747666139760,1.4714211,1.0333383,0.011958805,-0.45142942999999996,1.5583172,-5.188689
397,1747666139770,1.5201605426229508,0.908505124590164,0.09318585983606557,-0.6154366727049181,1.7369552483606556,-5.487933235245902
398,1747666139780,1.5319556271186439,0.7131352559322035,0.2700720888135593,-0.55536969,1.9045950186440679,-5.886804888135593
399,1747666139790,1.5239706435897433,0.6383452850427351,0.33439179444444445,-0.4479051984615384,1.9421599,-6.016004671794872
400,1747666139800,1.4719677992,0.5596056920799999,0.36826872439999997,-0.16595987136,1.952076088,-6.13580418
401,1747666139810,1.3543450024390244,0.4839893229268293,0.33208453658536585,0.2454784351219512,1.9095498585365855,-6.1900613195121945
402,1747666139820,1.3271832,0.46834585,0.3214234,0.4025602,1.8894062,-6.205169
403,1747666139830,1.3102694344537815,0.46277150336134454,0.30499568134453786,0.44863689243697474,1.8710905025210083,-6.2076329999999995
404,1747666139840,1.2197981,0.43759465,0.21379416,0.7452556,1.7531832,-6.223495
405,1747666139850,1.12625099,0.4300044941666667,0.13207157921666665,0.8536892481666667,1.6344717750000002,-6.161991171666667
406,1747666139860,0.8639627,0.43027294,-0.0065895454,0.95722586,1.3952162,-5.9143972
407,1747666139870,0.8549463512096773,0.4507324058870968,-0.03231987065161291,0.9632310380645162,1.1597572048387097,-5.679371701612903
408,1747666139880,0.8529801,0.49860895,-0.10348026999999999,0.9639453,0.6072,-5.1422634
409,1747666139890,0.8840267557017544,0.4119044052631579,-0.2632756956140351,0.770692218245614,0.3812977763157894,-4.889965529824561
410,1747666139900,0.89617825,0.30092257,-0.4334457,0.37690386,0.1282817,-4.5362854
411,1747666139910,0.7619997917391303,0.16128363447826088,-0.4249121604347826,0.1029015788173913,0.22118102956521737,-4.3073861095652175
412,1747666139920,0.6232801776229507,-0.19287524089344263,-0.33083360065573775,-0.16127844304918032,0.19134102606557377,-3.743562426229508
413,1747666139930,0.5833883218333333,-0.37261439975,-0.2277298195,-0.1400866760416667,0.017877990750000003,-3.3197471966666665
414,1747666139940,0.54815257,-0.45248213,-0.12813005,-0.035430185,-0.17654006,-3.0140092
415,1747666139950,0.5048344232786884,-0.4396871301639344,-0.01095456695081967,0.14213131176229507,-0.4026753732786886,-2.6761105680327866
416,1747666139960,0.4294345080645161,-0.4057333651612904,0.20399642806451612,0.8402943741935484,-1.2201984137096773,-1.326405217903226
417,1747666139970,0.7405196151181104,-0.2932453523622047,-0.003307267440944883,1.5525548661417323,-1.8599980661417324,0.7055252633070865
418,1747666139980,0.985151513559322,-0.2722748261016949,-0.16434152809322033,1.650640745762712,-1.8215069220338984,1.6087290983050848
419,1747666139990,1.1207108538461539,-0.2621925923076923,-0.24152280076923077,1.554949688034188,-1.6174144641025643,1.8892129777777777
420,1747666140000,1.3649366044247788,-0.23197102442477877,-0.3880186207964602,1.2191788805309733,-0.9930559938053097,2.160014021238938
421,1747666140010,1.3431091272727274,-0.18671267236363637,-0.4435363338181818,0.6269643190909091,0.001943669272727265,2.1928895945454543
422,1747666140020,1.12033988,-0.13447554220000002,-0.37703917359999994,0.321926,0.49174652,2.1844542
423,1747666140030,1.029499636864407,-0.12083729402542373,-0.33727678652542376,0.27771592013559326,0.5524810210169492,2.233375183050847
424,1747666140040,0.85566473,-0.107629254,-0.27017137,-0.050701816000000004,1.0036516,2.5967882
425,1747666140050,0.8017341346280992,-0.10447062480991734,-0.2419777138016529,0.020128261801652895,0.8634403563636364,3.189817180165289
426,1747666140060,0.721123972413793,-0.077523943,-0.16403381870689654,0.10018190000000002,0.70554936,3.8496728
427,1747666140070,0.73558855,0.020256752,-0.04271002,0.3870650890243903,0.25355377219512193,4.309266975609757
428,1747666140080,0.8378697443478261,0.08430585713043479,-0.0633593847826087,0.5454495626086957,-0.035961372347826086,4.452702952173913
429,1747666140090,0.9713578859504133,0.17268158305785122,-0.0974393526446281,0.6927868333884297,-0.40147476330578513,4.534886837190083
430,1747666140100,1.0216236,0.30507156,-0.17059602,0.77579886,-0.7147123,4.577824
431,1747666140110,0.9979783780357143,0.37886837928571426,-0.19844250660714288,0.6831327882142857,-0.8198084276785714,4.731472930357143
432,1747666140120,1.0090806885245902,0.4895068114754098,-0.18637571311475412,0.3625385143442623,-0.7832243916393442,5.174734643442623
433,1747666140130,1.0374831620689655,0.5597326381034482,-0.16247900810344829,0.14809268825862068,-0.6530465479310346,5.448486405172414
434,1747666140140,1.095055933898305,0.6323399279661017,-0.13799575559322033,-0.10243899584745762,-0.4208033183050847,5.708308064406779
435,1747666140150,1.1443844,0.6879974,-0.106164895,-0.27855456,-0.25167647,5.8685822
436,1747666140160,1.15485447,0.6957706199999999,-0.09815371639166666,-0.27855456,-0.25167647,5.8685822
437,1747666140170,1.3765961568,0.864669458,0.10739300108800001,-0.87788668416,0.2116623604,6.148016724800001
438,1747666140180,1.4599168068965518,0.9082695646551724,0.1893295173275862,-1.0229886120689657,0.34958343862068963,6.150960222413793
439,1747666140190,1.574800375862069,0.9585306137931034,0.2982632165517241,-1.098988675862069,0.45926534103448274,6.055022448275862
440,1747666140200,1.7146193768,1.0502563872,0.38245137743999996,-1.05569732,0.47097711,5.792957240000001
441,1747666140210,1.7434070739130436,1.1601525739130434,0.3747870373913043,-0.9985521765217391,0.41910667591304346,5.461544222608696
442,1747666140220,1.7152344,1.2913069,0.33069757,-1.0643440548387095,0.28901808258064515,4.66884300967742
443,1747666140230,1.5005397318965517,1.3751973862068965,0.22385520301724138,-1.2543275896551722,0.2942685319827586,4.070031937931034
444,1747666140240,1.4001024584070796,1.4041347902654866,0.187887366460177,-1.3322647327433628,0.3274832331858407,3.933123536283186
445,1747666140250,1.1553669616,1.4703355912,0.21098456568,-1.7184421775999998,0.5153894435999999,3.353782176
446,1747666140260,0.8953794909090909,1.6017034363636364,0.32739171181818183,-1.9792034636363638,0.6871123545454545,2.835858509090909
447,1747666140270,0.8530914176,1.6502233616000002,0.38123695864,-2.02496452,0.7520826376,2.5825134471999998
448,1747666140280,0.8167132,1.7778105800000001,0.540586808,-1.9410192208333332,0.83014549,1.8570558491666667
449,1747666140290,0.8145720813559322,1.8485143745762713,0.6437775135593221,-1.75287785,0.83566365,1.24280535
450,1747666140300,0.8336073016535434,1.9103397559055117,0.7767266015748032,-1.4155575346456692,0.7677421626771654,0.6259156114960631
451,1747666140310,0.8511867790434782,1.9249770747826087,0.8158791478260871,-1.1688614113043478,0.7030102610434783,0.2499394947826087
452,1747666140320,0.9157788229508197,1.895988686885246,0.8043366904918033,-0.562947365,0.5301459024590164,-0.6902777618032786
453,1747666140330,0.9786591105982906,1.8359236974358975,0.7671720674358974,-0.08998514923076924,0.39781423692307694,-1.5076623923076922
454,1747666140340,0.99209267,1.8199348,0.75950617,-0.035430185,0.3830125,-1.6126842
455,1747666140350,1.01382373,1.7587955780487803,0.7649964445528455,0.18670127483739837,0.32418568512195123,-2.0267018975609754
456,1747666140360,1.0754902269565219,1.528568811304348,0.7740944037391305,0.5551862069565218,0.22621668513043477,-2.6509744452173916
457,1747666140370,1.1039661414634148,1.464051843902439,0.7623455463414635,0.8725390743902439,0.11634747804878048,-3.0756320048780488
458,1747666140380,1.1935035999999999,1.3658186869565219,0.6622864739130434,1.3630688,-0.065293528,-3.7107885556521736
459,1747666140390,1.21931,1.342559,0.6272271,1.4501941,-0.08002335,-3.8515053
460,1747666140400,1.2524348677419352,1.3150198080645163,0.5639651046774193,1.468125977419355,-0.0436078979516129,-3.9447509000000003
461,1747666140410,1.3166707768518517,1.2561468203703703,0.4164678573148148,1.4269473259259258,0.1486891211064815,-4.183487894444444
462,1747666140420,1.4163157650406504,1.1814156430894307,0.2626254318699187,1.1326485,0.5503150963414635,-4.418164817073171
463,1747666140430,1.6318590991596638,1.048982681512605,0.1639777505882353,0.41592736386554624,1.3466241865546218,-4.9010847512605045
464,1747666140440,1.6620299,1.0279691,0.18084641,0.2779437,1.4966198,-5.0341406
465,1747666140450,1.6677113383720932,1.0202585944186047,0.19125006209302325,0.2449782838255814,1.551469823255814,-5.10533476744186
466,1747666140460,1.6497424942307692,0.7972247632692309,0.4909446233653846,0.059864793,1.8594738,-5.5051174
467,1747666140470,1.6098017,0.7512082,0.54790854,0.059864793,1.8594738,-5.5051174
468,1747666140480,1.6098017,0.7512082,0.54790854,0.185976709656,1.8849541824,-5.6899311807999995
469,1747666140490,1.440350005882353,0.601543662184874,0.5573303412605042,1.0134510569747899,1.6724617857142858,-5.929817813445378
470,1747666140500,1.2714979377952758,0.5276921559055118,0.4294235268503937,1.499573127559055,1.430963916535433,-5.821955
471,1747666140510,1.1708172727272728,0.5258284107438016,0.30459755925619836,1.6562273247933885,1.3117498256198346,-5.66398817355372
472,1747666140520,1.08276575859375,0.533844746875,0.10220088478125,1.70658092421875,0.9488693968749999,-5.2363607890625
473,1747666140530,1.0598422701612902,0.5335623249999999,0.01957378451612903,1.6982054,0.8210029,-5.095838
474,1747666140540,1.025616650925926,0.4819249458333333,-0.13437837712962963,1.3804084037037039,0.5460230305555555,-4.819828537037036
475,1747666140550,0.9700115590163935,0.35022613688524595,-0.23777576918032786,1.0007775232786886,0.3919051055737705,-4.582180329508197
476,1747666140560,0.9546453516806722,0.30358875277310926,-0.25725273663865544,0.9221396003361345,0.3766163944537815,-4.528364612605043
477,1747666140570,0.9244428200819672,0.06827801233606556,-0.28596108057377045,0.4163347165573771,0.3667494895081967,-4.026743772131147
478,1747666140580,0.9583996413513514,-0.03423397710810811,-0.289201255945946,0.1996098437837838,0.25609561855855856,-3.655544252252252
479,1747666140590,1.0098880444444445,-0.16911290495726497,-0.28272675897435895,0.07626417880341882,0.1023329788034188,-3.403688974358974
480,1747666140600,1.0330943,-0.2877435,-0.2706595,-0.027488936,-0.08307768,-3.1337387999999997
481,1747666140610,1.0056409596638656,-0.40196844050420166,-0.2448796625210084,-0.0669847108487395,-0.3117055511764706,-2.5986515201680676
482,1747666140620,0.9492304096,-0.49280039999999997,-0.20884661808000002,0.0191811692,-0.6194173439999999,-1.4363885
483,1747666140630,0.8717725,-0.52252656,-0.1718163,0.045814894,-0.6640105,-1.2229522
484,1747666140640,0.8717725,-0.52252656,-0.1718163,0.045814894,-0.6640105,-1.2229522
485,1747666140650,0.6319435319166667,-0.4686021205,-0.245415826,-0.030889418499999998,-0.4686252735,-0.28797713708333333
486,1747666140660,0.3935974083064516,-0.4065147249193548,-0.2835846577419355,-0.23701571,-0.12705997,0.59681535
487,1747666140670,0.25808660096774194,-0.3225531369354839,-0.2414355914516129,-0.3701055129032258,0.15571152406451616,1.3719047693548387
488,1747666140680,0.25104950249999997,-0.21250064175,-0.14392056858333332,-0.41599923,0.26633725,1.7159203999999997
489,1747666140690,0.2645580799999999,-0.17547716,-0.10689708,-0.3029285882644628,0.18232056380165287,2.6208845049586773
490,1747666140700,0.36585549743999995,-0.09799581824,-0.05869089168,-0.009382890400000002,-0.235769552,3.2795155439999997
491,1747666140710,0.43734060450819673,-0.06777189691803279,-0.04632886856557377,0.16791783836065574,-0.49667349901639346,3.560162619672131
492,1747666140720,0.5008055,-0.048567392,-0.041977845,0.22785273,-0.5852089,3.648698
493,1747666140730,0.703617045614035,0.026912663771929825,-0.09070366232456141,0.4834998344736842,-0.9564702842105263,3.933248631578947
494,1747666140740,0.8297946,0.11617125,-0.13057062,0.5818335983050847,-1.1349255440677968,4.049218593220339
495,1747666140750,0.842394075,0.18151757125,-0.14808174125,0.6145304275,-1.284726025,4.151592737500001
496,1747666140760,0.842394075,0.18151757125,-0.14808174125,0.6145304275,-1.284726025,4.151592737500001
497,1747666140770,0.9309230527272727,0.34558507272727274,-0.16298585909090907,0.4593706754545454,-1.3965490454545455,4.694277245454545
498,1747666140780,0.9309230527272727,0.34558507272727274,-0.16298585909090907,0.4593706754545454,-1.3965490454545455,4.694277245454545
499,1747666140790,0.9479183,0.366574,-0.16498269,0.4282635328205128,-1.4009489846153846,4.783262779487179
500,1747666140800,1.0756881333333332,0.4512618538095238,-0.13639313476190476,0.12353052766666667,-1.4282853769841268,5.339864031746031
501,1747666140810,1.3270877295999999,0.6265535264000001,-0.04391077928,-0.26531099432,-1.576594368,5.464262808
502,1747666140820,1.4123594,0.6889736,-0.00976229,-0.347684952,-1.6062873264,5.4469532752
503,1747666140830,1.4681670425925928,0.7481032611111111,0.06199054240740741,-0.42149702,-1.6426166,5.3829446
504,1747666140840,1.4738617,0.7541369,0.06931226,-0.42149702,-1.6426166,5.3829446
505,1747666140850,1.5107612080000001,0.8984626011200001,0.27893596624000006,-0.31163900672,-1.524289568,5.283226936799999
506,1747666140860,1.5429463898305085,1.0060060339830508,0.3732173211864407,-0.20627572966101693,-1.4319198627118646,5.239888269491526
507,1747666140870,1.5942659144,1.1674820592,0.34486068824,-0.09921917688,-1.3418217824,5.054054816
508,1747666140880,1.6056527,1.244448,0.32630453,-0.06658431,-1.2962561,4.89242
509,1747666140890,1.543347165811966,1.3354166376068377,0.28759538854700856,-0.12458518128205127,-1.1857051102564102,4.515797935897436
510,1747666140900,1.4795393565891473,1.4117103945736433,0.25819554472868217,-0.22229811558139534,-1.0605188372093022,4.129960472093024
511,1747666140910,1.4143279966666666,1.4695460133333333,0.24779133083333335,-0.29919160333333333,-0.9907826583333333,3.9327096850000003
512,1747666140920,1.3365454527999998,1.538896156,0.25543812528,-0.40947028871999996,-0.8985876728000001,3.6669604959999997
513,1747666140930,1.1994723033333332,1.6736164475,0.315362623,-0.563034469,-0.7695985499999999,3.25230774
514,1747666140940,1.15865304375,1.74548430625,0.33785583803571434,-0.73853606,-0.5925393,2.6988026999999994
515,1747666140950,1.1248852839999999,1.8032199368000001,0.3465261368,-0.84665431696,-0.44387423367999995,2.3729672024
516,1747666140960,1.0779264881355932,1.8718776644067796,0.34783121898305086,-0.9975429,-0.24495697,1.9761491
517,1747666140970,1.0350468048780488,1.9977454048780487,0.4729174429268293,-1.2366147227642277,0.1672032594308943,1.0878119292682926
518,1747666140980,1.024632275862069,2.005022775862069,0.5282955546551724,-1.2538957086206897,0.23798466741379307,0.9097363032758621
519,1747666140990,1.0101529,1.9944358,0.57329047,-1.3848315,0.679893,-0.14905111
520,1747666141000,1.0101529,1.9944358,0.57329047,-1.3801481999999998,0.6894050447619048,-0.17822719857142857
521,1747666141010,0.9415403354166666,1.7101315675,0.7257631895833333,-0.763230321,1.064539613,-1.9098854340000002
522,1747666141020,0.9332453810483871,1.6392203637096774,0.6945672322580646,-0.3815543122580645,1.147520170967742,-2.6003942741935484
523,1747666141030,0.9363563678260869,1.5325501017391305,0.6259898695652173,-0.11358375095652175,1.1834955695652174,-3.011172602608696
524,1747666141040,0.9963041975206612,1.4458395330578513,0.5176676165289257,0.05899645950413223,1.2324836628099174,-3.3321083537190086
525,1747666141050,1.061912636,1.394748108,0.427715208,0.21664213848,1.3257094656,-3.7294154072000003
526,1747666141060,1.1297411,1.3689171,0.3590082,0.22785272999999998,1.3897184,-3.8802160999999997
527,1747666141070,1.2435396778688523,1.3124338573770493,0.2734501504098361,0.15696732975409836,1.5011962950819673,-4.1062013532786885
528,1747666141080,1.3396302,1.244448,0.24137263,0.048576839094017096,1.607134252991453,-4.333900794871795
529,1747666141090,1.4193692773109243,1.108227100840336,0.2987404375630252,-0.02470154294117647,1.7324805731092436,-4.824074537815126
530,1747666141100,1.5153515,0.9442575,0.36779428,-0.0720821,1.8435913000000002,-5.3285775
531,1747666141110,1.480787835483871,0.7792354566129032,0.3990158829032258,0.13808510403225804,1.8580944564516129,-5.62323125483871
532,1747666141120,1.4316867423076924,0.66001529,0.4012676615384615,0.5242727473846155,1.8337516476923077,-5.958980923076924
533,1747666141130,1.3568205649572649,0.6192128483760684,0.3471996012820513,0.7093033263247863,1.8166402239316242,-6.066486829059829
534,1747666141140,1.268830994117647,0.5788463342857143,0.28721230126050423,0.7799671152941177,1.8182942470588235,-6.07509094117647
535,1747666141150,1.2103146793650794,0.5606653238095238,0.2584023742857143,0.8199169000000001,1.8228896666666665,-6.045054855555556
536,1747666141160,0.9363724923076923,0.4973886769230769,0.14928793230769233,1.0820668965811966,1.8116435367521366,-5.652879294871795
537,1747666141170,0.888040356,0.4759604556,0.096154646712,1.2301115928,1.6770108104,-5.3344420248
538,1747666141180,0.8766537,0.46541715,0.05271636300000001,1.3286319,1.5436565,-5.0793447
539,1747666141190,0.9997232051282051,0.44596768897435896,-0.18485355865811964,1.3284962,1.0216381888888888,-4.4701761555555555
540,1747666141200,1.1290488729508197,0.37650431286885244,-0.3463772594262295,1.1166717245901638,0.5368003381967213,-4.084795796721312
541,1747666141210,1.2130234413793104,0.27966434586206895,-0.42602297068965517,0.8043146920689656,0.17171105952586208,-3.8616320224137928
542,1747666141220,1.1659065672268907,0.13276509574789916,-0.4114189908403361,0.5538956438655462,0.04821215356302521,-3.6998003302521005
543,1747666141230,1.0276020054545454,-0.09292732165289255,-0.39413228719008264,0.3191089459504132,0.061944766280991735,-3.3984756363636364
544,1747666141240,0.8955054942857142,-0.31770509193277313,-0.3651445076470588,-0.01708882235294118,0.21476790655462186,-2.3118580705882357
545,1747666141250,0.8690878428571428,-0.38354176285714286,-0.3369965585714285,-0.10731834992063492,0.20623489317460317,-1.7235611563492064
546,1747666141260,0.8669754226890756,-0.406115363697479,-0.3246125329411764,-0.1508323756302521,0.12838436146218488,-1.228106093277311
547,1747666141270,0.9202803609756097,-0.43480289463414634,-0.2639389748780488,-0.22566256268292684,-0.22612443822439024,-0.10194001121951218
548,1747666141280,0.9450566031858407,-0.4285299784070796,-0.21299501831858406,-0.2440974249557522,-0.4241999583185841,0.44972114823008846
549,1747666141290,0.885587491559633,-0.39330383926605506,-0.16877342403669726,-0.19826779798165137,-0.5020415549541284,0.8293140274311926
550,1747666141300,0.788671024609375,-0.35717586859375,-0.15762857171875,-0.13689108375,-0.460916915625,1.0737293115625
551,1747666141310,0.5844600443548387,-0.292506535,-0.18709349790322582,-0.093738258,-0.30277240161290325,1.5489375451612901
552,1747666141320,0.4730178210084034,-0.25733271260504204,-0.2077357813445378,-0.0807317437815126,-0.18767936042016808,1.9118285957983192
553,1747666141330,0.40730820782608695,-0.22060228391304348,-0.2204409992173913,-0.12336290709565217,-0.14932201782608695,2.3142442930434783
554,1747666141340,0.3743158032786885,-0.17186030327868854,-0.19969083360655737,-0.14172074,-0.20979715836065574,2.8143462836065574
555,1747666141350,0.396997243125,-0.11743728843750001,-0.158408409375,-0.120975183828125,-0.3878707884375,3.2574293085937502
556,1747666141360,0.44767008884955756,-0.08085206095575222,-0.12925531230088494,-0.023299373982300888,-0.6854773026548673,3.651530744247788
557,1747666141370,0.608910975,0.00575502620967742,-0.07434102112903225,0.111620845,-1.034717093548387,4.018133611290322
558,1747666141380,0.6726217,0.03441207,-0.06321083,0.16920967,-1.1771374,4.1422772
559,1747666141390,0.8079159799212599,0.11485679070866141,-0.06996948582677165,0.23246068267716535,-1.429328525984252,4.353285456692913
560,1747666141400,0.926395525,0.238443920625,-0.07688566046875,0.188165590625,-1.571699003125,4.553141359375
561,1747666141410,0.9981360901639345,0.32667463114754103,-0.06407902967213115,0.10002668213114754,-1.6137156836065574,4.736663967213114
562,1747666141420,1.0480369661290323,0.3657119129032258,-0.027739861112903226,-0.05564785225806451,-1.5134876774193549,5.007695903225806
563,1747666141430,1.1506892333333334,0.46342406666666663,0.06626154349999999,-0.21594086,-1.3671164,5.293758225
564,1747666141440,1.1678139,0.4803047,0.082003236,-0.26145032,-1.3243558,5.3750033
565,1747666141450,1.1902711112903226,0.522766714032258,0.12102484283870968,-0.28108668387096775,-1.3199516677419354,5.436079993548388
566,1747666141460,1.2471325,0.62356627,0.21452633000000002,-0.33841935,-1.3090842,5.6193495
567,1747666141470,1.4828860047999999,0.7588500982399999,0.31849664128,-0.270237019168,-1.4165573200000001,5.7040492624
568,1747666141480,1.8133046883333332,0.9729626466666665,0.395539524,-0.03643302293333333,-1.6092582433333333,5.564381555
569,1747666141490,1.875824,1.044565,0.3968371,0.07269296000000001,-1.6334536,5.3145275
570,1747666141500,1.875824,1.044565,0.3968371,0.07269296,-1.6334536,5.3145275
571,1747666141510,1.8789127808,1.0575215184,0.39301028176,0.07691526016,-1.6300132096,5.291226667999999
572,1747666141520,1.379027999206349,1.439343080952381,0.1860975349206349,-0.10053096954285716,-0.9931796142857142,3.991829828571429
573,1747666141530,1.2463329689655174,1.4938996448275863,0.1586624675862069,-0.47830749793103455,-0.4041031615775862,3.5259616155172413
574,1747666141540,1.0855931541666666,1.5712222466666668,0.11375101083333333,-0.8545190496666667,0.04165083001666667,3.332269998333333
575,1747666141550,0.951354546031746,1.7065412111111113,0.20827767523809523,-1.4391985333333335,0.6245079066666667,3.0891455
576,1747666141560,0.9614907582644628,1.7924552867768595,0.3288500017355372,-1.5870279,0.7611381,3.0250046
577,1747666141570,1.0223070176,1.8669383528,0.46449169304,-2.184170684,1.2154264072,2.4305985584
578,1747666141580,1.0867509491803278,1.902970293442623,0.5649404934426229,-2.3388778852459016,1.392076776229508,1.9916810327868852
579,1747666141590,1.1740646388429752,1.9405031016528926,0.6917913504132231,-2.4457530644628096,1.6292078595041322,1.1445393024793389
580,1747666141600,1.195668499180328,1.959047518852459,0.9543438717213115,-2.042127531147541,1.7203066844262294,-0.1298539392622951
581,1747666141610,1.1411401913793102,1.9159587362068966,1.0824570155172415,-1.5174050431034483,1.7092062025862067,-1.0221566271551723
582,1747666141620,1.1137494428571428,1.891984015079365,1.120552057142857,-1.079340715079365,1.6458406476190477,-1.4509746547619047
583,1747666141630,1.0270654785123967,1.7202365305785126,1.1291036008264463,0.15254462809917355,1.3199536322314047,-2.2272196727272724
584,1747666141640,1.0367490750000001,1.605640425,0.97660113525,1.0532843625,0.9706343685000001,-2.747030395
585,1747666141650,1.0746692777777778,1.5324471047619046,0.7962542103174604,1.4314317476190477,0.7475245342857143,-3.0318502587301586
586,1747666141660,1.12852072,1.44833334,0.528042272,1.7428392066666667,0.47268752333333336,-3.4763933266666665
587,1747666141670,1.1377949,1.4345685,0.48103684,1.7935003,0.41599923,-3.5821137
588,1747666141680,1.2282746073170732,1.3014679146341464,0.14483309365853658,1.6802667780487806,0.44126819390243904,-3.8274134463414633
589,1747666141690,1.2455343741935483,1.2047294967741935,0.05057495903225807,1.0554421561290324,0.8382548600806451,-4.436532168548387
590,1747666141700,1.26494491496063,1.0467865417322832,0.015169984440944884,0.32351808708661417,1.499779975590551,-4.795321226771653
591,1747666141710,1.264662625862069,0.9481077220689655,0.21491344650000002,0.0527977145862069,1.8994170534482757,-4.968430527586207
592,1747666141720,1.261532,0.88275504,0.39805737,-0.065973446,2.1465805,-5.0805664
593,1747666141730,1.273948275,0.8190927105,0.53283184025,-0.065973446,2.1465805,-5.0805664
594,1747666141740,1.3090815528301885,0.7346422452830189,0.6651710745283019,0.48464087726415095,2.0420360933962263,-5.257567332075471
595,1747666141750,1.3368755360655737,0.6740320959016394,0.6762366114754098,1.1102426032786885,1.8341979737704917,-5.410643636065574
596,1747666141760,1.3481433152542373,0.6534240044067797,0.6257917233898304,1.3468439677966102,1.7505326644067798,-5.475764844067797
597,1747666141770,1.337145079130435,0.6369830642608696,0.5870001050434782,1.4867822408695652,1.6542762408695653,-5.52996634
598,1747666141780,1.3315763,0.63284045,0.5781716,1.5234979,1.6236799,-5.5454345
599,1747666141790,1.2560574018348625,0.6215712727522935,0.540911449266055,1.6760572642201834,1.3878466642201834,-5.563794363302752
600,1747666141800,1.157193203448276,0.6189796646551724,0.4474116265517242,1.7398073741379312,1.237096903448276,-5.508214118965517
601,1747666141810,1.051376409090909,0.60020332,0.34239012545454545,1.801236100909091,1.035494318909091,-5.171618499090909
602,1747666141820,1.0096416560344827,0.5496001058620689,0.27429509896551724,1.8627230000000001,0.8391972087931034,-4.843150367241379
603,1747666141830,1.0272920516129032,0.4519861709677419,0.0988195670967742,1.8244180612903227,0.5394531403225807,-4.411787064516129
604,1747666141840,1.0870880166666665,0.27848153433333334,-0.22775014866666668,1.5647516766666667,0.06820310599999999,-3.7285483866666667
605,1747666141850,1.0887098524193548,0.20210893096774193,-0.32835343516129034,1.2801764975806451,-0.07012141749999999,-3.4711382677419356
606,1747666141860,1.0874944211009174,0.11483901174311927,-0.36592018733944953,0.9284143201834862,-0.17248816587155963,-3.2394352366972474
607,1747666141870,1.0728834384,-0.013739445312000002,-0.35589015104,0.514641779712,-0.20518229856,-3.024731088
608,1747666141880,0.9939439203252032,-0.250130906504065,-0.3015833260162601,-0.1750650343902439,-0.09629321758536585,-2.6722224878048784
609,1747666141890,0.9330892644628099,-0.3229845760330578,-0.27555473272727266,-0.3421754033884298,-0.001751820900826447,-2.5492263768595045
610,1747666141900,0.7305151933858267,-0.444637731496063,-0.20071306771653544,-0.5837466823622047,0.1620187798425197,-2.095845012598425
611,1747666141910,0.5441223679646018,-0.511477050619469,-0.1376612542477876,-0.6897695595575222,0.24464883442477875,-1.353634096637168
612,1747666141920,0.36950266,-0.55864704,-0.08444381,-0.74036866,0.29138273,-0.63224554
613,1747666141930,0.36950266,-0.55864704,-0.08444381,-0.74036866,0.29138273,-0.63224554
614,1747666141940,0.3417255744186047,-0.3505797325581395,0.028253884883720933,-0.22099115674418604,-0.08948465911627906,2.089315458139535
615,1747666141950,0.3417255744186047,-0.3505797325581395,0.028253884883720933,-0.22099115674418604,-0.08948465911627906,2.089315458139535
616,1747666141960,0.3588774767857143,-0.31523481392857144,0.009213162,-0.12736540300000002,-0.1582141,2.30662715
617,1747666141970,0.37145513,-0.28871974,-0.005857374,-0.054367006,-0.2144137,2.4678955
618,1747666141980,0.40999275992,-0.23604241464,-0.044394990288,0.060480541248,-0.34660982688,2.7617803472
619,1747666141990,0.44140570384615385,-0.16023297307692308,-0.09653403153846153,0.18977546666666667,-0.5294165200000001,3.1559334666666667
620,1747666142000,0.46218341500000004,-0.1088647903125,-0.12019819671875,0.233899348046875,-0.71165799921875,3.5344949125
621,1747666142010,0.5361589052380953,-0.02648602342857143,-0.14501649142857143,0.2465277607142857,-0.9205448404761905,3.906817654761905
622,1747666142020,0.5996137742857143,0.012795572285714285,-0.17244388428571428,0.238397435,-1.0800242785714285,4.134088609523809
623,1747666142030,0.6422739469421488,0.036755827900826446,-0.1928173291735537,0.1610210476859504,-1.3110127272727272,4.49674052231405
624,1747666142040,0.7602895318548387,0.08523896367741936,-0.2098439541935484,-0.02110440961290323,-1.5730174193548387,4.980384438709677
625,1747666142050,0.77756643,0.09152147,-0.21013328,-0.055588737,-1.604743,5.0488014
626,1747666142060,0.77756643,0.09152147,-0.21013328,-0.055588737,-1.604743,5.0488014
627,1747666142070,1.1664226232283466,0.359246501023622,-0.06213659181102362,-0.4750222786299213,-1.738522455905512,5.4826167850393706
628,1747666142080,1.2581635223140495,0.42970614545454544,-0.013003613719008263,-0.6404493031404959,-1.7401177826446281,5.610211700826446
629,1747666142090,1.401608241025641,0.5675707871794872,0.11579577333333334,-0.7580994343589743,-1.6566665487179488,5.669393269230769
630,1747666142100,1.4495300344262296,0.6308499854918034,0.17404682434426227,-0.7857329370491803,-1.6097801475409836,5.686384204918033
631,1747666142110,1.6016972025862068,0.8319343713793104,0.32182103155172415,-0.7653404167241379,-1.508747653448276,5.702395502586207
632,1747666142120,1.6771613,0.92131615,0.3778006,-0.7501425,-1.4715744,5.7060924
633,1747666142130,1.7621840991735538,1.0387177681818183,0.4755788232231405,-0.6618245390082645,-1.403349332231405,5.553032819834711
634,1747666142140,1.817494355371901,1.1317418545454545,0.5480840115702479,-0.5159034727272727,-1.3054745727272727,5.284873072727272
635,1747666142150,1.8375385112903226,1.2390313370967743,0.5816789685483872,-0.3795936387096774,-1.1999166741935483,4.989576856451612
636,1747666142160,1.7416779,1.384823535,0.53907362375,-0.20983220925,-1.0637148758333332,4.425204525
637,1747666142170,1.6974181,1.4404259,0.5181335,-0.13500121,-1.006095,4.1331143
638,1747666142180,1.6280404,1.4824275390243902,0.4963826731707317,-0.13500121,-1.006095,4.1331143
639,1747666142190,1.5619664,1.5224291,0.4756676,-0.13500121,-1.006095,4.1331143
640,1747666142200,1.4625755739837398,1.6221076674796748,0.44993244560975615,-0.1800959837398374,-0.8207694365853658,3.619749082926829
641,1747666142210,1.1990119118644067,1.9241515508474576,0.39540170423728815,-0.29932398,-0.38423425,2.4990497
642,1747666142220,1.1202405217741935,2.0434066846774193,0.37913310467741934,-0.4434142898387097,0.04124818032258065,1.809269533064516
643,1747666142230,1.0732544379310345,2.1120797620689653,0.36899352103448274,-0.5626069051724137,0.3982946724137931,1.224058082758621
644,1747666142240,1.0567800355371901,2.1368704198347106,0.3912882958677686,-0.6235015628099173,0.7220376657024794,0.5443415148760331
645,1747666142250,1.061148955737705,2.139003793442623,0.4399692000819672,-0.6030692143442622,0.8101425106557377,0.2507401630327869
646,1747666142260,1.0712608633333334,2.09785511,0.47049562100000003,-0.314473428,0.84983572,-0.832853708
647,1747666142270,1.0639493748031497,2.035449051968504,0.46284785803149603,-0.05475661330708661,0.7626291905511811,-1.601299120472441
648,1747666142280,1.0358338875000002,1.9420449750000002,0.42805199991666665,0.12359840205,0.6615467333333332,-2.1229298333333335
649,1747666142290,1.0245523,1.9070634,0.4144091999999999,0.21197024,0.6053675,-2.3921483
650,1747666142300,1.0267488373913045,1.8073924904347827,0.37620893973913044,0.2825437786086957,0.57443114,-2.7353483113043477
651,1747666142310,1.0819236081300811,1.5582281520325203,0.31568507414634145,0.2524164740650407,0.7704798851219512,-3.335582556097561
652,1747666142320,1.1375234808,1.4075660056,0.31593308208000004,0.20103818952,0.9732500827199999,-3.8058860912
653,1747666142330,1.1658615000000003,1.3379217,0.3385074,0.173485735,1.192409,-4.16365745
654,1747666142340,1.2044451915254237,1.2394861516949154,0.39139542779661013,0.18325958,1.2644911,-4.3041563
655,1747666142350,1.2529958520661155,1.143809603305785,0.4410437056198347,0.38435034347107444,1.335689685123967,-4.748336228099173
656,1747666142360,1.320317373553719,0.9116203297520661,0.5303787500826447,0.5474261289256198,1.3174243082644628,-4.980616449586776
657,1747666142370,1.3457847266129033,0.7791527620967742,0.5423050320967742,0.9657976879032258,1.1925370677419356,-5.401349478225806
658,1747666142380,1.3523210999999997,0.7297312,0.52301466,1.1429287999999997,1.1099422,-5.554598
659,1747666142390,1.3489785939130434,0.7211743391304348,0.5145469432173913,1.1678946086956523,1.0957063739130435,-5.5773327478260875
660,1747666142400,1.3340169,0.6828722,0.47664383,1.2864822,1.0280862,-5.6853228
661,1747666142410,1.3340169,0.6828722,0.47664383,1.2864822,1.0280862,-5.6853228
662,1747666142420,1.1246847145161292,0.5669489233870969,0.23115960475806452,1.1484956427419355,1.2733486193548387,-5.64845406532258
663,1747666142430,0.8991069,0.5132524,0.13349932,0.9505063,1.5351044,-5.4641895
664,1747666142440,0.7307114381818182,0.5015053824793388,0.15667063107438017,0.9912979900826446,1.5243510694214875,-5.159539561983472
665,1747666142450,0.6224660554838709,0.49397580927419354,0.14005146008064515,1.1003998290322579,1.3295925266129034,-4.664877272580645
666,1747666142460,0.59745216,0.49201941,0.10665302,1.1588113,1.1557571,-4.3805146
667,1747666142470,0.7615727645967743,0.4565582931451613,-0.022537897419354837,1.1817730322580646,0.9389836483870968,-4.1053642258064516
668,1747666142480,1.03997672,0.36520727799999997,-0.200615068,0.9874238391304347,0.20528790113043474,-3.539432834782609
669,1747666142490,1.2007696892561983,0.28432266652892557,-0.3050211447933884,0.7541308033057851,-0.24510336685950412,-3.2861318264462813
670,1747666142500,1.2090438258064518,0.0965600690967742,-0.43934238967741934,0.4902981920967742,-0.36489345556451613,-3.2997709354838713
671,1747666142510,1.0927633074380163,-0.099228435553719,-0.5217157527272728,-0.13459228743801652,-0.32485914958677686,-3.2682452479338844
672,1747666142520,0.9880975031496062,-0.17947240062992126,-0.5091495610236221,-0.6846693204724409,-0.15570329362204724,-3.134084998425197
673,1747666142530,0.8639627,-0.2626056,-0.47395915,-0.9621128,0.0012217305,-2.9541442
674,1747666142540,0.6893556226086957,-0.344876238,-0.38748650434782606,-1.2637473982608693,0.19860557612608695,-2.53205776
675,1747666142550,0.37799001712,-0.42647539704000004,-0.14218971128000002,-1.4610919472000001,0.3251464524,-1.4650307500000002
676,1747666142560,0.21791031361344534,-0.42432736142857147,0.12284488781512606,-1.3768184352941175,0.2724458935294118,-0.30018636411764704
677,1747666142570,0.2268268172,-0.418392206,0.1721482264,-1.2169022648,0.18956858912000002,0.20258736160000002
678,1747666142580,0.30371663534482757,-0.40390000206896554,0.23101281396551723,-0.8392762172413794,0.03262862801724138,0.8831215622413793
679,1747666142590,0.3730362113043478,-0.3371916034782608,0.22315321521739132,-0.24511100173913045,-0.21735117121739128,1.5658388226086957
680,1747666142600,0.38720864532258065,-0.2716986788709677,0.19328152508064517,0.18331376403225808,-0.43222657580645163,2.0131458016129034
681,1747666142610,0.39386312419354835,-0.20953495532258065,0.13315684508064515,0.5181812188709678,-0.6719419266129032,2.4379434387096777
682,1747666142620,0.40098605,-0.1969542,0.11373068,0.62858033,-0.76052725,2.5986207
683,1747666142630,0.4980559319148936,-0.13299822138297873,0.012727325765957448,0.9873921613829787,-1.043864660106383,3.3934538574468087
684,1747666142640,0.5923227974576272,-0.05330375755932204,-0.06437320101694916,1.0988792855932201,-1.1080680830508474,3.793405841525424
685,1747666142650,0.6638595556097561,0.0020774623414634157,-0.11619505585365852,1.1074987219512196,-1.0757337097560975,4.144228921951219
686,1747666142660,0.7926772855932203,0.06567001338983051,-0.1579526052542373,0.9848908050847458,-0.9829442898305085,4.4867533220338975
687,1747666142670,0.87030816,0.1010397,-0.17791773,0.90102625,-0.9272934,4.673119
688,1747666142680,0.9079946383333334,0.12403193083333333,-0.17912783958333334,0.8819265283333333,-0.9151779166666667,4.706187233333334
689,1747666142690,0.9242304157983194,0.13417611731092438,-0.17936360487394956,0.7704755857142858,-0.8533787514285714,4.976631971428572
690,1747666142700,1.0449803277419354,0.21329028419354837,-0.1587198766935484,0.6896520951612903,-0.9442646553225806,5.204202412903225
691,1747666142710,1.1536586,0.2816420499999999,-0.15082738,0.5946351463414634,-1.0670325967479677,5.413890040650406
692,1747666142720,1.1536586,0.28164205,-0.15082738,0.5137377,-1.1673635,5.521
693,1747666142730,1.2366723719008266,0.3731594867768595,-0.09405684033884297,0.3182406120661157,-1.3386026297520661,5.7366405884297516
694,1747666142740,1.4198307126050422,0.5236196907563025,0.024229345025210083,0.012314837579831931,-1.52320016302521,6.107738773949579
695,1747666142750,1.485644796,0.5686436119999999,0.0615609964,-0.05612629936,-1.497572776,6.222395775999999
696,1747666142760,1.6499897083333332,0.6601341833333334,0.155606835,-0.17935003600000002,-1.1744495199999998,6.548964279999999
697,1747666142770,1.7547716,0.7065457,0.20329969,-0.17470746,-1.119716,6.569245
698,1747666142780,1.9909376871794873,0.8572604641025641,0.23967672333333334,-0.057546639316239316,-0.88713820991453,6.175200129914529
699,1747666142790,2.1525219387096777,1.174480229032258,0.25570506249999997,0.13148874879032257,-0.5089837773387097,5.073886076612903
700,1747666142800,1.9548636857142858,1.3511706428571428,0.2285073057142857,0.13761921428571428,-0.4575380728571429,4.632278542857143
701,1747666142810,1.6263741939130434,1.5245470069565217,0.1642526554782609,0.08392757285217392,-0.43583375078260866,4.232754585217391
702,1747666142820,1.5253796658536587,1.5710281398373984,0.14554940382113823,-0.004559139317073171,-0.4112166017886179,3.994914893495935
703,1747666142830,1.408374444537815,1.6215491882352941,0.12927650705882354,-0.19807433831932772,-0.346324683697479,3.585830418487395
704,1747666142840,1.3165391,1.6713367394957983,0.11058459537815125,-0.46095174840336134,-0.19710413857142858,3.125273857142857
705,1747666142850,1.2263877,1.7454975,0.088104665,-0.50946164,-0.16676621,3.041498
706,1747666142860,1.1713796406779662,1.8236702830508476,0.10343477162711864,-0.5653713316949153,-0.13084422794915254,2.9510640398305084
707,1747666142870,1.1236396,1.9343977,0.17230442,-0.7538077,-0.009773844,2.6462681
708,1747666142880,1.1294191163793104,1.9966302750000002,0.3034368106896552,-1.262137121551724,0.5016151512413793,1.425480351551724
709,1747666142890,1.1351103,2.0493488,0.4053791,-1.4330899,0.7263188,0.80573124
710,1747666142900,1.1351103,2.0493488,0.4053791,-1.4330899,0.7263188,0.80573124
711,1747666142910,1.1351103,2.0493488,0.4053791,-1.4330899,0.7263188,0.80573124
712,1747666142920,1.1507203464566929,2.0328969881889765,0.5134368851968504,-1.2431059803149607,0.8002286850393701,-0.0170898302362205
713,1747666142930,1.1919756,1.9646608,0.7438865,-0.7623598,0.97494096,-2.0384574
714,1747666142940,1.1650974026086958,1.767899684347826,0.7119977352173913,-0.4369226792173913,0.9932137827826086,-2.7258825173913044
715,1747666142950,1.1363384606557376,1.5547606852459017,0.6492402524590164,0.0021230091803278684,1.0112924295081966,-3.613337981967213
716,1747666142960,1.1421878,1.4716653,0.6108753,0.116675265,1.0231993,-3.8551705
717,1747666142970,1.1967267596774194,1.3024744903225807,0.5175037274193549,0.17437247016129032,1.047791558064516,-4.004615712903226
718,1747666142980,1.2476206,1.1475571,0.43198135000000004,0.23231933724770643,1.0847902201834863,-4.178391036697248
719,1747666142990,1.3220581,1.0509106,0.3922,0.344528,1.4239268,-4.8576
720,1747666143000,1.4512811739130433,0.848343014347826,0.3751690460869565,0.47498757826086957,1.6759752608695653,-5.435691356521739
721,1747666143010,1.4512811739130433,0.848343014347826,0.3751690460869565,0.47498757826086957,1.6759752608695653,-5.435691356521739
722,1747666143020,1.4726415,0.8107582,0.37633627999999997,0.5119051,1.704925,-5.5368824
723,1747666143030,1.4927761948275862,0.6523902724137931,0.37718206862068965,0.8894355756034483,1.7915783094827586,-6.015105855172414
724,1747666143040,1.4766812544715446,0.5507181487804877,0.35167261373983744,1.0643308999999999,1.8114191666666668,-6.154263666666666
725,1747666143050,1.4370051740157481,0.4879281157480315,0.30074773834645674,1.1843042181102361,1.8366217433070866,-6.223456551181102
726,1747666143060,1.3039465277310924,0.43208183336134454,0.23954528411764708,1.3331184344537814,1.8266,-6.24936177815126
727,1747666143070,1.2417632,0.41026023,0.21477039,1.3811663,1.813048,-6.2485404
728,1747666143080,1.1043947681034483,0.42971749612068966,0.19239917232758622,1.3975280431034485,1.723635275,-6.177490530172414
729,1747666143090,0.7781489629032259,0.5234004374193548,0.16754924387096776,1.4365974677419353,1.4131283709677418,-5.52216264516129
730,1747666143100,0.7487272794488189,0.5236968870866142,0.18849675015748033,1.580649916535433,0.7920565247244095,-5.080768354330709
731,1747666143110,0.78464407,0.49006698,0.20598431,1.7086355652892562,0.35885555239669426,-4.871569685950413
732,1747666143120,0.824361372295082,0.441965688852459,0.15025123839344262,1.8373174836065573,-0.024044053606557377,-4.627905135245902
733,1747666143130,0.9489265463934425,0.2753005716393443,-0.07647793904918034,1.9173457401639344,-0.3521037168852459,-4.297166540983607
734,1747666143140,1.08485321017094,0.03230942521367522,-0.4661263964957265,1.381604882905983,-0.6356966777777778,-3.485074941880342
735,1747666143150,1.271215493548387,-0.20862171193548387,-0.6634499677419355,0.4866625516129033,-0.7525465761290323,-2.7603226774193548
736,1747666143160,1.3177050018181817,-0.28619928,-0.6894573090909091,0.06645659400000001,-0.6875455085454546,-2.515748592727273
737,1747666143170,1.2556396428571428,-0.43264376,-0.5498261257142857,-0.8289974525396825,-0.29704536174603174,-1.8923054634920635
738,1747666143180,1.1455349462184874,-0.5415343211764706,-0.38203778680672273,-1.3430616579831933,0.047072559663865546,-1.3239811042016805
739,1747666143190,0.9742848145299144,-0.6365701316239316,-0.23786194982905984,-1.439355129059829,0.3006971125641026,-0.7586319615384616
740,1747666143200,0.90808426,-0.66581548648,-0.19713968296,-1.4085477296,0.47750604112,-0.33282381959999996
741,1747666143210,0.7453528741666666,-0.7095801592500001,-0.12749956325000003,-1.293659875,0.676075125,0.1957823125
742,1747666143220,0.6035536,-0.6994681,-0.0976229,-1.1355985,0.8258898,0.6750061
743,1747666143230,0.42675093465517244,-0.5400145436206897,-0.06329498593103448,-0.7286832542241379,0.6465850775862069,1.6075972508620688
744,1747666143240,0.28573814666666664,-0.39926952083333334,-0.038748156425,-0.32201762074999996,0.36574031625,2.512672035
745,1747666143250,0.30698496159999994,-0.3038805544,-0.062420081360000004,-0.10492221759999999,0.0200266132,2.9086128464000005
746,1747666143260,0.42107197075,-0.2057402695,-0.10203423575,0.372495446,-0.7020776249999999,3.6819088066666668
747,1747666143270,0.4749622996062992,-0.17489104393700788,-0.12062384984251968,0.48041424787401577,-0.8487035047244095,3.8486338007874017
748,1747666143280,0.5626082615384614,-0.11500727615384615,-0.15685371153846156,0.6855839880341881,-1.1304087598290598,4.232539092307692
749,1747666143290,0.7448257946218487,0.0020755134453781503,-0.23308286495798322,0.7402814218487395,-1.2747936126050419,4.702137857142857
750,1747666143300,0.79538256,0.034900185,-0.25406358,0.7105742233870967,-1.2941672774193549,4.911662012903226
751,1747666143310,0.8796684467226892,0.09573811739495798,-0.2819476361344537,0.61208695,-1.2632693,5.07629
752,1747666143320,0.9520185568,0.15388102232,-0.29341537879999996,0.47239431152000005,-1.195365584,5.212166175999999
753,1747666143330,1.0094208,0.20549619,-0.27822527,0.25261549743801653,-1.086729220661157,5.421928950413223
754,1747666143340,1.014773227586207,0.20884145793103445,-0.27358818206896557,0.09828611372413794,-1.0214087655172415,5.586973641379311
755,1747666143350,1.1053354,0.2626056,-0.20159128,-0.057421334,-1.0054842,5.7580156
756,1747666143360,1.1053354,0.2626056,-0.20159128,-0.057421334,-1.0054842,5.7580156
757,1747666143370,1.1053354,0.2626056,-0.20159128,-0.057421334,-1.0054842,5.7580156
758,1747666143380,1.7136424396396395,0.5831561183783784,0.13612238554954956,-0.37089426167567563,-1.6971487414414415,6.853622002702703
759,1747666143390,2.2902884672268904,0.8158546633613446,0.29785033714285714,-0.40888445705882354,-1.9553077470588234,6.902741252941176
760,1747666143400,2.543489562992126,0.960003947007874,0.31296209952755905,-0.43714863433070866,-1.8893484346456693,6.582207526771653
761,1747666143410,2.6157723084745768,1.269800879661017,0.30752867423728814,-0.7907184559322034,-1.2289262444067797,5.38868012881356
762,1747666143420,2.5767562,1.4209013,0.3065359,-0.9841039,-0.88270026,4.825835
763,1747666143430,2.3366349711864407,1.4724697754237288,0.3534134933898305,-1.2213784737288136,-0.525820367440678,4.501667576271187
764,1747666143440,1.9710381339130434,1.5476434260869565,0.42652078104347824,-1.5669968713043478,-0.008477747321739131,4.031529882608696
765,1747666143450,1.7723436,1.5617223,0.4807928,-1.8241638016393442,0.24091123590163935,3.6094725163934425
766,1747666143460,1.5069335868421052,1.6245627833333334,0.5395399152631579,-1.9508463947368422,0.28276631210526315,3.038572184210526
767,1747666143470,1.2909041292682926,1.6841418601626015,0.5626114593495936,-1.9608774,0.26939157,2.723848
768,1747666143480,1.0344962674418605,1.7788651046511625,0.5644845341860465,-1.9720008348837208,0.3564611888372093,2.1327720372093024
769,1747666143490,0.8467132237288135,1.878359666101695,0.6241577898305084,-1.9682336754237288,0.5611884399999999,1.0708985483050846
770,1747666143500,0.7276043809523809,1.9611239333333335,0.7390479380952382,-1.900964138888889,0.6688683657142858,0.5320393956349205
771,1747666143510,0.7207297411764706,1.9844868117647059,0.8398009588235295,-1.7268390428571427,0.7259543193277311,0.06527018411764707
772,1747666143520,0.7197444818548387,1.9910208701612904,0.8720007691129033,-1.5364246354838709,0.7525268741935485,-0.3034423819354839
773,1747666143530,0.72216535,1.9912632,0.93010217,-1.2962561,0.7703011,-0.6957755
774,1747666143540,0.7344516561538462,1.9680777435897436,0.9191633974358974,-0.9980441989743589,0.7886113726495727,-1.1212613931623931
775,1747666143550,0.79782313,1.8484896,0.86274236,-0.28771752,0.84482664,-2.162463
776,1747666143560,0.831686580909091,1.783396932231405,0.830996781322314,-0.08788886467768595,0.8864008112396694,-2.499342497520661
777,1747666143570,0.90794178,1.6409510584,0.74647542376,0.2916759344,0.99617462,-3.142168596
778,1747666143580,1.0386763249572648,1.4834300435897436,0.6522669488034188,0.5494289111111111,1.1516480606837607,-3.69301460940171
779,1747666143590,1.205733552892562,1.3313545239669422,0.5743070429752066,0.713192732231405,1.3058936305785125,-4.152934606611571
780,1747666143600,1.297118515625,1.233129765625,0.5427452312500001,0.8106468060937501,1.41777529765625,-4.4706551875
781,1747666143610,1.415692119672131,1.1130610918032786,0.4944839878688525,0.9061234529508198,1.554211473770492,-4.843680606557377
782,1747666143620,1.5046033251968505,1.0145132930708662,0.45101009212598425,0.9630603367716535,1.6922266732283464,-5.14581351496063
783,1747666143630,1.5341438,0.97500867,0.43295756,0.97494096,1.7660115,-5.2699347
784,1747666143640,1.5341438,0.97500867,0.43295756,0.97494096,1.7660115,-5.2699347
785,1747666143650,1.6333019524193548,0.7738130133870968,0.47612223225806455,1.1601020637096775,1.9054019951612904,-5.846576660483871
786,1747666143660,1.6641653699999999,0.6552387867500001,0.49880420875,1.4369586458333332,1.9166914791666665,-6.292650120833333
787,1747666143670,1.5593572170731707,0.5545000459349593,0.49521797414634144,1.7769474170731707,1.7788694073170732,-6.444970902439024
788,1747666143680,1.4501167198275862,0.49992604094827586,0.4514070403448276,1.9534575413793105,1.6554711577586207,-6.486372448275862
789,1747666143690,1.1652934428571426,0.4519899344537815,0.2666540797478992,2.1235317907563025,1.6153792924369748,-6.306952788235295
790,1747666143700,0.9427872034146341,0.4345608107317073,0.12359614479674796,2.180520695121951,1.6481740268292684,-6.064833902439024
791,1747666143710,0.89813066,0.43246946,0.09567044,2.198504,1.6707164,-5.932112
792,1747666143720,0.83070058784,0.43311962696,0.008120272351999998,2.2203338672,1.40798084,-5.386145331200001
793,1747666143730,0.80343646,0.42587993,-0.093473926,2.225382,1.1710287,-4.9657235
794,1747666143740,0.80343646,0.42587993,-0.093473926,2.225382,1.1710287,-4.9657235
795,1747666143750,0.80343646,0.42587993,-0.093473926,2.225382,1.1710287,-4.9657235
796,1747666143760,0.80343646,0.42587993,-0.093473926,2.225382,1.1710287,-4.9657235
797,1747666143770,1.0123710762903226,-0.2881154863064517,-0.2526405778709678,-0.5858838241129033,-0.907405823403226,-3.1492813709677416
798,1747666143780,1.0135404336,-0.43860016,-0.10379266376,-1.199091834,-1.09490261,-2.524803912
799,1747666143790,0.9923800632258064,-0.5079106941935484,0.037506088354838714,-1.2797627,-1.0005972,-2.158187
800,1747666143800,0.9619358919354838,-0.5472747983870967,0.14878438177419356,-1.1895812854838708,-0.6107962948387097,-1.3571849846774193
801,1747666143810,0.9119127162184874,-0.5315013210084033,0.14629282949579833,-0.9453575554621849,0.05931551092436973,-0.389357297815126
802,1747666143820,0.8488167998319327,-0.46215011176470583,0.05736575890756303,-0.6456486294117648,0.7888426317647058,0.6060501988235294
803,1747666143830,0.804851996,-0.39799635299999997,0.026024638183333334,-0.5274618026666666,0.9174992543333332,0.9075115933333333
804,1747666143840,0.7525780612903226,-0.3591892677419355,0.012021787870967743,-0.2766727019354839,0.8930258664516129,1.3396373790322582
805,1747666143850,0.6830742690625,-0.3180142090625,-0.006276847053125,-0.19486602,0.8594874,1.459968
806,1747666143860,0.5355389853658538,-0.23606884097560976,-0.049126936560975616,0.4087632099186992,0.36768625219512197,2.139468728455285
807,1747666143870,0.47360004959349594,-0.14818639211382115,-0.09820625516260162,0.8827350569105692,-0.05521129414634146,2.7039725829268293
808,1747666143880,0.46192298439024393,-0.11149645284552846,-0.13672959930894307,1.0773179764227643,-0.2391512643902439,2.9638237479674796
809,1747666143890,0.46492904,-0.078830495,-0.20085911,1.2315043,-0.39461896,3.1978796
810,1747666143900,0.46492904,-0.078830495,-0.20085911,1.2315043,-0.39461896,3.1978796
811,1747666143910,0.5994006167479675,0.03452517202439025,-0.41294090048780485,1.2973684975609754,-0.792088608292683,3.8599630390243904
812,1747666143920,0.7083548871428572,0.1509222941269841,-0.4793148580952381,0.9796630517460317,-0.9449503555555555,4.371041292063492
813,1747666143930,0.7829336233613445,0.20443178495798317,-0.4120732117647059,0.7233979112605042,-0.947431474789916,4.690095105882353
814,1747666143940,0.8695579613114754,0.2686270068852459,-0.32578441557377047,0.49916701147540987,-0.9343434188524591,4.981325942622951
815,1747666143950,0.90691674,0.30043447,-0.2945771,0.4166101,-0.93218035,5.0891185
816,1747666143960,0.9387475881355933,0.35537216169491526,-0.2606241805084746,0.2903991203389831,-0.933371038559322,5.2343802627118645
817,1747666143970,0.9718221588709678,0.38519712822580643,-0.22588875911290324,0.12822751330645163,-0.9553981338709677,5.393496762096775
818,1747666143980,1.135581525862069,0.5184196827586207,-0.056654946879310344,-0.13549096853448278,-1.0507619189655173,5.58779509137931
819,1747666143990,1.2470801082644627,0.5993440550413224,0.06999803799173554,-0.24572938272727274,-1.1157378347107438,5.655910357024793
820,1747666144000,1.2929107000000002,0.6353855771428573,0.12119185571428572,-0.18835012,-1.1832459666666666,5.6472454
821,1747666144010,1.4562895,0.77512586,0.29042813,-0.15454891,-1.2119566,5.6401186
822,1747666144020,1.4979596930434782,0.8101936994782609,0.31629607060869563,-0.10701296899130436,-1.2139963913043479,5.613601850434782
823,1747666144030,1.668246672727273,1.0058353472727273,0.41424943636363637,0.13084734,-1.20548144,5.41361014
824,1747666144040,1.724183959,1.129157748,0.44178755799999997,0.2829833382,-1.177454988,5.24267148
825,1747666144050,1.7006245413793104,1.3763061551724136,0.33621830689655174,0.49553809344827593,-0.9861260724137931,4.725906337931034
826,1747666144060,1.7006245413793104,1.3763061551724136,0.33621830689655174,0.49553809344827593,-0.9861260724137931,4.725906337931034
827,1747666144070,1.7123058,1.7523311,0.036852647,0.13988814,-0.4196644,3.8594464999999993
828,1747666144080,1.7123058,1.7523311,0.036852647,0.13988814,-0.4196644,3.8594464999999993
829,1747666144090,1.6861682142857144,2.086091030952381,0.08300852047619048,-0.9576331000000001,0.4253658266666666,2.3683246
830,1747666144100,1.553226257647059,2.1265742129411764,0.18984209527058823,-1.198359554117647,0.6711396742352942,1.7797738305882354
831,1747666144110,1.2823089631578948,2.137954394736842,0.33977907078947367,-1.345848701754386,0.9762055754385964,1.077823444736842
832,1747666144120,1.2517697,2.1376975,0.35461518,-1.3610078,1.0274754,0.9639453
833,1747666144130,1.0836884826086957,2.116262804347826,0.4218901104347826,-1.3349795391304349,1.2457933130434784,0.5411203695652174
834,1747666144140,1.0584763,2.1130476,0.43198135,-1.3310753,1.278541,0.47769663
835,1747666144150,1.0584763,2.1130476,0.43198135,-1.3310753,1.278541,0.47769663
836,1747666144160,1.0584763,2.1130476,0.43198135,-1.3310753,1.278541,0.47769663
837,1747666144170,1.0584763,2.1130476,0.43198135,-1.3310753,1.278541,0.47769663
838,1747666144180,0.8704815698245614,1.6028952394736842,0.4340600942105263,0.5638446955526316,0.2212457459473684,-2.866029731842105
839,1747666144190,0.9156621125,1.4820681166666667,0.3647130425,0.7374212403333333,0.039349902575000005,-3.35035158
840,1747666144200,0.9895271607999999,1.347801276,0.26306051008,0.7411994439999999,0.046841146759999994,-3.5857789199999996
841,1747666144210,1.0588300347457626,1.209992318644068,0.17632927983050847,0.5230870211864407,0.3621706151694915,-4.17228743559322
842,1747666144220,1.0704352,1.1844097,0.1637624,0.462425,0.44715336,-4.2968264
843,1747666144230,1.0704352,1.1844097,0.1637624,0.462425,0.44715336,-4.2968264
844,1747666144240,1.111336617094017,1.0473414658119657,0.20158084803418805,0.25461072333333334,0.7871808191452991,-4.646183847863248
845,1747666144250,1.1857473385826771,0.9252133811023622,0.2768012755905512,0.20563552456692913,1.0797211023622049,-5.024905555905512
846,1747666144260,1.21398792605042,0.876530609579832,0.2965028924369748,0.25960232470588235,1.1812388344537816,-5.2439340235294125
847,1747666144270,1.261532,0.79562664,0.26992732,0.30819606190476195,1.1758864595238094,-5.480886702380952
848,1747666144280,1.2788659577235773,0.7571806822764228,0.24637083349593497,0.312763,1.1606439,-5.5814757
849,1747666144290,1.2805684,0.7534047399999999,0.24405725,0.312763,1.1606439,-5.5814757
850,1747666144300,1.1934770639999999,0.6415874353600001,0.12851859304,0.009211843600000002,1.2991784296,-5.849801918400001
851,1747666144310,1.1066827613445376,0.5836167462184875,0.07743382537815126,-0.18256144428571427,1.4724470857142857,-5.8828941142857145
852,1747666144320,0.9682914640625,0.523171029296875,0.079158443671875,-0.31459559054687497,1.7513888945312501,-5.75157300625
853,1747666144330,0.9086251999999999,0.49860895,0.09176553,-0.3494149,1.8710803,-5.679214
854,1747666144340,0.71948075,0.43320164,0.16498269,-0.258396,2.017077,-5.4012704
855,1747666144350,0.7831354822834646,0.39678136062992125,0.15003947488188976,0.4214248699212599,0.7021871669291339,-4.256114614173229
856,1747666144360,0.82198477,0.38341394,0.13716017,0.6872234,0.07391469,-3.8325686
857,1747666144370,0.82198477,0.38341394,0.13716017,0.6872234,0.07391469,-3.8325686
858,1747666144380,1.131874375775862,0.30223754568965516,-0.058251832146551726,0.7639712512931035,-0.7849776488793103,-3.689705049137931
859,1747666144390,1.1416757672131148,0.09098534352459017,-0.33567873098360657,0.3973428154918032,-1.510834950819672,-3.2851431737704915
860,1747666144400,0.9712208894308942,-0.159746366300813,-0.3919360911382114,-0.3234307880487805,-1.1616074284552844,-2.4677365707317076
861,1747666144410,0.8740569837837838,-0.3007862616216216,-0.37019526594594593,-0.8268308737837838,-0.729967481081081,-1.6503927783783785
862,1747666144420,0.7913896114754098,-0.41604158754098364,-0.2827023175409836,-1.0280361279508197,-0.4152181259016393,-1.07815213147541
863,1747666144430,0.7612770451239669,-0.45490656190082646,-0.23605378975206612,-1.114551385123967,-0.21845246665289256,-0.6938419515289256
864,1747666144440,0.72875494,-0.49982923,-0.12398108000000001,-1.0229016717948718,0.2561718194102564,0.713866525
865,1747666144450,0.6881193986956522,-0.4540048541304348,0.0576611784347826,-0.7800350717391303,0.3195489204347826,1.2856057521739133
866,1747666144460,0.6302988517241379,-0.4015036367241379,0.18316917275862069,-0.43813782500000004,0.24800075344827585,1.649041253448276
867,1747666144470,0.5685216571428572,-0.36185748373015875,0.19689028103174602,-0.10407979761904762,0.14329152857142857,1.9198331285714285
868,1747666144480,0.5298483,-0.34070393,0.191829,0.5424172918644067,-0.12368467694915253,2.518576752542373
869,1747666144490,0.4762152116260163,-0.30708752097560976,0.09120796585365853,0.9214281442276423,-0.314709821300813,2.946312377235772
870,1747666144500,0.41584112015625,-0.25144951171875,-0.087116991328125,1.0836749,-0.44532076,3.2210925
871,1747666144510,0.41345097122950825,-0.22494475426229507,-0.16178594163934426,1.2026935073770493,-0.581027983442623,3.522534417213115
872,1747666144520,0.45542492991735534,-0.17750223157024794,-0.2694714638016529,1.3025868636363636,-0.8186705209090909,4.095407272727273
873,1747666144530,0.48689422,-0.15936938,-0.307024,1.2999213,-0.87109387,4.220468
874,1747666144540,0.6596586788495575,-0.07680028057522123,-0.37571424637168144,1.0710035761061947,-1.096422025840708,4.665064369911504
875,1747666144550,0.77732235,-0.022697324,-0.41172457,0.81306165,-1.2632693,5.0371947
876,1747666144560,0.77732235,-0.022697324,-0.41172457,0.81306165,-1.2632693,5.0371947
877,1747666144570,0.77732235,-0.022697324,-0.41172457,0.81306165,-1.2632693,5.0371947
878,1747666144580,1.2242041816964286,0.22883635783928574,-0.1424204800535714,-0.1564960450892857,-1.0328094983928573,5.7771269866071435
879,1747666144590,1.3195601092436973,0.3084473362184874,-0.04566331784873949,-0.3403905365546218,-0.953519578487395,5.951064453781513
880,1747666144600,1.5430221393700787,0.484761125984252,0.14868851056692914,-0.45834613779527555,-0.9954361787401576,6.115540291338583
881,1747666144610,1.6112941727272727,0.5316353735537189,0.19265797454545455,-0.49388706925619835,-1.0261677925619834,6.172162239669421
882,1747666144620,1.7450298394957984,0.6213246668067226,0.27118860235294123,-0.48570458747899165,-1.0826123865546218,6.1733116537815125
883,1747666144630,1.9143851,0.73607665,0.35607952,-0.4428773,-1.1111638999999998,6.101933
884,1747666144640,1.9143851,0.73607665,0.35607952,-0.4428773,-1.1111639,6.101933
885,1747666144650,1.9143851,0.73607665,0.35607952,-0.4428773,-1.1111639,6.101933
886,1747666144660,1.9143851,0.73607665,0.35607952,-0.4428773,-1.1111639,6.101933
887,1747666144670,1.9461811165289258,1.4856833185950413,0.32516695867768597,-0.7396416969421488,0.14600690165289254,4.897685116528925
888,1747666144680,1.930981,1.7179189,0.31312546,-0.8594874,0.54611355,4.522846
889,1747666144690,1.535798559322034,1.7814854966101694,0.40008841423728814,-1.5905481813559323,0.9245134936440678,3.5978978830508477
890,1747666144700,1.349208077952756,1.8235227700787402,0.48574884047244093,-1.8246641527559055,0.9751862511811024,3.1664656992125986
891,1747666144710,1.2913069,1.8387274,0.5215503,-1.8832976,0.9669997,3.0164526
892,1747666144720,1.2913069,1.8387274,0.5215503,-1.8951658126984126,0.9592523817460318,2.915242884126984
893,1747666144730,1.0965689963963965,1.8913491630630632,0.6410570337837838,-1.889020954054054,0.960027003153153,2.317919856756757
894,1747666144740,0.8935480591735537,1.954307579338843,0.8055966480165289,-1.4427678115702478,1.096553543801653,1.0414949685950412
895,1747666144750,0.8555487018032787,1.9647769172131149,0.8285363368032788,-1.2352596491803278,1.1315626959016394,0.5712541239344262
896,1747666144760,0.8132107463934426,1.9358440393442624,0.8381545903278689,-0.6522438409836065,1.1404753704918034,-0.6177049260655737
897,1747666144770,0.8195737516129032,1.8846671596774194,0.8228606594354839,-0.38358396709677417,1.1166616774193547,-1.1818665951612901
898,1747666144780,0.8428485769230769,1.8232641615384617,0.8051573892307692,-0.21429362252991455,1.0922583931623933,-1.567370575213675
899,1747666144790,0.8885851120689655,1.715604622413793,0.787717925,0.0034124185172413803,1.0672552913793103,-2.088664105172414
900,1747666144800,0.9460394984126984,1.448158242857143,0.7588320714285715,0.451206373015873,1.0675500682539683,-3.0957875206349206
901,1747666144810,0.9572601996638656,1.3545833352941177,0.7319789453781512,0.6672291159663866,1.1090694773109244,-3.600239463865546
902,1747666144820,0.9652464,1.2903306,0.70923036,0.7281514,1.133155,-3.752545
903,1747666144830,0.9716580631355932,1.2683034177966104,0.7044216036440677,0.748988113559322,1.1466095711864406,-3.8082683474576275
904,1747666144840,0.9996911040178571,1.169221619642857,0.6835520385714285,0.8518079614285714,1.2142255714285715,-4.079358
905,1747666144850,1.0824644429752066,0.9613334173553719,0.6119725214049587,1.1115828934710743,1.4167681388429754,-4.676430863636364
906,1747666144860,1.1458488,0.878362,0.5515694,1.2009611,1.5234979,-4.9437323
907,1747666144870,1.1673102160000002,0.8576308083199999,0.52375077632,1.1993190904,1.5317763464,-4.962273306399999
908,1747666144880,1.2520137,0.77610207,0.42465958,1.1863003,1.5974126,-5.109277
909,1747666144890,1.2520137,0.77610207,0.42465958,1.1863003,1.5974126,-5.109277
910,1747666144900,1.268945404,0.63842253336,0.44766736143999997,1.0978323432,1.730468828,-5.527489839199999
911,1747666144910,1.255066497457627,0.5748603062711864,0.46986189449152543,1.0958922,1.7647897,-5.670051
912,1747666144920,1.2297701561983472,0.5572311068595042,0.48453432768595045,1.240248311570248,1.756086094214876,-5.692678292561983
913,1747666144930,1.0943361305084747,0.5758261786440678,0.461053093220339,1.48516873220339,1.7230955152542373,-5.598828452542373
914,1747666144940,0.924137709385965,0.642913161754386,0.3555207692982456,1.8811219894736841,1.509372949122807,-5.132639892982457
915,1747666144950,0.9755263487903225,0.642112674516129,0.23366907545161292,1.9789669516129031,1.2772797612903226,-4.931081612903226
916,1747666144960,1.1299593868421052,0.5827509246491228,-0.03457263322807017,2.1491043289473684,0.1985633605263158,-4.371244539473684
917,1747666144970,1.2101518459016394,0.5053945513114754,-0.18879627901639345,2.044545868852459,-0.34722180737704916,-4.287482913114753
918,1747666144980,1.2583591769230769,0.3967056815384616,-0.3564362346153846,1.7362303794871794,-0.9801463484615385,-4.232100404273504
919,1747666144990,1.2586528479674794,0.3192526837398374,-0.43623153536585363,1.4763271048780486,-1.2939020268292682,-4.185812451219513
920,1747666145000,1.1968528904,-0.028675751679999997,-0.50329096896,0.26761759248,-1.65237582,-3.684792892
921,1747666145010,1.1587238686440677,-0.15626075279661017,-0.45420293305084747,-0.5797939496610169,-1.4000099237288137,-3.092551889830508
922,1747666145020,1.075533211111111,-0.3298298244444445,-0.32201998666666665,-1.1649442686507938,-0.6487534434920634,-2.2515039134920634
923,1747666145030,1.0229127692307693,-0.43134927948717955,-0.17449468051282052,-1.3474329555555555,-0.09624521755555554,-1.5982949666666666
924,1747666145040,0.9772773339130435,-0.5183245139130435,0.11611606956521739,-1.2206893113043478,0.4918155740347826,-0.42960292904347824
925,1747666145050,0.9620081609756097,-0.5128535463414634,0.20294849292682926,-0.8555986975609756,0.6482024931707318,0.42821652804878046
926,1747666145060,0.9564398222689076,-0.5059347634453781,0.22172294579831933,-0.5827243717647058,0.5680738868907563,0.7551013242016807
927,1747666145070,0.8655687350806451,-0.41842435040322584,0.24188829540322582,-0.17557449483870968,0.37692356967741936,1.1181592206451612
928,1747666145080,0.7405561901818182,-0.33527475463636364,0.20424263145454546,0.6723738169090909,-0.033586482363636365,1.6792574999999998
929,1747666145090,0.6784005144067796,-0.3030343081355932,0.15583054906779661,1.0161484449152542,-0.18065045033898305,1.9201048152542373
930,1747666145100,0.6135599,-0.26968327,0.09176553,1.2724323,-0.27488935,2.1227567
931,1747666145110,0.5542388893805309,-0.2150122692035398,-0.07186945708849557,1.6910155778761062,-0.43604426867256635,2.6401217238938055
932,1747666145120,0.5339194659340659,-0.17079447879120876,-0.17176265725274725,1.8824517384615385,-0.53055996,2.9523116769230766
933,1747666145130,0.5339194659340659,-0.17079447879120876,-0.17176265725274725,1.8824517384615385,-0.53055996,2.9523116769230766
934,1747666145140,0.5181335,-0.05076390499999999,-0.45687518,2.0341814,-1.0268645,3.9333613
935,1747666145150,0.5181335,-0.05076390499999999,-0.45687518,2.0341814,-1.0268645,3.9333613
936,1747666145160,0.5612885794117648,-0.01490902444117647,-0.4849776588235294,1.9674533352941177,-1.0913287294117648,4.017984082352942
937,1747666145170,0.73567602325,0.11970601323333334,-0.559147378,1.4486313075000001,-1.4604362066666667,4.524770518333333
938,1747666145180,0.88885653,0.21818718,-0.5476644600000001,1.1209377,-1.5326608,4.684115
939,1747666145190,0.958868963442623,0.27221184606557375,-0.4730829693442623,0.8563880016393444,-1.4446712049180328,4.807299374590165
940,1747666145200,1.1151922062015502,0.4013871337984496,-0.28403155271317826,0.2534238469767442,-1.1876783023255812,5.122147695348837
941,1747666145210,1.1730643426086957,0.4658501104347826,-0.17235746417391307,0.08501650034782607,-1.0658801913043476,5.253148830434783
942,1747666145220,1.24339348984375,0.54052580078125,-0.080035527984375,-0.049193740078125,-0.9915392865625,5.3634634140625
943,1747666145230,1.3601192612903226,0.7124778774193549,0.05919963393548387,-0.14076503044354838,-1.0045186301612905,5.427818463709678
944,1747666145240,1.420413233898305,0.8117261016949153,0.13726359593220336,-0.17206210872881358,-1.0662704855932204,5.441385948305085
945,1747666145250,1.507585496875,0.926149628125,0.236687865390625,-0.11867966437500001,-1.170608721875,5.39917084375
946,1747666145260,1.5510729426086955,0.9692808608695652,0.27542602939130434,-0.07095066849565217,-1.2280356495652174,5.3627595947826086
947,1747666145270,1.6923425219512194,1.2158773284552846,0.3381819969105691,0.028710667,-1.3310753,5.2473326
948,1747666145280,1.7268905785123967,1.3151175545454548,0.34423166223140494,0.054134776818181816,-1.3479775975206612,5.175341360330579
949,1747666145290,1.7374434,1.4050376,0.32972133,0.24727524508196722,-1.418248837704918,4.450689151639344
950,1747666145300,1.7374434,1.4050375999999998,0.32972133,0.2443461,-1.3616186000000001,4.298048
951,1747666145310,1.70628356097561,1.5402134504065041,0.24543229731707317,0.1722639991869919,-1.2102531356097561,4.086092715447155
952,1747666145320,1.621983521875,1.73197139140625,0.0903698253125,-0.39413218984375004,-0.56665864203125,3.49655455859375
953,1747666145330,1.492820994017094,1.9214626632478633,-0.0180435481982906,-1.2361615717948717,0.23252038923076926,2.8709466538461537
954,1747666145340,1.36657418,2.008009435,0.04392623764666667,-1.5833627,0.5491679,2.5955665
955,1747666145350,1.2119383251968503,2.041438977952756,0.276685991496063,-2.1374174417322833,1.1207116606299212,1.6788934122047243
956,1747666145360,1.0804309376068377,2.0108293846153846,0.5954350256410257,-2.6092873461538457,1.633547623076923,0.5141135769230769
957,1747666145370,1.036267,1.9749112,0.75657743,-2.5344799,1.5906931,0.0983493
958,1747666145380,0.970788151724138,1.8967202706896553,0.9769990539655172,-2.162610327586207,1.365599803448276,-0.4882077413793104
959,1747666145390,0.9294745857142857,1.8215038428571428,1.0645428714285714,-1.7107100882352941,1.116266476470588,-0.9955665411764707
960,1747666145400,0.8909737062499999,1.7118236325,1.0129291202500001,-1.125641352,0.87628625125,-1.5651436625
961,1747666145410,0.8225486637931034,1.4852187896551725,0.7477619615517241,0.020279675551724136,0.6297757231896551,-2.840670827586207
962,1747666145420,0.8096124719008265,1.425901491735537,0.6218235710743802,0.14497195636363636,0.6882179352066116,-3.0824512297520665
963,1747666145430,0.8316209016949153,1.2369793423728814,0.3263748487288135,0.14016768559322032,1.0904928252542372,-3.8379316677966098
964,1747666145440,0.8361401,1.2154051000000001,0.29823795,0.13316862,1.1178834,-3.893655
965,1747666145450,0.8744631785123966,1.1650102694214877,0.29133981157024796,-0.042366789917355374,1.4584028917355372,-4.098446735537189
966,1747666145460,0.8849516,1.151218,0.2894519,-0.09040806,1.5515976999999999,-4.154495
967,1747666145470,0.9372071744,1.0815504056,0.3339249616,-0.09489914128,1.6156945768,-4.2872774176
968,1747666145480,1.063397397413793,0.872029146551724,0.48185107155172413,0.22380839310344827,1.7128450551724137,-5.031781310344827
969,1747666145490,1.108959254716981,0.7897323962264151,0.524654020754717,0.514878735471698,1.5561677377358492,-5.20665258490566
970,1747666145500,1.1226633,0.7682922,0.5298483,0.58276546,1.5131133,-5.237559
971,1747666145510,1.1928668773913043,0.7131352739130435,0.4726752322608696,0.8865992097391304,1.3861913939130437,-5.374068543478261
972,1747666145520,1.261073543902439,0.6354774268292683,0.24052735292682925,1.1003967512195123,1.4919464479674798,-5.600199077235772
973,1747666145530,1.1827015,0.613804,0.08981306,1.013513748192771,1.814748260240964,-5.742707337349398
974,1747666145540,1.1778096447368422,0.6145961162280702,0.08840009728070175,1.0075686254385965,1.8241830333333333,-5.742310087719299
975,1747666145550,1.0711672,0.63186425,0.05759750999999999,0.906524,1.9737056,-5.719531
976,1747666145560,0.8499199542735043,0.6782976871794871,0.06320874487179487,0.8953248247863248,1.9596922205128204,-5.030637055555555
977,1747666145570,0.81417495,0.69409883,0.061746486,0.91690874,1.8784106,-4.6987753
978,1747666145580,0.9145016444347825,0.6799986578260869,0.009246584817391304,0.929827228347826,1.5568246252173914,-4.305516590434783
979,1747666145590,1.250221175862069,0.47592005672413795,-0.15921369353448275,0.7690477231034482,0.7847933431034483,-3.7832780465517244
980,1747666145600,1.2778838,0.43930307,-0.18279888,0.72082096,0.7171558,-3.7592647
981,1747666145610,1.264959332173913,0.2992269320869565,-0.20224705669565216,0.41864984304347824,0.5932617066086957,-3.620693897391304
982,1747666145620,1.1688385363636362,0.04295811,-0.16500892157024794,-0.02739301214876033,0.45406472578512397,-3.3236673636363636
983,1747666145630,1.0088838359999999,-0.13740423000000002,-0.088055858,-0.18811595487500002,0.5050735789999999,-2.800221599166667
984,1747666145640,0.8706356666666667,-0.23893632815789476,-0.06341635131578947,-0.2097518403508772,0.601509352631579,-1.7577165140350877
985,1747666145650,0.8271241052892562,-0.2764402150413223,-0.07001417752066116,-0.1840269456198347,0.6075079925619835,-1.5711201727272728
986,1747666145660,0.8055610448214285,-0.33619322062499996,-0.112046243125,0.0014126276249999993,0.582078215,-0.6090708087500001
987,1747666145670,0.8727606356910569,-0.38169563845528454,-0.2220623382113821,0.1515541758699187,0.5219868256910569,0.23681704479674795
988,1747666145680,0.9279305115254237,-0.3764541838983051,-0.28611990254237285,0.22188903440677968,0.4283200762711864,1.0545605101694915
989,1747666145690,0.9410868384615385,-0.29500679188034185,-0.31141704,0.2081484111965812,0.34671562170940173,1.6748672581196582
990,1747666145700,0.9114368067768596,-0.262188076446281,-0.3058017143801653,0.19435106421487602,0.3330174776859504,1.7812023404958677
991,1747666145710,0.8321612697247706,-0.23469127155963304,-0.2908983302752294,0.18981656651376147,0.31219137724770646,1.9855810091743118
992,1747666145720,0.645453308,-0.20866894360000002,-0.27485727600000004,0.30047239000000003,0.2367713728,2.375850456
993,1747666145730,0.49940771363636366,-0.17354688818181818,-0.2705041909090909,0.4648886366115702,0.06467094042975206,2.8623480446280993
994,1747666145740,0.48718446459459464,-0.1454185381081081,-0.2717874394594595,0.5432903410810811,-0.062060608918918916,3.0650246702702706
995,1747666145750,0.5146295907142857,-0.066470735,-0.27517455214285713,0.7984590942857142,-0.5315400404761904,3.5765288
996,1747666145760,0.5854296831304348,-0.004775034295652175,-0.2982506791304348,1.059612191304348,-1.0607011178260868,4.02971867826087
997,1747666145770,0.6856778697599999,0.052517213928,-0.32453755824,1.14203944,-1.2789270432000002,4.191698656000001
998,1747666145780,0.8608596357983193,0.18297525852941177,-0.40376708588235294,1.1890313000000001,-1.5364698176470588,4.3642367
999,1747666145790,0.9832520056896551,0.29785083620689656,-0.47083062129310344,1.1079305155172414,-1.7066310931034483,4.481591796551724
1000,1747666145800,1.0420142709677418,0.37066589604838707,-0.4962963475806451,0.6127027725806451,-1.7222212499999998,4.65561566532258
