id,timestamp,acc_x,acc_y,acc_z,gyro_x,gyro_y,gyro_z
0,1747666222490,-0.3127767942857143,1.2261087428571429,1.5501122285714286,4.025776657142857,0.12985250514285715,-0.08604473428571428
1,1747666222500,-0.34908999611111113,1.2138526166666666,1.577206436111111,4.27859075925926,-0.00138010251851852,-0.03454782370370371
2,1747666222510,-0.3900812428318584,1.1482439858407079,1.522556463716814,5.087777557522124,-0.44242318123893803,0.26467222690265485
3,1747666222520,-0.34928347641025637,1.117002023076923,1.3966456888888887,5.460414684615384,-0.6037227948717948,0.4371915358974359
4,1747666222530,-0.1386043505785124,1.1069529198347108,1.152299102479339,5.6560668115702475,-0.48745026842975203,0.5145151173553719
5,1747666222540,0.05515694,1.1019185,0.9696394,5.6859336,-0.33108896,0.5112942
6,1747666222550,0.15937139327868852,1.1353803131147542,0.8900127576229507,5.461350668852459,-0.0057030745901639375,0.26254687434426227
7,1747666222560,0.190502063697479,1.1473233268907563,0.9119188782352942,5.357693761344538,0.11253780857142856,0.11920085638655463
8,1747666222570,0.20257941317073172,1.1166927926829269,1.0226951463414635,5.482882953658536,0.01080685089430894,-0.00830876138211382
9,1747666222580,0.19573391555555555,1.0379754666666665,1.1101079555555555,5.971614924603174,-0.42062919555555556,-0.09482470873015873
10,1747666222590,0.18792011626016258,0.9920094016260161,1.1205104536585369,6.204617772357723,-0.6395262281300813,-0.10615149186991871
11,1747666222600,0.12411799731707317,0.8425034646341463,1.0437375999999998,6.807988991869919,-1.1710435414634146,-0.09550853495934959
12,1747666222610,0.10271420416666667,0.6984782777777778,0.7995586722222222,7.271298630555555,-1.9417878444444443,-0.051770830555555564
13,1747666222620,0.11162850285714286,0.5977413521008403,0.5471455935294118,7.450020044537815,-2.617321457142857,-0.015174098277310925
14,1747666222630,0.13819301904,0.5436716819199999,0.394703038,7.340464808000001,-2.9214069032,-0.0348975069
15,1747666222640,0.16180995,0.52399087,0.32532832,7.263188,-3.0439415,-0.06352998
16,1747666222650,0.20812726219512198,0.4967854694308943,0.30403976634146346,7.101159473170732,-3.1930025219512195,-0.22076570195121953
17,1747666222660,0.23970665869565216,0.4119580243478261,0.30994208956521746,6.828729695652173,-3.3594666782608695,-0.7329852008695652
18,1747666222670,0.2424920585123967,0.33019938545454547,0.284294420661157,6.6955979917355375,-3.376343072727273,-1.0925299677685951
19,1747666222680,0.24764866699186994,0.25054560650406504,0.23755104991869921,6.604406829268292,-3.367968219512195,-1.2843963
20,1747666222690,0.267101511570248,0.10535205078512397,0.16415572640495868,6.414483876033058,-3.3464559917355374,-1.5584182148760333
21,1747666222700,0.27025274,-0.02399896333333333,0.110801995,5.946758216260163,-3.312061777235772,-2.082106863414634
22,1747666222710,0.2010446858677686,-0.16532357322314048,0.091295564,5.4943444545454545,-3.2489146181818183,-2.3993676
23,1747666222720,0.22091387965517242,-0.27412258068965517,0.044052333224137936,5.034003718103448,-2.994682687931035,-2.622634076724138
24,1747666222730,0.27230736816,-0.40439892512,-0.028107586304000003,4.447514431199999,-2.5759308391999998,-2.9232884176
25,1747666222740,0.2954618005,-0.47136606249999996,-0.055352184525,4.0725978925,-2.2402668358333333,-3.1555771566666664
26,1747666222750,0.21450903181102363,-0.5678943031496062,-0.04525436381102363,3.654542340944882,-1.9348410858267717,-3.370071467716535
27,1747666222760,-0.08817086152542372,-0.7973970638135593,-0.056701947593220337,3.2857975703389832,-1.7668810906779662,-3.4725722288135596
28,1747666222770,-0.22586825984251968,-0.901088159527559,-0.09891620806299213,2.9670303228346455,-1.6703700826771652,-3.3740156299212596
29,1747666222780,-0.2692451066929134,-0.9782775102362206,-0.13760408795275592,2.752082653543307,-1.5784613125984253,-3.2468209937007875
30,1747666222790,-0.32467492708661416,-1.0951944031496064,-0.17219296125984251,2.625315980314961,-1.4680486275590552,-3.0665676196850393
31,1747666222800,-0.4523095282926829,-1.2416799146341464,-0.21051426146341465,2.5531486260162604,-1.3099533016260163,-2.7715155048780487
32,1747666222810,-0.5593509303571428,-1.4345989473214285,-0.3474547265178572,2.5496206892857143,-1.1478812178571427,-2.447802510714286
33,1747666222820,-0.5957561840677966,-1.5777183288135594,-0.5023401459322033,2.5387456169491527,-0.9161943186440678,-2.0616908966101697
34,1747666222830,-0.5931378579032258,-1.7011026064516128,-0.7109328669354839,2.4216865677419355,-0.5537000606451613,-1.6738397483870968
35,1747666222840,-0.5739964418181818,-1.7378328842975206,-0.8812019826446281,2.2815816099173554,-0.3165291561157025,-1.5654911280991735
36,1747666222850,-0.5619715921259842,-1.7588129763779528,-1.2039843409448818,1.740196272440945,0.3535033796850393,-1.4486597401574801
37,1747666222860,-0.6231795113076923,-1.785864399230769,-1.2528114953846152,0.8903313553846154,1.2712810315384615,-1.3729102607692307
38,1747666222870,-0.839158742631579,-1.7709992798245613,-1.2396331105263156,0.29632321506666665,1.6330357070175436,-1.1631946087719298
39,1747666222880,-1.0128336024590165,-1.7684908590163935,-1.1758638311475411,-0.1435583369,1.7824847909836066,-0.7849467897540985
40,1747666222890,-1.1261992406504067,-1.7761136455284552,-1.107119056910569,-0.38851525569105694,1.7449490601626017,-0.3837425460162602
41,1747666222900,-1.11390203125,-1.77562514296875,-1.1020595390625,-0.701196934375,1.176679146875,0.7305566524999999
42,1747666222910,-1.063174862184874,-1.7760723159663865,-1.1013134327731091,-0.8338926386554623,0.7586022584033614,1.3723370521008402
43,1747666222920,-0.9167270336065575,-1.7278813295081967,-1.1147294836065573,-1.0815369,0.327729223,2.0790799
44,1747666222930,-0.7312986995934959,-1.660480143902439,-1.144221743902439,-1.3955986089430894,0.03359262128455285,2.639027268292683
45,1747666222940,-0.5977582194915254,-1.6124613491525424,-1.1562315389830509,-1.9433487372881355,-0.016348411261016948,3.0530321118644066
46,1747666222950,-0.5203740479508197,-1.5550107704918035,-1.144712443442623,-2.436411008196721,0.04743718951311476,3.292268251639344
47,1747666222960,-0.41959183991596644,-1.4529138327731093,-1.0573954053781514,-3.4595760504201682,0.3456983825630252,3.6153623134453783
48,1747666222970,-0.30934154570247935,-1.3640722487603305,-0.9199525867768594,-4.5060195,0.7168781272727273,3.8950434545454544
49,1747666222980,-0.21017730360655737,-1.322086106557377,-0.7746016704918032,-5.154531008196722,0.9694030590163935,4.02394962295082
50,1747666222990,-0.11925683357142858,-1.2951478833333334,-0.6341595152380952,-5.684479302380953,1.1428561095238094,4.099167607142857
51,1747666223000,0.03819495974999999,-1.2456132949999998,-0.36485337125,-6.2060347125,1.2522992124999999,4.140775583333333
52,1747666223010,0.16836407282258062,-1.1928593806451613,-0.10930221854838709,-6.53659326451613,1.1056069438709677,4.168249019354839
53,1747666223020,0.22506716785123967,-1.1482248446280992,0.019464068347107438,-6.704165304132231,0.7999103887603305,4.1844978380165285
54,1747666223030,0.26947490731707313,-1.0913327512195121,0.1222171194308943,-6.714357427642276,0.4300094156097561,4.181238695934959
55,1747666223040,0.32008698991935486,-1.0086727927419354,0.2433978893548387,-6.656785767741935,-0.2580511717741935,4.225138143548387
56,1747666223050,0.4050908385826772,-0.9311686842519685,0.3905684660629921,-6.5147381724409446,-1.3547067787401574,4.4083260173228345
57,1747666223060,0.47430421379310345,-0.9060835396551724,0.4935679448275862,-6.37549508275862,-1.8715015482758621,4.604912896551724
58,1747666223070,0.5280926370967741,-0.8705679170967742,0.5926261258064516,-6.185857838709677,-2.3650534306451614,4.810888822580645
59,1747666223080,0.6229879268907563,-0.8143698062184874,0.6788237019327731,-5.797870995798319,-2.7664084714285715,5.159357491596639
60,1747666223090,0.7403224495867768,-0.7653816859504132,0.7129537609090909,-5.428673716528925,-2.898823190082645,5.502648872727273
61,1747666223100,0.9237487213114755,-0.7296991436065574,0.6424026885245901,-5.2792727221311475,-2.772442036885246,5.732995581967214
62,1747666223110,1.0936287478991595,-0.7126061189915966,0.6139598537815126,-5.276828428571429,-2.4621360285714284,5.852002
63,1747666223120,1.172695,-0.7043492,0.6274712,-5.307197,-2.2418754,5.879578
64,1747666223130,1.172695,-0.7043492,0.6274712,-5.307197,-2.2418754,5.879578
65,1747666223140,1.172695,-0.7043492,0.6274712,-5.307197,-2.2418754,5.879578
66,1747666223150,1.391753164705882,-0.5650738721568628,0.8718155082352941,-5.83009783137255,-0.8346815019607843,5.81614368627451
67,1747666223160,1.5215564454545454,-0.5592583958585858,1.013658503939394,-5.9247820909090905,-0.7585033658585858,5.789780847474748
68,1747666223170,1.5755567984251968,-0.43727562566929135,1.2710694322834646,-5.673153530708661,-0.982117398031496,5.795278567716536
69,1747666223180,1.5934555732283464,-0.3423162508661417,1.4071533456692913,-5.385825647244094,-1.1695568645669292,5.869741277165354
70,1747666223190,1.6678458467741935,-0.2461986675,1.5017767362903227,-4.9901091145161285,-1.4511990822580645,5.973040275806452
71,1747666223200,1.9713723625,-0.079532154375,1.5579089125,-4.4753132703125,-1.69867305,6.0160777421875
72,1747666223210,2.2767724307692307,0.14042678230769232,1.5329798538461539,-4.031318948717948,-1.4787011102564103,5.749448012820513
73,1747666223220,2.3119014533333333,0.27122081849999996,1.472118685,-3.9854375083333333,-0.9913833833333334,5.517131175
74,1747666223230,2.3305612544,0.45682052224,1.376933876,-4.4862628144,-0.27504576366399996,5.6481383944
75,1747666223240,2.4113388697478992,0.5785531260504202,1.4390210109243697,-5.086957420168067,0.4061073148067227,5.941029194117647
76,1747666223250,2.7495449787401576,0.7700583007874016,1.8733430433070866,-5.943584158267717,1.3431339149606298,6.39945325984252
77,1747666223260,3.1026183800000005,1.0043280733333333,2.4539793066666666,-5.708484674999999,1.2103530916666665,6.320470112500001
78,1747666223270,3.3148410081300814,1.1781595268292684,2.7535312276422768,-5.313117056910569,0.8740687117073171,6.156980422764228
79,1747666223280,3.645727,1.4309076,3.022649,-4.515516,0.23762658,5.764735
80,1747666223290,4.089225517460317,2.0902593952380952,2.7885670936507934,-2.030385196031746,-0.3705285673015873,3.1564328396825396
81,1747666223300,3.75948841875,2.36226069375,2.4116364125,-1.15365713125,-0.05054910624999999,1.20451175
82,1747666223310,3.2150475333333337,2.571061666666667,1.9965508333333333,-1.1040468341269842,0.5135049498412698,-0.18412255111111112
83,1747666223320,2.340231811864407,2.8264641355932203,1.6216549033898304,-1.886424290677966,1.5834507279661016,-0.9192849059322034
84,1747666223330,1.806187718032787,2.9670200213114755,1.5723248262295082,-2.5414496475409836,2.3616601688524588,-1.0225483598360656
85,1747666223340,1.759507949593496,2.9619481406504065,1.8246136227642278,-2.633216577235772,2.565892380487805,-0.883326027804878
86,1747666223350,1.8196121193548387,2.8781987096774193,2.1189601387096775,-2.0661137403225807,2.432327464516129,-1.0552302870967742
87,1747666223360,1.7422514999999998,2.7717397624999998,2.2756080475,-1.0046900453333334,1.967372975,-1.5123037874999998
88,1747666223370,1.5707503918699186,2.649977627642276,2.220436816260163,0.4818535,1.3339210731707318,-2.1332605926829267
89,1747666223380,1.4831358,2.6026266,2.1359892,1.0095967188976378,1.161245175590551,-2.3221633157480315
90,1747666223390,1.40275140234375,2.49036389765625,2.01228633515625,1.48926076796875,1.038494808984375,-2.4949169015624997
91,1747666223400,1.3542501645161291,2.345838987096774,1.8893101677419353,1.8276102580645162,0.9930501548387097,-2.640277687096774
92,1747666223410,1.4423491307692307,2.070796523076923,1.8417123606837607,2.112466,0.9900715692307693,-3.027730030769231
93,1747666223420,1.5693578857142858,1.6864704857142858,1.9404642857142855,2.2763553984126985,0.9165208753968255,-3.5543339666666665
94,1747666223430,1.578533261904762,1.6008818976190478,1.9743824714285714,2.3526165761904765,0.8712683809523809,-3.782928535714286
95,1747666223440,1.5607381463414634,1.4079542845528457,2.0453149154471544,2.519178387804878,0.8722708963414635,-4.024529341463414
96,1747666223450,1.4600124777777779,1.0159405936507937,2.1517442571428576,3.1788360785714285,1.0393435634920636,-4.361034884920635
97,1747666223460,1.454271045762712,0.8543575525423729,2.1239723101694916,3.6292435508474576,1.107053502542373,-4.403541088135593
98,1747666223470,1.4628632229508198,0.7464730840983606,2.0514612754098365,3.9808485786885246,1.1704278508196722,-4.4376756901639345
99,1747666223480,1.4698522714285716,0.6862540914285714,1.9708670000000001,4.21832748907563,1.2471506941176471,-4.491338129411765
100,1747666223490,1.4551952806451613,0.5563009612903226,1.6616519677419357,4.556168225806452,1.5230446677419354,-4.731033283870968
101,1747666223500,1.343024758677686,0.46752493834710745,1.4597931413223142,4.4318474033057855,1.6579034016528926,-4.891087032231405
102,1747666223510,1.2988080537190083,0.44031355867768596,1.4111188264462808,4.358341652892562,1.6678690710743802,-4.917753104958678
103,1747666223520,1.2208719475,0.37214457875,1.3378729599999999,4.1033348,1.442405525,-4.877911725
104,1747666223530,1.181244876,0.32378391792,1.31938322,4.064321112,1.3031905719999999,-4.8421576712
105,1747666223540,1.1883954743801652,0.304244579338843,1.3534143991735537,4.129842680991735,1.1889255123966942,-4.750179008264463
106,1747666223550,1.2580517598425196,0.2816708866141732,1.3415884031496064,4.228082069291339,1.2606623307086615,-4.654591141732284
107,1747666223560,1.3628157,0.27505252,1.2910628,4.309460883333333,1.39558275,-4.603022155000001
108,1747666223570,1.303437737704918,0.23485508500000002,1.2316848795081967,4.614911710655738,1.558968182786885,-4.666524763114754
109,1747666223580,1.1917037552845526,0.1510873025203252,1.0765880865853659,4.831690921951219,1.6647865902439025,-4.8579431268292685
110,1747666223590,1.0959287398305086,0.09883698101694915,0.9076633402542373,4.840848127118645,1.6639244694915254,-4.980084196610169
111,1747666223600,0.9452091193798451,0.08424515460465115,0.7706079209302326,4.732614548062015,1.618125210852713,-5.015748152713178
112,1747666223610,0.8386295366666666,0.07355478393333333,0.6956587758333334,4.591955546666666,1.6014239766666667,-4.936167856666667
113,1747666223620,0.6758341991869918,0.028516997268292685,0.5814118772357724,4.233723195934959,1.6576995333333335,-4.645704699186992
114,1747666223630,0.69592825328,-0.036694492304,0.5664588472000001,4.1106831304,1.7604354384,-4.5461763888
115,1747666223640,0.71215904,-0.077122085,0.5588911,4.0182714,1.8442022,-4.4764204
116,1747666223650,0.617168865511811,-0.13745227259842518,0.6099432492125983,4.179765838582677,1.7005285661417324,-4.402058851968504
117,1747666223660,0.5220240904201681,-0.19268422848739497,0.5844309478991596,4.33064431092437,1.6433352781512607,-4.332297621848739
118,1747666223670,0.42313834166666664,-0.243825398,0.5236451513333333,4.614353899999999,1.6079805600000001,-4.06216223
119,1747666223680,0.31507793,-0.29213652,0.45516676,4.831333,1.5876387,-3.767206
120,1747666223690,0.31507793,-0.29213652,0.45516676,4.831333,1.5876387,-3.767206
121,1747666223700,0.20772942142857143,-0.31993704112781957,0.3343492499248121,5.183375487218045,1.1892811406015038,-3.2056784436090227
122,1747666223710,0.26824508392857144,-0.35485050321428574,0.2198607007142857,5.351506741071428,0.6418612026785714,-3.127193683928571
123,1747666223720,0.2694533305785124,-0.37731856041322315,0.1953728670247934,5.338346256198347,0.3342795995041323,-3.200297752892562
124,1747666223730,0.2550791213559322,-0.3958794831355932,0.18878655940677966,5.314786377118644,0.03342675872881357,-3.246179327118644
125,1747666223740,0.2352553063414634,-0.4061588774796748,0.2009741969918699,5.258447032520325,-0.5336528673983739,-3.2707563252032523
126,1747666223750,0.23124125593495934,-0.40657556016260166,0.20291871447154472,5.235115,-0.74220127,-3.26874
127,1747666223760,0.2468993989090909,-0.4648713518181818,-0.011692556363636359,4.909856927272727,-0.9260272861818182,-3.209374992727273
128,1747666223770,0.2733588957575757,-0.5292590848484848,-0.20493165454545456,4.150656732323233,-0.4607466621212121,-3.0722695595959597
129,1747666223780,0.29668922990654206,-0.672236338317757,-0.503681681682243,3.539918430841121,0.1719842681308411,-2.965904897196262
130,1747666223790,0.2959006506730769,-0.7217969873076923,-0.5635985740384616,3.2967222423076925,0.45180534490384616,-2.938661220192308
131,1747666223800,0.2978865128,-0.9218529936,-0.605759856,2.5269931839999997,1.4045306856,-2.9387260192
132,1747666223810,0.2816159918446602,-1.3195204116504853,-0.511401827184466,2.1048637728155337,1.9780172679611652,-3.186231532038835
133,1747666223820,0.27381003603305787,-1.4068448454545455,-0.5035002150413224,2.1235191090909087,1.9506492628099172,-3.232774517355372
134,1747666223830,0.25018308475,-1.589678995,-0.5994656485000001,2.3187427875,1.5845844708333334,-3.3916511125
135,1747666223840,-0.07217326277310925,-1.9009146504201682,-0.950758831092437,2.59392887394958,0.8534249327731092,-3.254921139495798
136,1747666223850,-0.3966284606451613,-2.077915214516129,-1.3766836177419355,2.368600430645161,0.8427280214516129,-2.511099508870968
137,1747666223860,-0.5407410740566038,-2.14189005,-1.6198471188679244,2.0619526028301887,1.0354223388679245,-2.102004625471698
138,1747666223870,-0.6741808089655172,-2.202635578448276,-1.8348160663793103,1.1911556655172413,1.3426291103448276,-1.4490777310344827
139,1747666223880,-0.8360748393700788,-2.2640537007874015,-2.0474461803149606,0.5538912674803149,1.4979281559055118,-1.037898562047244
140,1747666223890,-0.9026897840983608,-2.2569955163934425,-2.047844312295082,-0.16745217991803277,1.5052621581967212,-0.666093463114754
141,1747666223900,-0.9211447532824427,-2.235173320610687,-1.9714329557251908,-1.122602454961832,1.3541996358778625,-0.16389375682442747
142,1747666223910,-0.9122109123076924,-2.1032855153846155,-1.5507773307692305,-2.159953810769231,1.0123822515384615,0.6920539416615384
143,1747666223920,-0.8693613879310346,-2.0006635379310342,-1.3601353465517243,-2.486664006896552,0.8802199564655172,1.0806838163793104
144,1747666223930,-0.8529801,-1.9666133,-1.3074148,-2.6967083333333335,0.7754789333333333,1.4976379523809524
145,1747666223940,-0.725428276923077,-1.7902500323076922,-1.1005706092307692,-2.9821125223076925,0.5982814396153847,2.26553474
146,1747666223950,-0.52545526,-1.5637561666666666,-0.9283124666666667,-3.157534106976744,0.4999719111627907,2.733366302325581
147,1747666223960,-0.3303334403174603,-1.3737983,-0.7864841619047619,-3.5911118777777777,0.3838173104761905,3.51173806031746
148,1747666223970,-0.23775900870967742,-1.3027539903225804,-0.7169929225806452,-3.8000843048387094,0.3558881324193549,3.764343665322581
149,1747666223980,-0.14585207497637798,-1.2323142173228345,-0.6448799141732283,-3.944736933070866,0.3391697072440945,3.9014616559055115
150,1747666223990,0.027088402608,-1.0901197872,-0.4907132264,-4.2387793928,0.26400129008,4.068333407999999
151,1747666224000,0.20474526692307693,-0.8793195153846154,-0.2872553923076923,-4.697417607692307,0.012682501499999997,4.162548648461538
152,1747666224010,0.22142290935483872,-0.8036313262096775,-0.21892920201612903,-4.856167022580645,-0.13872059657258065,4.178328114516129
153,1747666224020,0.22493333283333333,-0.6885790685,-0.09308750095833333,-5.108665991666667,-0.4409428954166667,4.2549311874999995
154,1747666224030,0.24619078,-0.6000186375806452,0.0525923664516129,-5.296546441935484,-0.728121793467742,4.50074210483871
155,1747666224040,0.25601605,-0.5613316,0.11714747500000001,-5.3927183,-0.87598073,4.629748
156,1747666224050,0.3696256590551181,-0.5389456716535432,0.21572353944881892,-5.446556137007874,-0.9714056106299211,4.7977551574803154
157,1747666224060,0.5271884823728814,-0.5222784050847458,0.3222217459322034,-5.448239548305084,-1.013554854237288,4.901494946610169
158,1747666224070,0.6718581319354838,-0.49880577419354843,0.43991713161290324,-5.361426280645161,-1.0258989096774191,4.848319038709678
159,1747666224080,0.7825813882258065,-0.43097360935483875,0.5594028241935484,-5.0965375516129034,-1.1432835548387097,4.581006217741936
160,1747666224090,0.783240705,-0.41642267,0.551935435,-5.028184625,-1.204473525,4.517348275
161,1747666224100,0.758586379338843,-0.41621036776859505,0.5109993642975207,-4.996302009917356,-1.2746637661157025,4.503066236363636
162,1747666224110,0.6107865545454545,-0.39255497636363634,0.3936421545454546,-5.26602679338843,-1.4652486049586777,4.922695447933884
163,1747666224120,0.563800479338843,-0.3782645259504132,0.3410589165289256,-5.592723616528925,-1.617258196694215,5.37781519338843
164,1747666224130,0.57524294,-0.38121742,0.34241231999999994,-5.7403007,-1.6713274000000002,5.568647399999999
165,1747666224140,0.57524294,-0.38121742,0.34241232,-5.7403007,-1.6713274,5.5686474
166,1747666224150,1.1829676872727273,-0.6187516909090909,0.6026217,-6.438686295454545,-1.9564070454545452,6.254427077272727
167,1747666224160,1.5120895134615384,-0.7210577175,0.7259482442307692,-6.575764678846155,-1.9996086923076923,6.257679909615385
168,1747666224170,1.6399594926605503,-0.7367707931192661,0.8589717834862385,-6.9688965238532115,-2.0041759247706423,5.457206787155963
169,1747666224180,1.5729489,-0.677747,0.9174112,-7.085426,-1.9724839,5.1300464
170,1747666224190,1.363003234710744,-0.5196644582644628,1.112223290909091,-7.154504272727273,-1.9463075512396695,5.230197966942149
171,1747666224200,1.2999814677165356,-0.39580321362204723,1.39518877007874,-7.058100472440945,-2.087379409448819,6.326034000000001
172,1747666224210,1.5962437648,-0.39477529600000005,1.6130212512,-6.649194964,-2.11540196,6.64611612
173,1747666224220,2.3563293186440677,-0.28089956983050846,2.1064331313559324,-5.999266064406779,-2.176507563559322,6.593736419491526
174,1747666224230,2.452020593277311,-0.2129902111764706,2.1561082352941177,-5.455406469747899,-2.2553605487394957,6.32413388487395
175,1747666224240,2.399656165,0.08297945899999999,2.06775066,-3.9950893549999997,-2.39483599,5.44070188
176,1747666224250,2.149544988,0.42784213096,1.8665497752000002,-3.62401912,-2.23747724,5.2134905
177,1747666224260,2.1733656480392156,0.6819893029411764,1.8379280862745098,-3.6174900156862746,-2.1075629715686275,5.256860785294117
178,1747666224270,2.5209381935483868,1.0220566822580646,1.9961521516129033,-3.891852029032258,-1.5295079903225806,5.450898456451613
179,1747666224280,2.8359207383333334,1.15991062,2.1861347766666666,-4.004476206666667,-1.1060834700000002,5.2430869
180,1747666224290,3.01265242,1.273510296,2.3237667039999996,-3.9410972464,-0.862106768,4.8440097704
181,1747666224300,3.1416115222222225,1.4405730555555556,2.4755307246031744,-3.772083057142857,-0.459710033968254,4.126336471428571
182,1747666224310,2.848810372173913,1.9234449582608695,2.642318666086956,-3.055627652173913,0.5358615839130435,2.2754465130434784
183,1747666224320,2.670468714285714,2.0244142666666667,2.6183215809523808,-2.7657505666666666,0.7813548095238096,1.7984309333333335
184,1747666224330,2.4548754532258066,2.1083574532258065,2.5539861072580647,-2.465452070967742,0.9749015290322581,1.4067044258064518
185,1747666224340,2.1814309096774194,2.164291806451613,2.3820696612903225,-1.945157493548387,1.2088777088709677,0.847999164516129
186,1747666224350,2.044295593442623,2.1701670737704917,2.260826336065574,-1.6911954081967213,1.306039932786885,0.5716697278688524
187,1747666224360,1.7397903145299145,2.1714398555555556,1.986542435897436,-1.1814029820512821,1.521957741025641,-0.0038322670085470115
188,1747666224370,1.592197544262295,2.1560315918032784,1.9243632934426231,-0.9821861836065574,1.618422326229508,-0.23478756008196722
189,1747666224380,1.568556,2.153561,1.9158493,-0.8789953397560976,1.6470465926829267,-0.31039900178861785
190,1747666224390,1.4888631633333334,2.161063775,1.9254326400000001,-0.43310347,1.7318029000000001,-0.5546656
191,1747666224400,1.1713812933333334,2.18349885,2.0257281016666666,0.19554813535,1.6574301083333334,-0.5943566145833333
192,1747666224410,1.0827875588709677,2.1564702008064516,2.151665741935484,1.1880245112903225,1.3880434677419355,-0.6076335524193549
193,1747666224420,1.1384161041322316,2.1067526132231404,2.1260936280991736,1.6671774611570247,1.206963707603306,-0.7020759975206612
194,1747666224430,1.27139174,1.97940188,2.0487630400000003,2.462129032,0.8893465135999999,-0.8854125239999999
195,1747666224440,1.3304687153846153,1.8783771999999999,1.9631025230769232,2.94753447948718,0.5883520162393163,-1.1355567393162393
196,1747666224450,1.3905998110236222,1.721243597637795,1.8431222181102362,3.3600763787401573,0.10883503685039371,-1.5295632511811024
197,1747666224460,1.4380493729508197,1.6064768606557376,1.7668364827868852,3.5010891344262296,-0.11576397213114754,-1.7685248918032785
198,1747666224470,1.5715301313559324,1.279364654237288,1.6009555169491527,3.5081474423728816,-0.25704485389830506,-2.681087522033898
199,1747666224480,1.5849078,1.2366381,1.5836874,3.477656,-0.23762658,-2.8893926
200,1747666224490,1.5956543388429751,1.1293093885950414,1.5594027454545454,3.3272164545454546,-0.03393078636363636,-3.099308027272727
201,1747666224500,1.6030964219298245,1.0898547964912282,1.550435742982456,3.0862090885964912,0.617975953245614,-3.3699398631578945
202,1747666224510,1.520132866956522,0.7634132259130435,1.7454358669565215,2.8467489330434783,1.968930207826087,-3.723590186956522
203,1747666224520,1.5054691467213115,0.7330079654918032,1.819396768032787,2.967888876229508,2.0708881778688526,-3.7442334524590164
204,1747666224530,1.4692695592,0.62846499344,2.0239882791999997,3.2973040416,2.0184062088,-3.75967532
205,1747666224540,1.4583683620689654,0.5384744681034482,2.0383955603448274,3.842021243965517,1.7203808327586207,-3.814310982758621
206,1747666224550,1.4560456,0.50324607,2.0249429,4.01565373968254,1.6023673952380952,-3.8415665603174602
207,1747666224560,1.356969121238938,0.39180043991150443,1.9298383734513274,4.882013339823009,0.894490492920354,-3.92258745840708
208,1747666224570,1.2937868516129032,0.3295835753225806,1.8438682064516128,5.128755517741935,0.7423786129032258,-3.875905623387097
209,1747666224580,1.2891864000000002,0.2834105018032787,1.7928484901639343,5.450890770491803,0.5593322762295082,-3.797518980327869
210,1747666224590,1.2950423719008264,0.18001542909090912,1.7708611793388431,6.024600533884297,0.16881085373553717,-3.6788829752066117
211,1747666224600,1.2507568338582677,0.12276464220472441,1.7028411125984253,6.524209350393701,-0.21054648700787404,-3.60631274015748
212,1747666224610,1.2454783444444446,0.06321082333333333,1.5685016555555555,6.958998034188034,-0.558612767008547,-3.5839465
213,1747666224620,1.2683340354838708,0.06667486238709677,1.272207422580645,7.456625419354839,-1.1346132193548388,-3.7389483467741935
214,1747666224630,1.2739361984126982,0.08811241095238095,1.0665688936507935,7.404482047619048,-1.1741897015873015,-3.838260111111111
215,1747666224640,1.2746778762711863,0.10551959881355931,0.8320532355932203,7.265393211864407,-1.1358211279661017,-3.9292818957627116
216,1747666224650,1.293943513114754,0.08972104642622951,0.509547537704918,6.663298206557378,-0.8471699118032787,-4.174082408196721
217,1747666224660,1.2806172200000001,0.0533509124,0.372675416,6.155485548333333,-0.5573432613333333,-4.359785951666667
218,1747666224670,1.1557398904000002,-0.0314970502,0.24680436416,5.380383805599999,-0.08767627256,-4.647795104000001
219,1747666224680,1.073660084126984,-0.057591696031746034,0.2756587923015873,4.807654795238095,0.2358909384126984,-4.852238492063493
220,1747666224690,0.9410807669354839,-0.0955484100483871,0.3528398447580645,4.617017809677419,0.2680319,-4.9131104064516125
221,1747666224700,0.6955747499999999,-0.17970748457142857,0.5004568047619048,4.670840504761904,-0.13383768253968253,-4.949986463492063
222,1747666224710,0.6264339394827586,-0.20206257155172413,0.4948302617241379,4.831880979310345,-0.6393863472413793,-4.958603820689655
223,1747666224720,0.5413149362809917,-0.22966997867768596,0.40389657785123967,4.87642612231405,-1.0611183354545453,-4.942127105785124
224,1747666224730,0.46619000896825397,-0.2677772961904762,0.2957140869047619,4.718594611111111,-1.3333830388888888,-4.896424266666666
225,1747666224740,0.44388841016949154,-0.28773108330508473,0.2727546542372882,4.634448118644068,-1.3397413237288136,-4.884157511864407
226,1747666224750,0.4093589187401575,-0.37935144259842524,0.3044296850393701,4.227076867716535,-1.052939333070866,-4.798740751181102
227,1747666224760,0.4128408229508197,-0.3986495124590164,0.31200517,4.14811562295082,-0.9504863344262295,-4.765299491803279
228,1747666224770,0.41085068629032256,-0.5080445293548387,0.32346836354838715,4.014823161290322,-0.6422360967741936,-4.60610114516129
229,1747666224780,0.3483503842519685,-0.6427987363779528,0.3601055196850394,3.9796571118110236,-0.47087607716535435,-4.322049322834646
230,1747666224790,0.2943679042016807,-0.6970356931092437,0.38520027268907564,4.055529356302522,-0.509348685210084,-4.092191282352942
231,1747666224800,0.25810688157480316,-0.7205684477165354,0.3937623381889764,4.141541453543307,-0.6059350411023622,-3.972692343307086
232,1747666224810,0.20816339464285716,-0.7711075782142858,0.36898839892857144,4.403841991071428,-0.8914814705357142,-3.692833196428572
233,1747666224820,0.17335386583333331,-1.01503817,0.17115734716666667,4.886550315833333,-1.2971214683333332,-3.3855323124999996
234,1747666224830,0.19010693224000003,-1.1677260888,0.045749994016,4.9943561272,-1.4326158528,-3.3462562488
235,1747666224840,0.20015316404958677,-1.296256638016529,-0.05743615006611571,5.000603611570248,-1.495948403305785,-3.3610309958677687
236,1747666224850,0.1255965061904762,-1.564325561904762,-0.30860458047619044,4.833922142857143,-1.3927436571428573,-3.4430691761904764
237,1747666224860,-0.20015218879310345,-1.8833898241379312,-0.73434302,4.0178502155172415,-0.44551036017241386,-3.470830977586207
238,1747666224870,-0.45870760590163934,-2.0817644590163935,-0.9905163,3.240189557377049,0.41161301409836065,-3.3707144016393444
239,1747666224880,-0.6992123785714286,-2.2597823047619046,-1.1420271142857141,2.510801715873016,1.0391108695238096,-3.157387946031746
240,1747666224890,-0.7687803,-2.3087816,-1.1787965,2.058882800840336,1.3763102016806723,-3.001694254621849
241,1747666224900,-0.992604652195122,-2.459696343902439,-1.229264818699187,1.1145310991869917,1.9430977886178864,-2.548296338211382
242,1747666224910,-1.172721326446281,-2.533862958677686,-1.2653602512396693,0.6457653447933884,2.1511846214876034,-2.126977233057851
243,1747666224920,-1.4780264838709678,-2.549272435483871,-1.3204442548387096,-0.18637300677419352,2.3865716322580646,-1.1501212903225806
244,1747666224930,-1.5224465571428571,-2.5004710785714286,-1.297146814285714,-0.4706377394444445,2.297158744444444,-0.6121209072222222
245,1747666224940,-1.5485313382113821,-2.440082351219512,-1.2566824658536584,-0.6724881585365854,2.165234219512195,-0.13944117390243904
246,1747666224950,-1.4234707711999999,-2.1673866399999997,-1.0771574367999999,-1.0723959394400002,1.5166464791999998,1.37266801456
247,1747666224960,-1.238571028,-2.0020602999999997,-0.990228164,-1.2868780296,1.1400651640000001,2.2403801623999997
248,1747666224970,-1.1280326,-1.9370824,-0.96256185,-1.4040374906779658,0.9938622389830509,2.631255596610169
249,1747666224980,-0.7754381199152544,-1.7482234296610168,-0.900730524237288,-1.7930758305084744,0.8156966525423729,3.299516122033898
250,1747666224990,-0.24361425352941174,-1.4330918773109245,-0.8544711025210084,-2.648999168067227,0.6919255305042018,3.871278905882353
251,1747666225000,-0.12901912206349206,-1.3393803484126985,-0.8501308035714287,-2.9404192753968257,0.7171267015079366,3.9139250960317455
252,1747666225010,-0.04111868664227642,-1.2540355463414636,-0.8345666371544717,-3.324934587804878,0.7689055113821137,3.9416699975609757
253,1747666225020,0.1581770959508197,-1.0039435147540983,-0.6721296404918033,-4.418858818032787,0.966749362295082,3.9601892475409834
254,1747666225030,0.22239519580645162,-0.9040707157258064,-0.5771953803225807,-5.056367906451612,1.1004244983870968,3.9740626548387095
255,1747666225040,0.25284332,-0.83882475,-0.49421594,-5.393303966942149,1.1738760289256198,4.004681141322314
256,1747666225050,0.31002897281249997,-0.7143631865625,-0.3038360228125,-5.81165740625,1.2224749937500001,4.08760486875
257,1747666225060,0.35363895,-0.63381666,-0.16766733,-5.998697,1.2290609,4.1367793
258,1747666225070,0.4273918475609756,-0.5309772900813008,-0.008597561544715445,-6.045152492682927,1.191902405691057,4.144377911382113
259,1747666225080,0.53809350504,-0.38060630287999997,0.18545421472,-6.22403764,0.9313251592,4.1346780496
260,1747666225090,0.5493626724999999,-0.3182404841666667,0.2331966925,-6.2334218125,0.7496080125,4.0453786875
261,1747666225100,0.5199589971544716,-0.21020274536585365,0.3093435577235772,-6.251058495121951,0.45509957845528454,3.762448201626016
262,1747666225110,0.5121751806034482,-0.18175742862068966,0.3467801028448275,-6.25300625862069,0.2747735029310345,3.6269385362068967
263,1747666225120,0.5280624190476191,-0.18739722126984126,0.36993267587301587,-6.269615283333334,0.0660752575,3.533957216666667
264,1747666225130,0.5372010126984127,-0.20115353365079366,0.3795400028571429,-6.313079044444445,-0.13322679607936508,3.5032250063492065
265,1747666225140,0.573121270967742,-0.27763480483870967,0.3816858509677419,-6.591925551612904,-0.5620551625806453,3.730534335483871
266,1747666225150,0.6095869558139535,-0.3173822674418605,0.3629415130232558,-6.751438980620155,-0.6709052524031007,3.837351239534884
267,1747666225160,0.685047473478261,-0.3802093743478261,0.32558298782608697,-7.244463547826086,-0.8201264491304348,4.0478055
268,1747666225170,0.7431543222900764,-0.4210341635877863,0.3490447328244275,-7.65076083740458,-0.8456893287022901,4.091663900763359
269,1747666225180,0.869019260625,-0.4242286853125,0.6118781987499999,-8.3454884703125,-0.9913006859375,3.955991928125
270,1747666225190,0.9481583198305085,-0.3775358769491525,0.9231196433898305,-8.75942454237288,-1.2299926813559323,3.8269569322033896
271,1747666225200,0.9689709673913043,-0.3516122226086956,1.0790407826086956,-8.801006330434783,-1.4312731678260868,3.834603077391304
272,1747666225210,1.0328258908333334,-0.28537818425,1.4319143733333335,-8.746628025000001,-1.7764673725,3.9475945208333334
273,1747666225220,1.10802,-0.22062775,1.7042515999999999,-8.622363,-2.0073032,4.106847
274,1747666225230,1.10802,-0.22062775,1.7042515999999999,-8.622363,-2.0073032,4.106847
275,1747666225240,1.3853729672131148,0.021909138950819675,2.1278392016393446,-6.211327836065574,-1.5477923327868852,4.785498524590164
276,1747666225250,1.3853729672131148,0.021909138950819675,2.1278392016393446,-6.211327836065574,-1.5477923327868852,4.785498524590164
277,1747666225260,1.3638795230769232,0.22224228461538464,2.1527914743589744,-5.459788102564103,-1.3878075256410256,4.798706961538461
278,1747666225270,1.359107512903226,0.6438938629032258,2.1413896870967744,-4.437438325,-1.3739541653225806,4.8478265
279,1747666225280,1.4289631330578512,0.7377608479338843,2.150781603305785,-4.223269866115703,-1.4576305256198347,4.798235362809917
280,1747666225290,1.4904575,0.8061210999999999,2.1686926,-4.05544508292683,-1.4934017146341465,4.715671058536586
281,1747666225300,1.6285659532786885,0.9743265806557376,2.1576001172131147,-3.5849277327868854,-0.9735389151639344,4.399411432786885
282,1747666225310,1.8886881596774194,1.2385984483870967,2.220444685483871,-3.096934125,-0.1441641955,3.967875075
283,1747666225320,1.9863258868852458,1.3435631885245902,2.2771060098360656,-2.797011737704918,0.20404902760655735,3.580671742622951
284,1747666225330,2.0065599387096773,1.386378993548387,2.2942088387096775,-2.5293761758064517,0.4325615572580645,3.18692339516129
285,1747666225340,1.8392920247933882,1.585101344628099,2.232232274380165,-2.0231705570247933,0.7102394033057852,2.2210151247933885
286,1747666225350,1.589159064516129,1.7476624548387096,2.0808242612903225,-1.6956535290322579,0.8159238798387097,1.4258876048387095
287,1747666225360,1.4779905467889909,1.8013395403669725,1.984169714678899,-1.6141637697247706,0.7903923904587157,1.030428802385321
288,1747666225370,1.3889200464,1.8536987832,1.900081276,-1.5950522327999999,0.77118072384,0.86988187152
289,1747666225380,1.2867205824,1.970518212,1.8386140984,-1.6368500400000001,0.7012488696,0.34232887572
290,1747666225390,1.221895401694915,2.0608194288135593,1.9022732915254237,-1.5943169042372882,0.7554850086440678,-0.2412141173305085
291,1747666225400,1.2161373,2.0686293,1.922195,-1.5509869,0.79229224,-0.36957347
292,1747666225410,1.2161373,2.0686293,1.922195,-1.5509869,0.79229224,-0.36957347
293,1747666225420,1.2161373,2.0686293,1.922195,-1.5509869,0.79229224,-0.36957347
294,1747666225430,0.8550648945762712,1.967581266101695,2.2318001355932204,-0.6149652962711865,1.4415694898305085,-1.3983948186440678
295,1747666225440,0.84614646,1.9485531,2.2819352,-0.4499885253206107,1.5201824282442749,-1.4571607732824428
296,1747666225450,0.878989380909091,1.8835148685950414,2.39201327107438,0.4411153918099173,1.5405769247933885,-1.572861870247934
297,1747666225460,0.9155373672727273,1.7871041181818181,2.403486042148761,1.3984018123966941,1.2696101942148759,-1.6888656487603306
298,1747666225470,0.8837706838709677,1.707613435483871,2.3985237193548388,1.9981500274193549,0.9642704661290322,-1.7361972322580645
299,1747666225480,0.8679252543307087,1.653334125984252,2.4106859771653544,2.3560206015748033,0.7687041497637795,-1.7435585354330707
300,1747666225490,0.8529801,1.5929617,2.4308102,2.6700919,0.59315014,-1.740966
301,1747666225500,0.8529801,1.5929617,2.4308102,2.6700919,0.59315014,-1.740966
302,1747666225510,0.8529801,1.5929617,2.4308102,2.6700919000000005,0.59315014,-1.740966
303,1747666225520,0.8529801,1.5929616999999998,2.4308102,2.6700919,0.59315014,-1.740966
304,1747666225530,1.2230251076923078,1.2354678547008549,1.8260238683760683,4.414968638461539,0.8807893824786325,-2.526241109401709
305,1747666225540,1.3073811895161291,1.119610681451613,1.5162194427419355,4.025523325806452,1.7906234,-3.155926916129032
306,1747666225550,1.2478885390243901,1.0017459100813009,1.5604166723577237,3.6146983081300816,2.172812861788618,-3.3962170292682927
307,1747666225560,1.1543042032258064,0.8866678522580645,1.734530641935484,3.4597830306451614,2.3389242064516127,-3.5478758032258066
308,1747666225570,0.9839342793650794,0.7168038971428572,2.0347943587301587,4.000120126984127,2.001296373809524,-3.5516141666666665
309,1747666225580,0.9086252,0.64211464,2.1667402,4.1813726,1.8845193,-3.544851
310,1747666225590,0.8518518196721312,0.5215263195081967,2.223293454098361,4.7802207147540985,1.597112168852459,-3.4206750163934427
311,1747666225600,0.84565836,0.50837123,2.2294629,4.9119673,1.5338826,-3.3933563
312,1747666225610,0.84565836,0.50837123,2.2294629,4.9119673,1.5338826,-3.3933563
313,1747666225620,0.84565836,0.50837123,2.2294629,4.969648996721311,1.511601042622951,-3.379436603278689
314,1747666225630,0.8431377087199999,0.23478111408,1.4801290960000002,7.1214229136,0.4362945984,-2.8381727136
315,1747666225640,0.8622966773913043,0.1662984804347826,1.2185460130434782,7.406347857391305,0.2031790784347826,-2.802947130434782
316,1747666225650,0.90422038416,0.1084863708,0.92928800448,7.3034313232,-0.10950615375999999,-3.0580794432
317,1747666225660,0.82081791,0.08394043968750001,0.74683804,6.9880503078125,-0.44885231984375,-3.35632275
318,1747666225670,0.770271798888889,0.061543103,0.6973664916666666,6.6438239349206345,-0.6761648032539682,-3.5505330753968254
319,1747666225680,0.74019362,0.03396196628360656,0.6830702557377049,6.528241786885245,-0.7522354818852459,-3.595447665573771
320,1747666225690,0.6968551905882352,-0.02176416325882353,0.6475700235294117,6.371072588235293,-0.8586249882352942,-3.604787547058823
321,1747666225700,0.6882414,-0.035632357,0.6343048,6.304129,-0.9016371,-3.5979962
322,1747666225710,0.6882414,-0.035632357,0.6343048,6.304129,-0.9016371,-3.5979962
323,1747666225720,0.6882414,-0.035632357,0.6343048,6.304129,-0.9016371,-3.5979962
324,1747666225730,0.5983397693548388,-0.12070205137903225,0.3046936594354839,5.505373596774194,-0.9877691016129033,-3.721962619354839
325,1747666225740,0.5502917626086956,-0.10919544952173914,0.24373466539130434,5.05283827826087,-1.1173628504347826,-3.8385391826086956
326,1747666225750,0.5377459377599999,-0.12100748368000001,0.2767550744,4.810265724,-1.2884272176,-3.9030330455999995
327,1747666225760,0.49747408716666663,-0.14303585566666666,0.3633808975,4.600761899999999,-1.6457626149999998,-3.987606205
328,1747666225770,0.47737598,-0.14936304,0.3943965,4.536440282539682,-1.8007628999999998,-4.013375015873017
329,1747666225780,0.46953539259842514,-0.18729184440944882,0.4056673233070866,4.472601155905512,-1.9732919724409448,-4.007319199212598
330,1747666225790,0.4253361980487805,-0.34135277284552845,0.6259968894308944,4.76860812195122,-2.0486482601626017,-3.880464375609756
331,1747666225800,0.42465958,-0.3443648,0.6374775,4.788573,-2.053118,-3.8741074
332,1747666225810,0.42465958,-0.3443648000000001,0.6374775,4.788573,-2.053118,-3.8741074
333,1747666225820,0.42465958,-0.3443648,0.6374775,4.788573,-2.053118,-3.8741074
334,1747666225830,0.1705695750833333,-0.671712635,0.759373957,6.908529724999999,-2.885681595,-3.12812384
335,1747666225840,0.08354551243697478,-0.8320936668067227,0.6973433315966386,7.836266391596638,-3.3979455361344537,-2.76967842184874
336,1747666225850,-0.021859457716535434,-1.2540814874015749,0.10025756483464567,8.338810393700788,-3.6602708708661416,-2.619082322047244
337,1747666225860,-0.07535857548387095,-1.4216807161290324,-0.3314297486774193,7.9385286451612895,-3.458384058064516,-2.707275964516129
338,1747666225870,-0.1264356544262295,-1.5871182401639345,-0.7437364942622952,6.854659236885246,-2.939243149180328,-2.933209574590164
339,1747666225880,-0.20687252786885246,-1.785506742622951,-1.134074031147541,5.679735044262295,-2.3390982147540984,-3.105353505737705
340,1747666225890,-0.3803185869918699,-1.9816336560975611,-1.3282309528455285,3.8851129211382114,-1.297428206504065,-3.2203078097560973
341,1747666225900,-0.7749217934426229,-2.2775261557377053,-1.3515410459016393,1.1338960409836065,0.3835933245901639,-3.2316774491803275
342,1747666225910,-0.9471862,-2.3761413,-1.2095478,0.38728857,0.8399397,-3.1813862
343,1747666225920,-0.9471862,-2.3761413,-1.2095478,0.38728857,0.8399397,-3.1813862
344,1747666225930,-1.5369806991452992,-2.6438429042735043,-0.5069674092307692,-0.7697058885470085,1.6915380905982904,-2.283398564957265
345,1747666225940,-1.7264395456140353,-2.6287576982456144,-0.4905165315789474,-0.705597594736842,1.7277037710526315,-1.5261985684210524
346,1747666225950,-1.7960589707317074,-2.5780897707317076,-0.5395331851219513,-0.6412297195121952,1.652196817073171,-1.1667675302439025
347,1747666225960,-1.8453169,-2.3871239,-0.686655085,-0.6857308386792452,1.3308333179245284,-0.1405335950943396
348,1747666225970,-1.61553696875,-2.19563045625,-0.7668583875,-1.0185414625,1.079933375,0.7988208125000001
349,1747666225980,-1.312752052173913,-2.0224620156521738,-0.8016304375652173,-1.439703152173913,0.9584475521739131,1.541319204347826
350,1747666225990,-1.067416037962963,-1.8970186046296296,-0.8182222895370371,-1.851442086111111,1.0405071851851853,1.8788744907407406
351,1747666226000,-0.8082535770491803,-1.6643063655737704,-0.8016360242622952,-2.439645580327869,1.2525041229508198,2.1191316672131144
352,1747666226010,-0.75267255,-1.5934497,-0.7905014,-2.7543914000000003,1.3671165,2.2162192
353,1747666226020,-0.75267255,-1.5934497,-0.7905014,-2.7543914,1.3671165,2.2162192
354,1747666226030,-0.5428140642519685,-1.3234743527559054,-0.7035170892125984,-3.8096251047244096,1.7162716692913385,2.501594318110236
355,1747666226040,-0.3392438593859649,-1.0834385824561403,-0.5850116381578947,-4.904749399122807,2.0420797175438596,2.81728905
356,1747666226050,-0.267202015,-0.9890419883333333,-0.501659655,-5.3102517,2.126422,2.9565878
357,1747666226060,-0.20249472105263158,-0.9192951696491228,-0.41819852491228066,-5.657844703508772,2.1515746228070176,3.103666950877193
358,1747666226070,-0.09013461063492062,-0.786689484126984,-0.2536800865079365,-6.117369396031746,2.0232535515873016,3.3801211134920637
359,1747666226080,0.042182536967741935,-0.6429412683870968,-0.11163650870967742,-6.308898077419355,1.9055398887096775,3.5250965201612905
360,1747666226090,0.21200304603305786,-0.5185671538842975,-0.021303575801652895,-6.4607227669421485,1.7938890694214875,3.5953609305785124
361,1747666226100,0.3148919628571429,-0.4551202733333333,0.01401585919047619,-6.6606711,1.7212146333333334,3.6004397333333333
362,1747666226110,0.3619369,-0.43466598,0.022941383,-6.7653327,1.7269161,3.571118
363,1747666226120,0.3596826989090909,-0.4313911749090909,0.026784175254545455,-6.773757086363636,1.7279490154545456,3.56799149
364,1747666226130,0.2916297942748092,-0.34135598442748094,0.14313864358778627,-7.152476650381679,1.7580841053435114,3.439852241221374
365,1747666226140,0.2250290627118644,-0.30887513008474576,0.28912303906779663,-7.399654084745762,1.5963669135593221,3.4154614610169496
366,1747666226150,0.22242626738461538,-0.2850438447692308,0.41234786492307696,-7.367767830769231,1.2963124738461538,3.4420941015384616
367,1747666226160,0.34044745966101697,-0.30113354169491524,0.5055087593220339,-7.167794509322034,0.8114878910169492,3.3814755220338983
368,1747666226170,0.4477676690243902,-0.32692359853658537,0.5531647109756098,-6.96856704796748,0.3999329793495935,3.288620258536585
369,1747666226180,0.4970120150393701,-0.34957644740157484,0.5588833907874016,-6.822402809448819,0.0992872496062992,3.1902989637795276
370,1747666226190,0.4414588765,-0.3311775576666667,0.5784441196666668,-6.677999381666666,-0.35089118233333333,3.13859499
371,1747666226200,0.36974674,-0.3048275,0.60062486,-6.6193357,-0.6420194,3.1740558
372,1747666226210,0.36974674,-0.3048275,0.60062486,-6.6193357,-0.6420194,3.1740558
373,1747666226220,0.42666009418032785,-0.2617393950819672,0.7987653498360656,-6.381879296721311,-1.1172024385245902,3.465233204918033
374,1747666226230,0.7743725116535433,-0.15238780763779528,1.3032868622047245,-5.499119337007874,-2.5024935692913384,4.2658597165354335
375,1747666226240,1.161701872695652,-0.12211138673913044,1.464825244347826,-5.097983826086956,-2.6032738730434786,4.174281452173913
376,1747666226250,1.4839880606557376,-0.04371225540983606,1.5675377762295082,-3.9816196,-2.615725,3.313333
377,1747666226260,1.4846002,-0.033679903,1.5658714,-3.9816196,-2.615725,3.313333
378,1747666226270,1.4846002,-0.033679903,1.5658714,-3.9816196,-2.615725,3.313333
379,1747666226280,1.478900283870968,-0.03067248767741935,1.5641315032258065,-3.9816196,-2.615725,3.313333
380,1747666226290,0.6276260913043478,0.5279489123130434,1.8693830278260872,-3.068184792173913,-3.3073678547826084,4.033830082608696
381,1747666226300,0.6930296006349206,0.6286352841269841,1.9238799563492064,-2.6201464666666667,-3.2377311714285715,4.718468595238095
382,1747666226310,0.8101962269747899,0.6514482365546219,1.845407049579832,-2.456468882352941,-2.859875939495798,5.048251981512605
383,1747666226320,1.25626639575,0.8458678120833334,1.4775082875,-2.513914,-0.8436049166666667,5.4432165999999995
384,1747666226330,1.3208905735999998,0.8939933903999999,1.4173829008,-2.5664353472,-0.42913041232,5.45499736
385,1747666226340,1.3675300076923078,1.0424144367521369,1.3168077282051283,-2.7485959735042735,0.11226867863247862,5.229351207692307
386,1747666226350,1.3901460739837397,1.178135794308943,1.2415767414634147,-2.8902915650406507,0.14493398845528452,4.93225019593496
387,1747666226360,1.44985087,1.4347038327272725,1.3153953572727273,-3.061123454545455,-0.7148567330909091,4.34206368
388,1747666226370,1.4909457,1.5783182,1.3955194,-3.1202996,-1.2394456,4.076304
389,1747666226380,1.4909457,1.5783182,1.3955194,-3.1202996,-1.2394456,4.076304
390,1747666226390,1.4909457,1.5783182,1.3955194,-3.1202996,-1.2394456,4.076304
391,1747666226400,1.4909457,1.5783182,1.3955194,-3.1202996,-1.2394456,4.076304
392,1747666226410,2.076424923140496,2.337314061983471,1.44625703553719,-2.117147894214876,-0.3879600129586777,2.1502507446280994
393,1747666226420,2.1345246,2.468395,1.4179726,-1.9761491,-0.059864793,1.5564847
394,1747666226430,2.1345246,2.468395,1.4179726,-1.9761491,-0.059864793,1.5564847
395,1747666226440,1.8366676378787878,2.6449002075757577,1.4579905803030302,-2.35956875,0.41335215333333336,0.3838269855
396,1747666226450,1.8366676378787878,2.6449002075757577,1.4579905803030302,-2.35956875,0.41335215333333336,0.3838269855
397,1747666226460,1.432799205,2.735369325,1.86070475,-1.8652159099999999,1.2927129885,-0.71196342285
398,1747666226470,1.3884769033898305,2.7345146338983053,1.886026916101695,-1.6269878135593219,1.3613028152542372,-0.8564123413559321
399,1747666226480,1.2160933296874998,2.67748515625,1.8539943015625,-0.998249276875,1.4281647531250001,-1.1348539703125
400,1747666226490,0.9909072714285714,2.4930100000000004,1.7572471428571428,-0.06540621357142858,1.4863224071428571,-1.4706144499999998
401,1747666226500,0.9667615422399999,2.4154795224,1.7632550599999999,0.20398011800000002,1.478782592,-1.5206390959999998
402,1747666226510,0.9639195067226891,2.284792042016807,1.7785722428571429,0.5823958449579832,1.4386338453781513,-1.5750416243697478
403,1747666226520,1.0325148910569104,2.0735240967479673,1.7937314601626018,1.0806007642276423,1.361151794308943,-1.668253118699187
404,1747666226530,1.1036616523809524,1.884296211111111,1.8211087206349206,1.6132078214285714,1.2661491357142856,-1.7957692714285713
405,1747666226540,1.1384470278688525,1.7532713295081965,1.8481054721311474,1.8527542,1.2119566,-1.8680259
406,1747666226550,1.1664323322580645,1.6182098774193547,1.8261268290322579,2.0550836096774194,1.1832409943548388,-1.930078004032258
407,1747666226560,1.1971008,1.4318839,1.7537954,2.2316790075,1.1584804149999999,-1.9849557225
408,1747666226570,1.2035422918032788,1.3562661704918033,1.7407723016393442,2.8845658032786887,1.1205070508196722,-2.3255039475409838
409,1747666226580,1.2083274,1.300093,1.7310980000000002,2.9749138,1.1215485,-2.393981
410,1747666226590,1.2083274,1.300093,1.7310980000000002,2.9749138,1.1215485,-2.393981
411,1747666226600,1.2083274,1.300093,1.731098,2.9749138,1.1215485,-2.393981
412,1747666226610,1.177038870588235,1.0277128063865546,1.7939499453781511,4.003195102521008,0.8267932327731093,-2.740777876470588
413,1747666226620,1.098226133064516,0.6248908806451613,1.8197892943548388,5.630389402419355,0.3360350120967742,-3.232457469354839
414,1747666226630,1.0206985783870968,0.5328143532258064,1.6311960483870969,6.099548487903226,0.1226459811048387,-3.2525125225806453
415,1747666226640,0.9855336663333334,0.48154733816666667,1.4842545233333335,6.339823991666666,-0.032610024683333336,-3.23549861
416,1747666226650,0.9846056487603305,0.4304907684297521,1.2413801305785124,6.5685126413223145,-0.22294562685950414,-3.210455247107438
417,1747666226660,1.0905699,0.4146532525,1.086909075,6.577102156896551,-0.2805872603448276,-3.272457798275862
418,1747666226670,1.1452948777777776,0.4069790104761905,1.0384171904761905,6.565987099999999,-0.30522899333333336,-3.3275866666666665
419,1747666226680,1.1772369439024388,0.41196467089430894,0.9154865788617886,6.493199458536585,-0.6891454219512194,-3.7505934195121955
420,1747666226690,1.139713096694215,0.42713649603305787,0.8236004366115703,6.386328631404958,-0.9130870424793388,-3.948410882644628
421,1747666226700,1.1123316219512196,0.43479891138211385,0.6829019321138212,6.151264232520325,-1.029908869105691,-4.127929191869919
422,1747666226710,1.1029836872881356,0.4373547449152542,0.5718116457627119,5.918901285593221,-0.9985886540677966,-4.242086158474577
423,1747666226720,1.063289712605042,0.42923106,0.4233142025210084,5.2278360084033615,-0.6485335500840336,-4.47235468487395
424,1747666226730,1.0214295213114755,0.41083234278688524,0.35584945688524594,4.8064578647540985,-0.39620119467213116,-4.578459930327869
425,1747666226740,0.9938154382352942,0.38740498176470584,0.35539042823529415,4.563810164705882,-0.2568714145378151,-4.616159842016806
426,1747666226750,0.9576922166666667,0.32977557539682545,0.3731248177777778,4.299895011111111,-0.185436386984127,-4.633150962698413
427,1747666226760,0.8937868394957983,0.24834567865546217,0.4453757826890756,4.154817764705882,-0.42814467,-4.715843817647058
428,1747666226770,0.7936761783471075,0.21285220942148758,0.5443081413223141,4.229207082644628,-1.0268140024793388,-4.878849415702479
429,1747666226780,0.76463133,0.21330604,0.5625519,4.276057,-1.1673635,-4.9119673
430,1747666226790,0.76463133,0.21330604,0.5625519,4.276057,-1.1673635,-4.9119673
431,1747666226800,0.76463133,0.21330604,0.5625519,4.276057,-1.1673635,-4.9119673
432,1747666226810,0.76463133,0.21330604,0.5625519,4.276057,-1.1673635,-4.9119673
433,1747666226820,0.587875894262295,0.029945023631147538,0.3310756509016394,4.2424040713114755,-1.2117413434426232,-5.13498826557377
434,1747666226830,0.46957591575999996,-0.09966712216000001,0.20955341687999998,4.108797104000001,-1.01943637896,-5.2198776976
435,1747666226840,0.3997970634188034,-0.14546020700854703,0.17175789743589742,3.978294,-0.8243965755555556,-5.125838222222222
436,1747666226850,0.35652663192,-0.20214189048,0.053401679295999996,3.7157466880000003,-0.49242091928,-4.926169008
437,1747666226860,0.34971526367521366,-0.22753228794871794,0.008441877145299145,3.5733841102564106,-0.3834093191452991,-4.828942023931623
438,1747666226870,0.3353346552,-0.2750329952,-0.03903939748,3.2904916280000003,-0.39773191232,-4.6528526208
439,1747666226880,0.32213193870967743,-0.30959842774193547,-0.049708950774193544,3.233822087096774,-0.4628190906451613,-4.584700983870968
440,1747666226890,0.2721280465517241,-0.4731891324137931,-0.04008009284482758,3.116539667241379,-0.6780182793103448,-4.34856022413793
441,1747666226900,0.2584777707086614,-0.6482179628346457,-0.06885488972440945,3.2261044094488187,-0.730623679527559,-4.140776625984252
442,1747666226910,0.26029424,-0.8066379094117647,-0.12945083352941178,3.298636352941177,-0.7137421294117647,-4.052012976470588
443,1747666226920,0.2227684195762712,-1.427492918644068,-0.42971861796610167,3.4535008067796613,-0.3754595043220339,-3.808977813559322
444,1747666226930,0.18841219,-1.5536685,-0.50593066,3.4825428,-0.17348573,-3.7189476
445,1747666226940,-0.05253886818181819,-1.8951771033057851,-0.7746861360330579,3.1806339,0.20346860363636365,-3.6386365719008267
446,1747666226950,-0.29252701200000003,-2.06618856,-0.9326697128000001,2.8179262439999997,0.27661443248,-3.580945872
447,1747666226960,-0.44418418000000004,-2.1423345,-1.0086887,2.5240953,0.29016098,-3.5338554
448,1747666226970,-0.5939520144715448,-2.243233342276423,-1.0146591333333335,1.8417885885365854,0.28305408471544713,-3.1621861479674798
449,1747666226980,-0.9857872327868852,-2.527832901639344,-0.9679830311475409,0.25873648786885245,0.38069921770491805,-2.128835375409836
450,1747666226990,-1.019770029752066,-2.552031958677686,-0.9118482785123967,-0.03205275123966942,0.49365988330578514,-1.7944494636363637
451,1747666227000,-1.1624588264462812,-2.5113995206611572,-0.6763572768595041,-0.5661054446280992,0.8248397413223141,-0.5457146958677686
452,1747666227010,-1.20045661,-2.4700667999999997,-0.61357213,-0.6222578510000001,0.8769581590000001,-0.1621541855
453,1747666227020,-1.2385905666666666,-2.3341634666666664,-0.5422952000000001,-0.5549338351219512,0.8598301048780487,0.7938566024390245
454,1747666227030,-1.2406875104000001,-2.28544376,-0.53294098552,-0.548557,0.8564331,0.8588765
455,1747666227040,-1.1667640681034483,-2.095075679310345,-0.5605405612931035,-0.5551290437068965,0.7717597706896552,1.7938058310344827
456,1747666227050,-1.069414806557377,-1.9777838557377048,-0.583496818032787,-0.78526725,0.7715228,2.5097398999999996
457,1747666227060,-0.7094826366949153,-1.640844513559322,-0.6626629966101695,-1.1376692237288135,0.8601500271186441,3.0895079576271187
458,1747666227070,-0.55474988968,-1.4858303064,-0.706436404,-1.5791843568,1.0806890432,3.3622316136
459,1747666227080,-0.35357695285714286,-1.2690163317460317,-0.731555788888889,-2.4390976285714285,1.5148585555555554,3.6418331
460,1747666227090,-0.20142857333333333,-1.0960610666666668,-0.7222467333333333,-3.2206851999999997,1.8967366333333333,3.8293106
461,1747666227100,-0.04429540032520325,-0.9537340130081301,-0.6545020536585365,-4.050438863414635,2.25938193902439,3.91099776097561
462,1747666227110,-0.00854410829310345,-0.912126075862069,-0.6193394612068965,-4.348575840517241,2.375333642241379,3.920090828448276
463,1747666227120,0.05816835744067796,-0.8015626381355931,-0.5147146142372881,-4.928098271186441,2.5544623627118646,3.9288367016949155
464,1747666227130,0.110557936,-0.6760386,-0.39464056,-5.4379225,2.6639833,3.9449677
465,1747666227140,0.110557936,-0.6760386,-0.39464056,-5.4379225,2.6639833,3.9449677
466,1747666227150,0.110557936,-0.6760386,-0.39464056,-5.4379225,2.6639833,3.9449677
467,1747666227160,0.110557936,-0.6760386,-0.3946405599999999,-5.437922500000001,2.6639833,3.9449677000000003
468,1747666227170,0.24673983996666668,-0.53626903525,-0.22799827531666667,-5.918449455833334,2.2665187533333335,3.967310075
469,1747666227180,0.47648902032520324,-0.31525647975609755,0.058036018113821135,-6.764071430894309,1.3382368796747968,3.955357375609756
470,1747666227190,0.4883818014285714,-0.29012596015873016,0.2146154234920635,-6.871623333333333,0.8387179733333332,3.8398989333333335
471,1747666227200,0.45160352800000003,-0.27007375,0.294625916,-6.862210566956521,0.6284528639999999,3.7980732313043477
472,1747666227210,0.36662536552631575,-0.21983135973684212,0.4286480268421053,-6.634414652631579,-0.009645242631578952,3.8014787105263155
473,1747666227220,0.3520146506722689,-0.19837752705882353,0.4914533682352941,-6.491931958823529,-0.25641453890756305,3.880683201680672
474,1747666227230,0.340948,-0.17376876,0.56426036,-6.3426137,-0.50885075,3.971235
475,1747666227240,0.3409479999999999,-0.17376875999999997,0.56426036,-6.239550439823009,-0.6478199053097345,4.024207362831858
476,1747666227250,0.39405602217741936,-0.1416181427419355,0.6619029103225806,-6.0585613,-0.8918633,4.117232
477,1747666227260,0.39537275,-0.14082102,0.6643238,-6.0585613,-0.8918633,4.117232
478,1747666227270,0.39537275,-0.14082102,0.6643238000000001,-6.0585613,-0.8918633,4.117232
479,1747666227280,0.39537275,-0.14082102,0.6643238,-6.0585613,-0.8918633,4.117232
480,1747666227290,0.39537275,-0.14082102,0.6643238,-6.0585613,-0.8918633,4.117232
481,1747666227300,0.39537275,-0.14082102,0.6643238,-6.0585613,-0.8918633,4.117232
482,1747666227310,0.39537275,-0.14082102,0.6643238,-6.0585613,-0.8918633,4.117232
483,1747666227320,0.39537275,-0.14082102,0.6643238,-6.0585613,-0.8918633,4.117232
484,1747666227330,0.39537275,-0.14082102,0.6643238,-6.0585613,-0.8918633,4.117232
485,1747666227340,0.39537275,-0.14082102,0.6643238000000001,-6.0585613,-0.8918633,4.117232
486,1747666227350,0.39537275,-0.14082102,0.6643238000000001,-6.0585613,-0.8918633,4.117232
487,1747666227360,0.39537275,-0.14082102,0.6643238,-6.0585613,-0.8918633,4.117232
488,1747666227370,0.39537275,-0.14082102,0.6643238,-6.0585613,-0.8918633,4.117232
489,1747666227380,0.39537275,-0.14082102,0.6643238,-6.0585613,-0.8918633,4.117232
490,1747666227390,0.39537275,-0.14082102,0.6643238,-6.0585613,-0.8918633,4.117232
491,1747666227400,0.4517703075,-0.12470510797333333,0.6672240233333333,-5.896122100833334,-0.9776491366666668,4.139284228333333
492,1747666227410,0.9220336823076923,0.24387785515384613,0.8396257717948717,-5.239756763247863,-1.0641794626495726,4.7184640581196575
493,1747666227420,1.841395844262295,0.7300872721311475,1.8155658155737706,-4.590882712295083,-0.15609609429508195,4.410952931147541
494,1747666227430,1.9881735682926829,0.8024006902439025,1.8972236731707317,-4.0911682,-0.053756141333333333,3.6537887
495,1747666227440,1.6923864916666667,1.0790442441666666,1.8288815541666668,-3.416233465,-0.3093727105,2.68918154
496,1747666227450,1.524508452,1.150056304,1.82391794,-3.1379415024,-0.44691388912,2.4162750872000003
497,1747666227460,1.431541333333333,1.1826457719298247,1.8469139649122808,-2.9765641456140353,-0.47540855122807013,2.3437452877192984
498,1747666227470,1.38112,1.2010058,1.875824,-2.8539624,-0.46670106,2.3176227
499,1747666227480,1.4957642900826447,1.286020276033058,1.850752661983471,-2.797157008264463,0.10076752710743801,2.1882000619834714
500,1747666227490,1.6659872371900828,1.3621702727272726,1.8212742165289257,-2.9181688462809916,0.540595552231405,2.035145529752066
501,1747666227500,1.7826929214285714,1.5388157738095236,2.0394818380952384,-3.2684781349206347,1.8010149642857143,1.424581411904762
502,1747666227510,1.7385387675213675,1.7660482632478633,2.492018444444444,-3.2345367384615384,2.4869576905982904,0.8594090529914529
503,1747666227520,1.7087064024390244,1.8238278780487804,2.6540193821138214,-2.836624804065041,2.590167948780488,0.479171617804878
504,1747666227530,1.5595892007874015,1.830000859055118,2.839312066929134,-1.4375342519685042,2.4274004724409446,-0.31659174094488185
505,1747666227540,1.3763695936,1.8514594008,2.853927448,-0.3254201344,2.17697704,-0.626259036
506,1747666227550,1.3447554,1.8560555,2.851565,-0.16249016,2.13925,-0.6658431
507,1747666227560,1.3447554,1.8560555,2.8515649999999995,-0.16249016,2.13925,-0.6658431
508,1747666227570,1.3447554,1.8560555,2.8515649999999995,-0.16249016,2.13925,-0.6658431
509,1747666227580,1.3447554,1.8560555,2.851565,-0.16249016,2.13925,-0.6658431000000001
510,1747666227590,1.3447554,1.8560555,2.851565,-0.16249016,2.13925,-0.6658431000000001
511,1747666227600,1.3447554,1.8560555,2.851565,-0.16249016,2.13925,-0.6658431
512,1747666227610,1.3447554,1.8560555,2.851565,-0.16249016,2.13925,-0.6658431
513,1747666227620,1.3447554,1.8560555,2.851565,-0.16249016,2.13925,-0.6658431
514,1747666227630,1.3447554,1.8560555,2.851565,-0.16249016,2.13925,-0.6658431
515,1747666227640,1.3447554,1.8560555,2.851565,-0.16249016,2.13925,-0.6658431
516,1747666227650,1.3447554,1.8560555,2.851565,-0.16249016,2.13925,-0.6658431
517,1747666227660,1.3447554,1.8560555,2.851565,-0.16249016,2.13925,-0.6658431
518,1747666227670,1.3447554,1.8560555000000003,2.851565,-0.16249016,2.13925,-0.6658431
519,1747666227680,1.1787293716666667,1.4565540215833332,2.2439945125,2.6401188903333335,1.0868310630583333,-1.6126587923333333
520,1747666227690,1.2102994016,0.7427091182400001,1.8116935312,5.9666532432,-0.2841158552,-3.2787140495999996
521,1747666227700,1.1609280333333334,0.7002060023809524,1.848472173809524,6.157124088888889,-0.44255731873015874,-3.3734790285714285
522,1747666227710,1.117884068503937,0.6164540038582678,1.8079588771653545,6.535387402362204,-0.6873677018110237,-3.406170128346457
523,1747666227720,1.138509989473684,0.5394307526315789,1.688910456140351,6.87951076491228,-0.8839755880701755,-3.3923810719298246
524,1747666227730,1.2654717214285713,0.48203629166666667,1.4666969214285712,7.007467680952382,-0.9795951371428572,-3.4650020928571426
525,1747666227740,1.3745366435897435,0.46487898042735043,1.2644021222222224,6.94138705982906,-0.9306140207692307,-3.660732739316239
526,1747666227750,1.373766443089431,0.4293740700813008,0.9692664170731707,6.3974725634146345,-0.6797291687804878,-4.210783775609756
527,1747666227760,1.3592632333333332,0.4154758155555555,0.9104872125925927,6.256674187962964,-0.6249943736111111,-4.332726
528,1747666227770,1.2682198870967742,0.357217144516129,0.8769960867741936,5.950999956451613,-0.5507541250000001,-4.534610391935484
529,1747666227780,1.155756059375,0.29259796234375,0.90255802578125,5.7410546265625,-0.54923466015625,-4.6784928921875
530,1747666227790,1.0055057831404959,0.21455859471074382,0.8475523112396695,5.717491652066116,-0.5812609933884298,-4.7143953958677685
531,1747666227800,0.9151269403125,0.150659590546875,0.7387307840625,5.7428491578125005,-0.7552585281249999,-4.7165859265625
532,1747666227810,0.8514328641509434,0.1034019937735849,0.6321635358490566,5.685922313207548,-0.904161237735849,-4.688021981132076
533,1747666227820,0.7370608064516129,0.05481840677419355,0.5093159967741936,5.5974766387096775,-1.0057797677419356,-4.657512541935484
534,1747666227830,0.644994131092437,0.027853289243697482,0.41294282100840335,5.3846437327731085,-1.1645401781512605,-4.56729036302521
535,1747666227840,0.6087044072580645,0.015578331862903227,0.3455397860483871,5.165910122580645,-1.231849177419355,-4.479001775806451
536,1747666227850,0.5945235,0.008542004,0.30970863,5.0805664,-1.2156218,-4.4501534
537,1747666227860,0.5945235,0.008542004,0.30970863,5.0805664,-1.2156218,-4.4501534
538,1747666227870,0.5945235,0.008542004,0.30970863,5.0805664,-1.2156218,-4.4501534
539,1747666227880,0.5945235,0.008542004,0.30970863,5.0805664,-1.2156218,-4.4501534
540,1747666227890,0.5804120951,-0.012071071280000002,0.28191051458,4.927825663,-1.1267775893,-4.4496157610000004
541,1747666227900,0.4021548459375,-0.241401208671875,0.09135558704687499,3.1043170351562503,0.163497128359375,-4.534419171874999
542,1747666227910,0.23516319699115043,-0.34920055380530973,0.21969688486725664,2.885019279646018,0.3517070275221239,-4.2987560663716815
543,1747666227920,0.14957223142857143,-0.37968334,0.26054855571428576,2.8658598166666667,0.34734961976190476,-4.121798604761905
544,1747666227930,0.11836776,-0.40513504,0.29140437,2.945414934677419,0.273697167016129,-4.014079125806451
545,1747666227940,0.0749377734,-0.4755699465,0.277383264,3.2795267183333334,0.04396193515,-3.7121618908333334
546,1747666227950,0.065407336,-0.50885934,0.25845662,3.702759625,-0.31673364800000003,-3.3049719625000002
547,1747666227960,0.065407336,-0.50885934,0.25845662,3.9144244,-0.5155703,-3.0946434
548,1747666227970,0.065407336,-0.50885934,0.25845662,3.9144244,-0.5155703,-3.0946434
549,1747666227980,0.065407336,-0.50885934,0.25845662,3.9144244,-0.5155703,-3.0946434
550,1747666227990,0.065407336,-0.50885934,0.25845662,3.9144244,-0.5155703,-3.0946434
551,1747666228000,0.065407336,-0.50885934,0.25845662,3.9144244,-0.5155703,-3.0946434
552,1747666228010,0.065407336,-0.50885934,0.25845662,3.9144244,-0.5155703,-3.0946434
553,1747666228020,0.06540733599999998,-0.50885934,0.25845662,3.9144244,-0.5155703,-3.0946434
554,1747666228030,0.065407336,-0.50885934,0.25845662,3.9144244,-0.5155703,-3.0946434
555,1747666228040,0.065407336,-0.50885934,0.25845662,3.9144244,-0.5155703,-3.0946434
556,1747666228050,0.065407336,-0.50885934,0.25845662,3.9144244,-0.5155703,-3.0946434
557,1747666228060,0.065407336,-0.50885934,0.25845662,3.9144243999999997,-0.5155703,-3.0946433999999994
558,1747666228070,0.065407336,-0.50885934,0.25845662,3.9144244,-0.5155703,-3.0946434
559,1747666228080,0.065407336,-0.50885934,0.25845662,3.9144244,-0.5155703,-3.0946434
560,1747666228090,0.065407336,-0.50885934,0.25845662,3.9144244,-0.5155703,-3.0946434
561,1747666228100,0.065407336,-0.50885934,0.25845662,3.9144244,-0.5155703,-3.0946434
562,1747666228110,0.065407336,-0.50885934,0.25845662,3.9144244,-0.5155703,-3.0946434
563,1747666228120,-0.25435085759292037,-1.2369468961061947,-0.4963606132743362,3.0127116719469025,-0.22616610654867259,-2.326310021238938
564,1747666228130,-0.7599239761016948,-1.499241659322034,-0.9065010161016949,-2.3887678432203394,0.47648005381355935,2.6529204406779665
565,1747666228140,-0.6309825414414414,-1.3991758756756756,-0.8974446711711712,-2.556471,0.5143485,2.7989845
566,1747666228150,-0.2800425516923077,-1.13081867,-0.8708394261538462,-3.602695259230769,0.9129850983076923,3.12926063
567,1747666228160,-0.1465563767307692,-0.9745440923076922,-0.8097585076923077,-4.291316513461538,1.179980223076923,3.201756205769231
568,1747666228170,-0.1044565,-0.9232686,-0.7824476,-4.5136833,1.2626585,3.2174273
569,1747666228180,0.010616490027586207,-0.7898113362068966,-0.6539514063793104,-5.25254571637931,1.4915591284482759,3.2134513129310345
570,1747666228190,0.14403400395604396,-0.5722391483516484,-0.3051922640659341,-6.098945765934065,1.6199139923076924,3.1556896285714284
571,1747666228200,0.1524927112605042,-0.5249076680672269,-0.22151375016806724,-6.156269139495798,1.5479223210084034,3.1543541798319326
572,1747666228210,0.16727045757009346,-0.3813588246728972,0.016306217102803736,-6.125231590654206,1.1294784626168224,3.2118037644859814
573,1747666228220,0.16962407771929824,-0.30025462421052634,0.14377968508771927,-5.974969515789473,0.8390395210526316,3.2921134631578948
574,1747666228230,0.16749529868852459,-0.19084475901639344,0.3217194552459016,-5.52906648852459,0.10015686762295084,3.522008599180328
575,1747666228240,0.16205402,-0.15131549999999996,0.39805737,-5.2888713,-0.21868975,3.6407568
576,1747666228250,0.16583787183999998,-0.090939637152,0.51077664656,-4.934061198399999,-0.5720288704,3.80027084
577,1747666228260,0.2851527341025641,0.04037166078632479,0.5105323145299145,-4.170470947863248,-1.1306906923076923,4.110773205128205
578,1747666228270,0.4445492804132231,0.16809291973553722,0.44891001553719007,-3.4132675545454543,-1.421039123966942,4.409846319008265
579,1747666228280,0.58469446296875,0.226155269453125,0.33274918249999996,-3.2214837140625003,-1.285642265625,4.49106195
580,1747666228290,0.7549503979674796,0.2756914172357724,0.17969756747967477,-3.463153943089431,-1.0143491858536586,4.382019317073171
581,1747666228300,0.7969661360305343,0.28779939114503816,0.10493157610687023,-4.442067495419847,-0.1778457186259542,3.9631909732824426
582,1747666228310,0.7460118006666666,0.2762280738333333,0.12950490858333333,-4.939649757499999,0.2500067868333333,3.772209955
583,1747666228320,0.6437981711864407,0.2610606025423729,0.20738040118644066,-5.282022148305085,0.5383431312711865,3.64681895
584,1747666228330,0.51398072890625,0.2501091090625,0.317369750625,-5.5029793,0.689499853203125,3.5610103070312498
585,1747666228340,0.364123648,0.25062726760000004,0.5002002284,-5.552520759999999,0.5451117184,3.54626824
586,1747666228350,0.3752632095238095,0.3043626303174603,0.6860798223809524,-5.318289717460318,-0.1609484304761905,3.7350724063492065
587,1747666228360,0.5924271678571429,0.3661752125,0.8066920019642857,-5.0034444,-1.036180175,3.991851725
588,1747666228370,0.6369894,0.3704789,0.81246656,-4.954530893548387,-1.1783196645161291,4.0310998935483875
589,1747666228380,0.951059792,0.38773472376,0.78732477776,-4.892419948,-1.552501856,4.0525533000000005
590,1747666228390,1.0648217,0.40123013,0.7770783,-4.905859,-1.5882497,4.0262127
591,1747666228400,1.0552838701612903,0.4729869037903226,0.8425367437096773,-4.9722413306451605,-1.4424647030645161,3.905315711290323
592,1747666228410,0.8752094355371901,0.5063986157024793,0.9808438634710743,-5.085972938016528,-0.5963811800000001,3.6021209206611573
593,1747666228420,0.7606843758620689,0.5172414931034484,1.0771507793103448,-4.832449584482759,0.0516444450862069,3.7385059000000003
594,1747666228430,0.8077199933858268,0.5341471637795275,1.0711941212598426,-4.747577188976377,0.16761757519685042,3.7983215007874014
595,1747666228440,0.9052268212605042,0.5475578067226891,1.0360435411764706,-4.73921560420168,0.17665298815126051,3.802405010924369
596,1747666228450,1.20111443984375,0.5835847479687499,0.9193656109375,-4.7783312359375,0.16043325187500002,3.61871330078125
597,1747666228460,1.3970930379310345,0.7024724579310345,0.8432514448275861,-5.195914551724138,-0.21824741379310345,2.949299551724138
598,1747666228470,1.3775390068965518,0.7361208277586208,0.8893340827586207,-5.566404264655173,-0.522974385,2.422243917241379
599,1747666228480,1.2028026919354837,0.7552882619354838,1.1391194806451612,-5.949669817741936,-0.9678470783870968,1.813294320967742
600,1747666228490,1.1256123833333331,0.7564553916666666,1.252583125,-6.008623208333333,-1.1121311666666667,1.680693875
601,1747666228500,0.8780695545454545,0.7760133090909092,1.640587032231405,-5.797292969421488,-1.4548285909090908,1.6684496528925619
602,1747666228510,0.6379657,0.835652,2.0137165,-4.7342057,-1.7330247,2.225382
603,1747666228520,0.6604189201709402,0.961174694017094,1.9232796555555556,-3.7561164153846156,-1.4883496692307694,2.969415853846154
604,1747666228530,0.8428245633333332,1.0509919666666667,1.7825942277777778,-3.3372829222222222,-1.2808777841269843,3.3594776158730157
605,1747666228540,1.4606349406504064,1.2120696170731708,1.5394931918699186,-3.315806156097561,-0.7451215317073171,3.250637490243902
606,1747666228550,1.6908671958333334,1.3554247833333333,1.5281602958333333,-3.58382408,-0.413067092,2.58860258
607,1747666228560,1.9077692396694215,1.5350111694214874,1.5534868446280992,-4.0159593487603304,0.10663889685950415,1.493525138842975
608,1747666228570,1.7700968888888888,1.6340368492063493,1.7455129936507936,-4.293161,0.45875978,0.62125
609,1747666228580,1.4263729354838708,1.6898346612903223,2.2281539177419356,-3.998319844354839,0.4548581394354838,-0.1315084503951613
610,1747666228590,1.0865428,1.7152344,2.7895741,-3.2766812,0.18448131,-0.43127087
611,1747666228600,1.0690533046153847,1.7191918692307693,2.8396810246153845,-2.66990876,0.163589718,-0.35888333599999994
612,1747666228610,1.0428186222222222,1.7976605755555555,2.8429904044444445,-0.555724496,0.20533216799999998,-0.17071647666666667
613,1747666228620,1.0428186222222222,1.7976605755555555,2.8429904044444445,-0.555724496,0.20533216799999998,-0.17071647666666667
614,1747666228630,1.0071429152173912,1.8999856101449275,2.3459455130434783,0.6417892007246376,0.7102946140579711,-0.801313538405797
615,1747666228640,1.0071429152173912,1.8999856101449275,2.3459455130434783,0.6417892007246376,0.7102946140579711,-0.801313538405797
616,1747666228650,0.9701275588888889,1.8783458666666666,2.3421361444444444,0.899608426419753,0.9099930999999999,-1.0315402395061728
617,1747666228660,0.9156584272727273,1.695421309090909,2.419228618181818,1.076066894710744,0.9661969479338843,-1.0807215933884295
618,1747666228670,0.91253006,1.6417731,2.4190955,2.044566,1.1753048,-1.2370021
619,1747666228680,0.95678063140625,1.5333963875,2.3354945046875,2.60439540234375,1.166389921875,-1.32435589921875
620,1747666228690,1.0224748373170731,1.423597812195122,2.257535497560976,2.969336600813008,1.1417717040650408,-1.3869721056910571
621,1747666228700,1.1455483923076923,1.2993608153846155,2.2289560769230765,3.707322429230769,0.8278069381538461,-1.6714776984615383
622,1747666228710,1.2553235454545455,1.1839297991735538,2.234806060330578,4.213677822314049,0.5050896198347107,-1.9588479297520662
623,1747666228720,1.2828616636363637,1.043879214876033,2.254574612396694,4.817828557851239,0.15544248842975206,-2.3082225
624,1747666228730,1.3018249306451612,0.9340385322580645,2.1882133758064515,5.261357798387097,0.04643068374999999,-2.513119383064516
625,1747666228740,1.3459008031496065,0.8029041551181102,1.8924507929133858,5.67422637952756,0.31367689700787404,-2.8079889094488184
626,1747666228750,1.3767153214285714,0.7478785873015873,1.6798984,5.735564193650794,0.5555625394444444,-2.9709237817460314
627,1747666228760,1.4043291867256638,0.7261264609734513,1.520351388495575,5.635475115929204,0.8973664541592921,-3.154389218584071
628,1747666228770,1.4170292352941178,0.7079895694117647,1.3846905739495798,5.44267065882353,1.2396714394957982,-3.3489070949579833
629,1747666228780,1.3334579838709677,0.6710531493548387,1.363852904032258,5.269540403225807,1.4236707193548386,-3.5320327806451615
630,1747666228790,1.1172941,0.55523026,1.5058333,5.349958,1.246776,-3.6432004
631,1747666228800,1.0879206419354839,0.526573210967742,1.5260978677419355,5.561672161290322,1.0755957832258065,-3.5986465806451613
632,1747666228810,1.0488395114285713,0.458011788,1.5171923257142856,5.97600780952381,0.7787950271428571,-3.505639285714286
633,1747666228820,1.0501783,0.43368974,1.4860646,6.2335772056000005,0.61874786904,-3.4469708848
634,1747666228830,1.2235441619047618,0.46063289079365083,0.9719366952380952,6.5625688690476185,0.46604654880952373,-3.3828844404761904
635,1747666228840,1.353249787804878,0.47235196268292684,0.624602036585366,6.235454130081301,0.6307605747967479,-3.46195713902439
636,1747666228850,1.40625969140625,0.427933389140625,0.47819015000000004,5.858808499999999,0.8194948125,-3.600611515625
637,1747666228860,1.3325323479338842,0.36563809074380166,0.4441216608264463,5.149790700826446,0.9225377980165289,-4.185401181818182
638,1747666228870,1.2191693762711866,0.35759764000000005,0.4631006813559322,4.940952304237287,0.8052187845762713,-4.490656711864407
639,1747666228880,1.0034154826771653,0.33768875503937007,0.4710381469291338,4.853050190551181,0.5511543937007873,-4.751930417322835
640,1747666228890,0.8118957305084746,0.3047033971186441,0.47029415694915255,4.819116,0.376293,-4.874094
641,1747666228900,0.6540734428571428,0.22962298857142857,0.4032871714285714,4.823586155555556,0.06699640552380952,-4.890281722222222
642,1747666228910,0.6070503418103448,0.18480393310344828,0.3490460525862069,4.825777734482759,-0.08192440179310345,-4.868122059482759
643,1747666228920,0.592575006557377,0.10932564393442623,0.3245081170491803,4.777577,-0.24556783,-4.8502703
644,1747666228930,0.556596948,0.07756139199999999,0.340215792,4.8025493152,-0.5371509018399999,-4.8726718744
645,1747666228940,0.4119823812096774,-0.009781972491935484,0.2982044808870968,4.966447585483872,-1.1665112383870968,-4.846255200806451
646,1747666228950,0.37666612625,-0.0353959277890625,0.239187535,4.97303486875,-1.2832370234375,-4.778226275
647,1747666228960,0.3712069470338983,-0.04750222656779661,0.16330946076271188,4.913826139830508,-1.3202506491525423,-4.669200301694914
648,1747666228970,0.38809065786324787,-0.0520488558974359,0.09229953188034189,4.674748133333333,-1.2282463666666668,-4.460130833333333
649,1747666228980,0.48422335540322575,-0.07559082838709677,-0.023059474741935482,4.401422035483871,-1.0834778419354838,-4.358385774193549
650,1747666228990,0.53304338575,-0.10001669458333333,-0.09713681865,4.1382862825,-0.9628457656666666,-4.383737162499999
651,1747666229000,0.5281001411627907,-0.16322889209302324,-0.1448394665116279,3.3285620674418603,-0.7027649334883722,-4.525645058139535
652,1747666229010,0.47514240982142864,-0.2018571351785714,-0.06123222285714285,3.166725389285714,-0.7826710791071428,-4.487481548214285
653,1747666229020,0.3640446681818182,-0.2725231972727272,0.0626561490909091,2.918168926446281,-0.9054638280165289,-4.348270023140495
654,1747666229030,0.29229076512,-0.33514918,0.029175577416,2.8156393048,-0.8250785564,-4.0197475136
655,1747666229040,0.29435103278688524,-0.4334076732786885,0.0094962268852459,2.7635544172131152,-0.6887405295901639,-3.8266401827868854
656,1747666229050,0.27793664484126984,-0.6057113465079366,0.009996662261904762,2.7378495301587304,-0.41176194349206346,-3.5212212380952383
657,1747666229060,0.26797485,-0.6535853,0.012935034,2.7433958,-0.3213151,-3.4318410000000004
658,1747666229070,0.21879100887931036,-0.8843498396551724,-0.058527453017241375,3.0237776672413794,0.16540229422413794,-3.2033984724137934
659,1747666229080,0.11905345047619048,-1.488830519047619,-0.41281701809523813,3.266267390476191,0.40446067698412697,-3.1568935285714286
660,1747666229090,-0.16481999333333333,-1.7592459666666664,-0.7771596,3.2482759675,0.30192016075,-3.2199929375000003
661,1747666229100,-0.5014536270491803,-1.9768076655737707,-1.1314974032786884,2.780929007377049,0.06989400402459017,-3.2043536918032784
662,1747666229110,-0.6381012222222222,-2.068629266666667,-1.2490849888888889,2.1680965555555556,-0.06543045577777777,-3.064371544444444
663,1747666229120,-0.8501765743589743,-2.2158395743589745,-1.3650309307692308,1.4337008,-0.04398229733333333,-2.7513371666666666
664,1747666229130,-0.996823228125,-2.29204649921875,-1.3651914046875,0.73321012296875,0.0383890622890625,-2.35288112109375
665,1747666229140,-1.168612213559322,-2.3310858983050844,-1.2117566457627118,-0.4094557159322034,0.34409315559322035,-1.3058020762711864
666,1747666229150,-1.2200863692913386,-2.3098347842519686,-1.045598818897638,-0.8658894744094487,0.5199040267716536,-0.5987874275590551
667,1747666229160,-1.215194725862069,-2.281358915517241,-0.9748361586206897,-0.9750041732758621,0.5617958948275862,-0.3017674322198276
668,1747666229170,-1.20427613,-2.24405769,-0.9088692500000001,-1.0791546300000001,0.595776854,0.059681531725
669,1747666229180,-1.1787965,-2.1513648,-0.8188121,-1.1594223,0.5919284,0.59131753
670,1747666229190,-1.0430966183471073,-1.936094038016529,-0.7574709932231406,-1.2559490851239667,0.5482086363636364,1.4349274757851238
671,1747666229200,-0.821648195967742,-1.6562905298387096,-0.7710674166129032,-1.559317295967742,0.6934847561290323,2.214460524193549
672,1747666229210,-0.6640449285714286,-1.381991585714286,-0.7939879628571429,-1.968002411764706,0.9391514092436974,2.625955794957983
673,1747666229220,-0.6469958,-1.347196,-0.79611474,-2.013647146788991,0.9637548082568806,2.657818739449541
674,1747666229230,-0.45468256944,-1.210773884,-0.7079612895999999,-2.9841745040000003,1.280080368,3.127043628
675,1747666229240,-0.3521150902439024,-1.027391719512195,-0.5799336146341463,-3.3860707512195125,1.1952398390243903,3.3407773170731705
676,1747666229250,-0.222775462,-0.8524431000000001,-0.441890046,-3.6901148,0.9459321726400001,3.558949808
677,1747666229260,-0.14676714727272727,-0.751208190909091,-0.34594007727272724,-4.011774411570248,0.6059581100826447,3.8529239173553718
678,1747666229270,-0.12359058680000001,-0.704163718,-0.30288480879999996,-4.078454160000001,0.5234870712,3.95132072
679,1747666229280,-0.06562815647619048,-0.6173214777777778,-0.22625267666666665,-4.235899461904762,0.3121521507142857,4.231259738095238
680,1747666229290,0.021582796533333334,-0.516693599,-0.12634843283333333,-4.3719624999999995,0.1487456875,4.48955405
681,1747666229300,0.098993527168,-0.48960228464,-0.088711879264,-4.4983872544,0.08880025592,4.6652023608
682,1747666229310,0.28638606297520663,-0.4673413991735537,-0.006970759338842977,-4.782963781818181,0.04773836175206612,4.965274246280991
683,1747666229320,0.37005178596774196,-0.44667002354838714,0.14193504307258065,-4.9395646048387105,0.03575532264516129,5.051658320967742
684,1747666229330,0.38236082637795277,-0.3545459878740158,0.46594758881889764,-4.911837661417323,-0.08853217034645669,5.122706120472441
685,1747666229340,0.3934161838655462,-0.26774925672268907,0.6334269857983194,-4.405329156302521,-0.42902248381512603,5.370603831932773
686,1747666229350,0.42779299483870964,-0.21357371451612903,0.6995861480645161,-3.8894971693548386,-0.693982321451613,5.611043393548387
687,1747666229360,0.5505472227350428,-0.1432928904273504,0.7334566952136752,-3.3939516846153843,-0.8729421,5.801261835897436
688,1747666229370,0.6718415596721311,-0.08361161136065574,0.6680126786885247,-2.875868416393443,-1.0726293131147542,5.881595901639344
689,1747666229380,0.8041071165354331,-0.008486276417322833,0.5377464937007875,-2.5911652102362206,-1.2030822622047246,5.863022220472441
690,1747666229390,0.87983588671875,0.047278463398437505,0.32558952265625,-2.7665609109375002,-1.1705323421875,5.738411140625
691,1747666229400,0.8975527287999999,0.06703959728,0.13494608384,-3.2098232016000003,-0.9794857576,5.69963172
692,1747666229410,0.9808201488034188,0.02294346805982906,0.09755406188034188,-4.639573811965812,-0.17475966632478634,5.763602230769231
693,1747666229420,1.0566851589830508,0.007532682381355931,0.22054086966101694,-5.246400762711865,0.22051717296610168,5.751052983050848
694,1747666229430,1.0918364713178295,0.01090311509379845,0.3333727265891473,-5.495926297674419,0.3672436596124031,5.718527409302326
695,1747666229440,1.154020803174603,0.034534099325396826,0.6363018349206349,-5.965331853968254,0.537755342857143,5.541294663492064
696,1747666229450,1.3368207372093022,-0.005111959325581394,0.8415926387596899,-6.230711711627906,0.3630433679069768,5.1819745116279075
697,1747666229460,1.4318878426229509,-0.0635669097704918,0.9263533114754099,-6.43577075,0.13775011,4.8365255
698,1747666229470,1.477084013821138,-0.1170065975609756,0.978494981300813,-6.585420414634147,-0.06288435463414635,4.558668894308943
699,1747666229480,1.451623657480315,-0.1513097240944882,1.0818308212598426,-6.792931948031496,-0.2996798968503937,4.161295927559055
700,1747666229490,1.4350118616666665,-0.06724590433333334,1.312072105,-6.72806968,-0.32693507,4.0358647
701,1747666229500,1.5177921,0.15375607,1.8636211,-6.2760296,-0.28588495,3.9718459
702,1747666229510,1.5318304008264463,0.22096459578512395,1.9724766983471074,-6.039458163636364,-0.33419883181818183,3.978176690909091
703,1747666229520,1.549562404,0.6819057252,2.555386804,-4.28475536,-0.7986696616000001,4.070341888000001
704,1747666229530,1.569656170967742,1.0966869548387097,2.7026426467741933,-2.6582884612903226,-1.323863248387097,4.240173258064517
705,1747666229540,1.8178484524590164,1.403067050819672,2.4010251795081965,-1.289992181147541,-1.4640137,4.355344086885246
706,1747666229550,2.13635137421875,1.76442136015625,1.9352518710937499,-0.5442666176562501,-1.213684264765625,4.280886496875
707,1747666229560,2.23480067983871,1.9347539491935484,1.736419918548387,-0.42149702,-0.98532563,4.1563272
708,1747666229570,2.33324536557377,2.610300181147541,1.158619731967213,-1.0527010604918032,-0.26119996204918033,3.0626179016393444
709,1747666229580,2.2736373809523807,2.7587997738095242,1.0182358476190476,-1.7374025333333334,0.11158471166666667,2.1927008666666663
710,1747666229590,2.1465160366666667,2.821777701666667,0.9821839616666667,-2.1292929875,0.36108243075,1.6821244349999998
711,1747666229600,2.007264025,2.8499480187499997,0.99161981875,-2.4326276609375,0.625755074375,1.259575550234375
712,1747666229610,1.6345754220338984,2.9135181423728813,1.139288220338983,-2.9388726,1.5436565,0.12950343
713,1747666229620,1.3840906573770493,2.9619367590163934,1.3279555581967213,-2.8142561,1.55159775,0.018325954999999998
714,1747666229630,1.3057968096774193,2.977537848387097,1.4527744032258065,-2.680476622580645,1.5558738080645163,-0.09683199645161292
715,1747666229640,1.2226482355932204,2.9197188745762714,1.7782921033898305,-1.7137048305084746,1.1297797355932202,-0.4582938769491526
716,1747666229650,1.1313561024390244,2.784649427642276,1.8604445016260163,-0.3011218292682927,0.4697553646341463,-0.7820962081300814
717,1747666229660,1.1046671114754099,2.693707770491803,1.8171662163934426,0.634448650819672,0.06719517295081967,-0.9795474360655738
718,1747666229670,1.1235857949152543,2.5876604338983054,1.6937613440677968,1.219856445762712,-0.12747411949152543,-1.136375033898305
719,1747666229680,1.1436522,2.5389276,1.6246891,1.4416419,-0.18203785,-1.215011
720,1747666229690,1.2298045,2.438376,1.4999758,1.7531832,-0.18325958,-1.4349225
721,1747666229700,1.3699747,2.117359333333333,1.5237307333333334,2.0823285954545456,0.0008885306363636377,-2.065140977272727
722,1747666229710,1.3776951409836065,2.0096473983606558,1.5814429098360656,2.2784072327868854,0.10387712921311475,-2.237999981967213
723,1747666229720,1.390756235483871,1.8556066008064516,1.6364037927419355,2.3835962,0.15699236,-2.3109033
724,1747666229730,1.4147422173228346,1.669616788976378,1.6630330188976377,2.9670590031496062,0.42678796582677164,-2.558611483464567
725,1747666229740,1.4146570715447153,1.5355585983739837,1.631897724390244,3.4098200032520327,0.5114183487804878,-2.7346053544715447
726,1747666229750,1.393118446511628,1.3765453581395348,1.4949925139534883,4.107372524031008,0.5978807827906977,-3.0418248643410855
727,1747666229760,1.3898010785123966,1.339727079338843,1.4017397661157025,4.2405154049586775,0.6259298705785125,-3.166685068595042
728,1747666229770,1.3769188683760685,1.2460269487179487,1.2365691991452992,4.27587412051282,0.6507959865811965,-3.40617931965812
729,1747666229780,1.3240106,1.0941086,1.1373067,4.217038252755905,0.5856177277952755,-3.7143780488188978
730,1747666229790,1.3203216371681417,1.0823765752212389,1.1407537477876106,4.2174134,0.5784893599999998,-3.7244453000000006
731,1747666229800,1.30891149,1.040204495,1.1482039066666667,4.246592448333334,0.5445965251666666,-3.748538879166667
732,1747666229810,1.3091058212389381,0.9166897920353982,1.0448998548672568,4.552189525663716,0.2828414244247788,-4.042452126548673
733,1747666229820,1.295369280645161,0.8131436419354838,0.900831064516129,4.627225483870967,0.25317409032258065,-4.273416003225806
734,1747666229830,1.2697702606299213,0.7818172312598425,0.8375314653543308,4.562201435433071,0.26961764637795277,-4.3870511574803155
735,1747666229840,1.209703009090909,0.7506111861157025,0.7776975396694216,4.411890908264463,0.3141765789256198,-4.5054490826446285
736,1747666229850,1.0726316677419356,0.6912016329032258,0.7308884677419354,4.1545093241935485,0.49929366975806455,-4.5752428104838705
737,1747666229860,1.0227813082568809,0.6389575509174311,0.7170200256880733,4.055248681651376,0.624662956055046,-4.563073678899082
738,1747666229870,1.0253414816666668,0.6039216708333334,0.7151528208333333,4.049731220833333,0.6502202271666667,-4.545835058333333
739,1747666229880,1.0510158968,0.50055165216,0.70718612128,4.1334806024,0.58879102264,-4.57043032
740,1747666229890,1.0500563052631577,0.4168882942105263,0.6768157131578948,4.234839301754386,0.49842318701754385,-4.64392598245614
741,1747666229900,0.9846185437499999,0.2540025640625,0.575479395,4.4434049703125,0.24670843257812503,-4.87945775
742,1747666229910,0.8633044647540984,0.16204600680327869,0.4771819278688525,4.445807039344263,0.0464708256557377,-5.039698397540985
743,1747666229920,0.8354519262295081,0.14999518295081965,0.4560429575409836,4.434701296721312,0.034458811295081965,-5.046387849180328
744,1747666229930,0.7346523319672131,0.12972844012295082,0.37391168909836064,4.3302433721311475,-0.02006842537704918,-5.0676578
745,1747666229940,0.6211035223140496,0.09584592129752066,0.2675996952066116,4.001172594214876,0.035793673785123964,-5.028692945454545
746,1747666229950,0.53645691421875,0.056964487921875,0.19050193515625,3.5803527789062497,0.211158931640625,-4.95018464609375
747,1747666229960,0.49035864463414636,0.01741735356097561,0.1941862319512195,3.2723902609756097,0.39755408658536584,-4.768280136585366
748,1747666229970,0.47417071133333333,-0.0035469656000000002,0.21532356866666666,3.1358768091666667,0.4379140263333333,-4.628668666666667
749,1747666229980,0.44302295572580647,-0.027271431096774195,0.29735815145161293,3.124230814516129,0.3036886806451613,-4.4714646725806455
750,1747666229990,0.38657505063492065,-0.022321554142857143,0.4066807174603175,3.358924887301587,-0.15060252412698413,-4.143479601587301
751,1747666230000,0.380494933968254,-0.020475628563492065,0.41129069888888886,3.492617211111111,-0.3523044238095238,-4.000711661904762
752,1747666230010,0.4705912077272727,-0.0517956032,0.3352703356363636,3.73278096,-0.719799176,-3.7644737572727274
753,1747666230020,0.50628958,-0.08651112164705883,0.29077269999999994,3.883521882352941,-0.8972173164705882,-3.6443861588235293
754,1747666230030,0.5239255732283464,-0.16774996433070866,0.23165837826771654,3.94476568503937,-0.9069857988188976,-3.6285396
755,1747666230040,0.5281399,-0.208913,0.20696054,3.9742892,-0.90285885,-3.6285396
756,1747666230050,0.4071835618897638,-0.6047123481102362,0.14008502141732285,4.136601644094489,-0.7401810707874016,-3.783526192125984
757,1747666230060,0.22754337142857145,-0.8012645689915967,0.06731878462184875,4.311163647058823,-0.6218248711764706,-3.853697294117647
758,1747666230070,0.02350034516129032,-0.9308815838709678,-0.04327685903225807,4.47068624516129,-0.5186048764516129,-3.7912267032258065
759,1747666230080,-0.1602845875,-1.1917315375,-0.36785529499999997,4.425462532258064,-0.3364094122580645,-3.2968397612903226
760,1747666230090,-0.15358286000000002,-1.3742627379032257,-0.5896344635483871,4.247700741935484,-0.21055146467741934,-3.065696222580645
761,1747666230100,-0.10646707079365078,-1.4992901730158732,-0.7291229961904763,3.924983647619048,-0.01756964904761905,-2.9540569666666667
762,1747666230110,0.04124567428571428,-1.7504134999999998,-0.9563906342857142,3.3237178,0.30726522,-3.1355712
763,1747666230120,-0.07712208599999999,-1.93752172,-1.15736828,3.05156202,0.4218380856666667,-3.3751984483333333
764,1747666230130,-0.3809560562992126,-2.1164260062992124,-1.3937417874015747,2.2812497748031495,0.707978374015748,-3.724411755905512
765,1747666230140,-0.629759213,-2.1939770066666666,-1.5133664949999999,1.5033342808333332,0.8951975566666667,-3.741895801666667
766,1747666230150,-1.1232764507086614,-2.3013041881889764,-1.618182194488189,0.2781168464566929,0.9317474746456693,-2.991209933858268
767,1747666230160,-1.250976515,-2.3018299916666667,-1.5704026199999999,-0.141094585,0.933783884,-2.58562462
768,1747666230170,-1.3402212272727272,-2.2452137520661157,-1.3575089112396694,-0.6416003066115703,0.8997994578512397,-1.7891788607438015
769,1747666230180,-1.2579748559055117,-2.0982371519685037,-0.9137541964566929,-1.033218409606299,0.6987913804724409,-0.2256449657480315
770,1747666230190,-1.1168810076923077,-2.0067326076923075,-0.7969783161538462,-0.9423092671794872,0.5864619536752137,0.31638642923076926
771,1747666230200,-1.04066,-1.952458,-0.7660957,-0.7806858,0.47036624,0.91507614
772,1747666230210,-0.804831642,-1.7105239783333335,-0.9096664699999999,-0.8104094576666667,0.4605465905,1.7251954121666668
773,1747666230220,-0.64992446,-1.5380487,-0.95377576,-1.009035711627907,0.5406441511627906,2.185547904651163
774,1747666230230,-0.4839458447580645,-1.307190331451613,-1.0112924746774195,-1.6177780274193547,0.7673354029032258,2.5154445467741935
775,1747666230240,-0.422585125,-1.2164728125000002,-1.0007261625000001,-2.09046237,0.903551122,2.6751417933333332
776,1747666230250,-0.30003406015625,-1.00852073046875,-0.8888374296875,-3.24743124140625,1.1010368796875,2.93251110703125
777,1747666230260,-0.23116703316326528,-0.8778140969387755,-0.7966576530612245,-3.649221685714286,1.1465940714285714,3.0112165714285712
778,1747666230270,-0.189006056,-0.7859375233333333,-0.7128586866666667,-4.065226833333333,1.1634335766666666,3.0867223999999998
779,1747666230280,-0.12590302750000001,-0.68885158125,-0.5695991137499999,-4.520158685,1.0825346579166668,3.1613294966666667
780,1747666230290,-0.04763113706034482,-0.5987671068103448,-0.3751370240517241,-4.939540744827587,0.8631210047413792,3.2176432206896552
781,1747666230300,0.01881910175,-0.501808410234375,-0.168593985,-4.998022920312501,0.5306414375,3.21613875625
782,1747666230310,0.06044484433333333,-0.4347473233333333,-0.07224094466666667,-4.9261567245614035,0.1602288792982456,3.201244705263158
783,1747666230320,0.101582720625,-0.36664111041666664,-0.006294642674999999,-4.81459569,-0.166582951,3.19433655
784,1747666230330,0.15077314333333333,-0.2687070277777778,0.038696633333333334,-4.623503444444444,-0.7220427222222222,3.2269296777777776
785,1747666230340,0.15866225153846153,-0.22692943290598291,0.02078241364102564,-4.64566152051282,-0.8029275461538462,3.2875357743589744
786,1747666230350,0.15483069758064516,-0.1889199879032258,-0.005632998967741935,-4.771837791129032,-0.7926813967741936,3.3780158177419355
787,1747666230360,0.14208833394495413,-0.13837149963302753,-0.012034932844036698,-5.126537926605505,-0.5943606688073395,3.5397287174311924
788,1747666230370,0.13737784765765768,-0.10828006162162163,0.00506363845945946,-5.459654821621622,-0.3789950900900901,3.6698912594594595
789,1747666230380,0.14849796178217822,-0.10440092198019803,0.04523999627722773,-5.645320166336634,-0.2434509487128713,3.727402910891089
790,1747666230390,0.21450375529411764,-0.10720676272268907,0.17192705655462184,-5.845754378151261,-0.10259969508403362,3.7849878554621847
791,1747666230400,0.31603034146341463,-0.09071191317073171,0.3379597524390244,-5.710189573170732,-0.32946495560975614,3.708071207317073
792,1747666230410,0.32640742617647056,-0.03262710465686275,0.44204268480392156,-5.465543009803921,-0.7013092160784313,3.6351752568627456
793,1747666230420,0.30978310169491524,0.003065193347457627,0.4773614754237288,-5.335504097457626,-0.8936803307627118,3.625366157627119
794,1747666230430,0.26962273688,0.0850822608,0.5507356744,-5.0474819824,-1.3090744864000001,3.6402583072000003
795,1747666230440,0.31160008333333333,0.19289674041666668,0.5428545220833333,-4.682811686666667,-1.80728553,3.8345232766666664
796,1747666230450,0.4088842834645669,0.24980892157480317,0.4470917516535433,-4.461519300787401,-2.1358061503937007,4.126755396850394
797,1747666230460,0.5458846367479675,0.23072537593495934,0.3399836466666667,-4.657191890243902,-1.9976931951219512,4.339065029268292
798,1747666230470,0.6529885037815126,0.21531591739495798,0.3044726880672269,-4.886742234453781,-1.759112248739496,4.463684643697479
799,1747666230480,0.8379081559055118,0.21241244582677166,0.39019757086614176,-5.339751377952756,-1.1469932716535434,4.501254322834645
800,1747666230490,0.8815176210526315,0.2643653719298245,0.6998748171929825,-5.4409500350877185,-0.871592197368421,4.121598732456141
801,1747666230500,0.8426105346456694,0.2720892468503937,0.884369330551181,-5.351780880314961,-0.9008242566929133,3.9215239094488186
802,1747666230510,0.7482835401639345,0.2506868101639344,0.972680126557377,-4.993422881967213,-1.2232626409836065,3.7009119999999998
803,1747666230520,0.554390652,0.3418363296,0.8030362068000001,-4.47363464,-1.6867895207999999,3.971874952
804,1747666230530,0.557882455625,0.407165636328125,0.7018647796875,-4.53038651875,-1.6688265859375,4.2547336046875
805,1747666230540,0.6194622312,0.43237376672,0.6721043736000001,-4.8349835712,-1.5534449912,4.589337897599999
806,1747666230550,0.67481834,0.44686884,0.6577343,-4.917465,-1.5241088,4.6688433
807,1747666230560,0.67481834,0.44686884,0.6577343,-4.917465,-1.5241088,4.6688433
808,1747666230570,0.9364221387903225,0.4462665685483871,0.7690322524193548,-5.43400090967742,-1.029613375483871,4.531142393548387
809,1747666230580,1.8194694519379846,0.5433300889922481,1.542471984496124,-6.874222869767442,0.5968721930232558,3.305463051162791
810,1747666230590,1.8228850663999998,0.6788149715199999,1.9391577928,-6.73323036,0.73495889488,2.531572352
811,1747666230600,1.5353508930232558,0.9567989697674418,2.447178987596899,-5.363141093023256,0.2200961781395349,1.299623004651163
812,1747666230610,1.2661532258064516,1.1322366677419355,2.679354948387097,-4.775478475806453,-0.09224064951612905,1.0001933806451613
813,1747666230620,1.1286529108333334,1.1966493525,2.6192732991666663,-4.085436201666666,-0.5746409358333333,0.9657372083333333
814,1747666230630,1.1366775015625,1.3510285015625,2.57324045,-3.81974041015625,-0.735071305078125,1.0682791890625
815,1747666230640,1.2101178824,1.5624819184,2.585409736,-3.5804033800000004,-0.59596016,1.0708467600000002
816,1747666230650,1.2011883251968505,1.7014595212598425,2.6792259007874017,-3.465832984251968,-0.2971643028346457,0.8159284228346456
817,1747666230660,1.1424844570247934,1.7713271801652892,2.8251139520661157,-3.26361070661157,-0.10370573458677687,0.5677462557851239
818,1747666230670,1.083565402,1.813662675,2.9571440925,-3.1465669000000003,-0.007330383,0.43676865
819,1747666230680,0.808348852,1.8787799887999999,3.3096075471999997,-1.9120033512,0.13491814492,0.17276734984
820,1747666230690,0.6651082871428571,1.9584199142857144,3.2016651,-0.03552228063492064,0.13250442785714286,0.1927861669047619
821,1747666230700,0.6051242769230769,2.0343360564102566,2.951791092307692,1.371173187179487,0.04860294348717949,0.223404381025641
822,1747666230710,0.5834643449152542,2.0959305754237287,2.6968201923728814,1.8287234152542373,0.028115331161016947,0.20938182898305085
823,1747666230720,0.6555438185,2.2030337424999997,2.0404731958333335,2.4304698250000003,0.20262400317499998,-0.002983058249999997
824,1747666230730,0.6671944962499999,2.2120465875,1.97178735,2.4820523075,0.23741277849999998,-0.0428674695
825,1747666230740,0.7158199,2.21604,1.7913802,2.4147503,0.4196644,-0.30909783
826,1747666230750,0.7912336,2.088398,1.7860109,2.175902,0.46975538,-0.9639453
827,1747666230760,0.764269164516129,1.8419787258064515,2.057426303225806,2.3929957354838707,0.24087796548387097,-1.4112760838709677
828,1747666230770,0.7389479294117648,1.6770178705882355,2.2380911117647058,2.741778835294117,0.012720371823529407,-1.6883237352941176
829,1747666230780,0.7316069072580645,1.5329845596774192,2.3438430024193546,3.2077372427419357,-0.11570477734677419,-1.7869827830645162
830,1747666230790,0.86341348875,1.2567422750000001,2.31084080625,3.8764471517857144,-0.11437906044642857,-1.8675404348214286
831,1747666230800,0.9117490288,1.1860576768000002,2.2645721048,4.1404250008,-0.03169657288,-1.9271429464
832,1747666230810,0.9868739635000001,1.1052010133333332,2.080073459166667,4.833623900000001,0.29749137249999996,-2.145816825
833,1747666230820,1.0079564,1.0758044,1.9644167,4.98736344488189,0.5220492770866141,-2.3078392251968505
834,1747666230830,1.0059032507936507,1.0113422507936507,1.7683652174603175,4.984573,0.7237007714285714,-2.536879714285714
835,1747666230840,0.9418649290163933,0.8867800065573771,1.6708399770491804,4.927183786885246,0.8936758106557378,-2.933720407377049
836,1747666230850,0.9313013104724409,0.8496478163779527,1.6709543228346455,4.9613752165354335,0.8781452322047244,-2.9603540314960632
837,1747666230860,0.9544668655462185,0.8045890442016806,1.6774690823529412,5.097459991596639,0.8061316548739496,-3.0203693823529414
838,1747666230870,1.03646551398374,0.7404300026016261,1.6472495569105692,5.333429788617885,0.6665831231707318,-3.122916934146341
839,1747666230880,1.1143165833333335,0.6064253085,1.5053858033333334,5.590714987499999,0.5262604125,-3.3537264875
840,1747666230890,1.1319375,0.55742675,1.4489679,5.697750565517242,0.47346268896551724,-3.472010531034482
841,1747666230900,1.1386969184,0.46021191136,1.3550371,5.8109703968,0.41696197208,-3.6625817928
842,1747666230910,1.1429471863247864,0.40053548786324783,1.29494275982906,5.874597153846153,0.3979552217948718,-3.7534379512820513
843,1747666230920,1.1095629274193548,0.33526184451612906,1.1387967403225807,6.031294112903226,0.479179442016129,-3.9599193540322575
844,1747666230930,1.0716434430894308,0.29797605170731706,0.9961464487804879,6.120124495934959,0.549748911707317,-4.088690195121951
845,1747666230940,1.0492281401639343,0.26778680434426233,0.8281582213114754,6.0885438401639345,0.5573995196721312,-4.202081991803278
846,1747666230950,1.019092032222222,0.23656313507936508,0.6914083444444444,5.946079744444444,0.5319133261904762,-4.305228023809524
847,1747666230960,0.9582582465,0.197409775,0.5344833315,5.677330545833333,0.5270494166666666,-4.407112874999999
848,1747666230970,0.8733466424999999,0.14264535825,0.351509553,5.1537478000000005,0.58398717,-4.542760599999999
849,1747666230980,0.8217311023622048,0.10018069070866142,0.28150177401574805,4.679362590551181,0.7807339003937008,-4.6100843984251965
850,1747666230990,0.792942,0.077122085,0.2562601,4.429137758064516,0.9064156483870968,-4.63384635483871
851,1747666231000,0.74082622640625,0.0642366321328125,0.247584644375,3.800918059375,1.35701333203125,-4.555078960937499
852,1747666231010,0.7426483734959349,0.041045269967479675,0.24074759154471545,3.466560899186992,1.6502400528455285,-4.484053715447154
853,1747666231020,0.752745788,-0.0728348203,0.23999774966666665,3.2136739222222226,2.052378288888889,-4.473311677777778
854,1747666231030,0.7553108,-0.17231047487603304,0.2737233157024793,3.1538923338842975,2.2263110173553717,-4.510613628099174
855,1747666231040,0.7210793675,-0.294156096,0.34320550600000005,3.342532575,2.160447085,-4.6364061649999995
856,1747666231050,0.6540908928571428,-0.36347095714285715,0.33090675785714285,3.556297607142857,1.9794215373015873,-4.71329577936508
857,1747666231060,0.5959602252173913,-0.42211292973913045,0.25811917956521735,3.7451511860869564,1.7793229921739129,-4.7399424817391305
858,1747666231070,0.5767073,-0.47884035,0.2020794,3.8643336,1.6218473,-4.750699
859,1747666231080,0.4706427629032259,-0.5890242965322581,0.023584987903225805,4.016330658064516,1.4030885290322581,-4.666990582258064
860,1747666231090,0.27529657076271186,-0.772387415,-0.2990362915254237,4.061001224576271,1.3115587466101695,-4.404188238983052
861,1747666231100,0.1846529309677419,-0.8832825406451613,-0.458209594516129,3.914424580645161,1.2375144967741938,-4.0458194774193545
862,1747666231110,0.14087735653846153,-0.9376116102564102,-0.5182023784615385,3.809287882051282,1.1744119487179485,-3.860052158974359
863,1747666231120,0.01692923807317073,-1.0555833609756098,-0.6535138965853658,3.462940462601626,0.887860366097561,-3.2548539235772362
864,1747666231130,0.01910510559375,-1.13204434375,-0.6598621575,3.45127892734375,0.753655011484375,-3.0682186890625
865,1747666231140,0.05246827487603306,-1.2918837776859504,-0.7362964991735538,3.4893278661157026,0.5985823330578512,-2.898182041322314
866,1747666231150,0.055851101639344265,-1.4789229114754097,-0.9858452483606558,3.4010071901639347,0.5747140540983607,-2.7472413016393444
867,1747666231160,0.0370967,-1.6544641,-1.2827649,3.181997,0.6469063000000002,-2.593123
868,1747666231170,0.009442214245901642,-1.709665024590164,-1.3878735983606558,3.181997,0.6469063,-2.593123
869,1747666231180,-0.10994680266666666,-1.8450688406504065,-1.6525016967479675,2.4519684528455286,0.8667532102439024,-2.3764792869918696
870,1747666231190,-0.34081701097560974,-1.988495092682927,-1.7718912999999998,1.0271177760975612,1.162133868292683,-1.846168848780488
871,1747666231200,-0.523727149032258,-2.067757229032258,-1.7261067201612903,0.36373084112903226,1.1946356467741936,-1.4699487532258064
872,1747666231210,-0.6440211714529914,-2.077663482051282,-1.6657157743589743,0.24368822948717947,1.0721154333333331,-1.2732625230769232
873,1747666231220,-0.7747463877310925,-2.0655755277310925,-1.605197381512605,0.184070645210084,0.7825645882352941,-0.946261078655462
874,1747666231230,-0.92480903584,-2.010777824,-1.5161363528,0.224969454,0.1157223064,-0.34865743759999995
875,1747666231240,-0.9941775220338983,-1.8775799669491526,-1.4628646313559321,0.2456402972881356,-0.5955522101694914,0.3703707
876,1747666231250,-0.9840466064,-1.7254749848000002,-1.4089053855999998,0.184095231472,-1.4732945864,1.4450530343999999
877,1747666231260,-0.9193637,-1.6630061,-1.3652563,0.084910266,-1.7330247,1.8997909
878,1747666231270,-0.7844221983471075,-1.5645441793388428,-1.300970276859504,-0.051802380545454545,-1.9337115991735538,2.2911081330578513
879,1747666231280,-0.45726913535433067,-1.2747686236220472,-1.148817727559055,-0.5317990691338582,-2.203434268503937,3.1359271881889765
880,1747666231290,-0.2492542369747899,-1.0754597915966386,-1.0393331218487394,-1.2309910707563025,-2.1727501268907563,3.7508305705882354
881,1747666231300,-0.16802160758064516,-0.994365992016129,-0.9851921619354839,-1.552149522580645,-2.1102241483870965,3.964042441935484
882,1747666231310,-0.08763324102564102,-0.9133832097435898,-0.9239256343589742,-1.8308414512820512,-2.0319101829059827,4.116699188888888
883,1747666231320,0.11958209707317073,-0.7044325617886179,-0.7161631959349594,-2.706609787804878,-1.695434131707317,4.5195983536585365
884,1747666231330,0.18330247793650792,-0.6177050146031746,-0.6133623853968254,-3.149247877777778,-1.4756177047619048,4.689568942857143
885,1747666231340,0.23490508499999999,-0.53948852,-0.51679124,-3.537666076190476,-1.2918345142857142,4.8202504
886,1747666231350,0.28874898847999997,-0.49777717248,-0.44346961632,-3.851827964,-1.15890419712,4.879410824000001
887,1747666231360,0.4309687955371901,-0.43329641669421487,-0.282460973553719,-4.41044202231405,-0.9190240317355373,4.890571876033057
888,1747666231370,0.4840603442975207,-0.41940329363636364,-0.242532396446281,-4.600658185950413,-0.817044905785124,4.821256438016529
889,1747666231380,0.5256179866666667,-0.37348894000000005,-0.15595258333333334,-5.124752366666667,-0.49968776666666664,4.541681366666667
890,1747666231390,0.5261146807017544,-0.35313370649122805,-0.08923503836842106,-5.3528837578947375,-0.4497575721052631,4.432470578947369
891,1747666231400,0.50666285,-0.2962855,0.153512,-5.805375158536586,-0.46725230341463414,4.253012780487805
892,1747666231410,0.48254914914529917,-0.2792640683760684,0.22177502051282053,-5.942966807692308,-0.5388301523076924,4.245419461538462
893,1747666231420,0.4589956639344262,-0.26961523868852455,0.28096190098360657,-5.99794565409836,-0.5729916085245901,4.2716404245901645
894,1747666231430,0.42601176330645163,-0.26483163983870966,0.3562566701612903,-6.020185399193548,-0.5978498551612903,4.3521044596774185
895,1747666231440,0.4397562928571429,-0.22710107142857142,0.4964124142857143,-5.853834095238095,-0.6201736476190476,4.644000904761905
896,1747666231450,0.520660619527559,-0.21492218094488189,0.5296906937007875,-5.736601749606299,-0.6761171559055118,4.6906800881889765
897,1747666231460,0.5883282175213675,-0.20589877854700853,0.554283217948718,-5.699696411965812,-0.6965690683760684,4.697710203418803
898,1747666231470,0.7569703512195123,-0.1355827312195122,0.6459838243902438,-5.4071557,-0.9999417317073171,4.469268902439024
899,1747666231480,0.8645727957142857,-0.014137888214285715,0.7665489571428572,-4.897597398412698,-1.6704934444444444,4.0363065873015875
900,1747666231490,0.8488700611764705,-0.0006152704453781509,0.7767768033613446,-4.792258288235294,-1.8380524873949577,3.9718304319327733
901,1747666231500,0.7630042785714286,0.013190712571428573,0.7698902023809524,-4.584252726190476,-2.1934571309523805,3.9166789619047617
902,1747666231510,0.5820849155172414,0.06378310068965518,0.7035539198275862,-4.4853938241379305,-2.386819060344828,4.0950193258620695
903,1747666231520,0.5539539475409836,0.0943901386885246,0.6757145281967213,-4.612743559016393,-2.3081393901639347,4.670525232786885
904,1747666231530,0.5847612,0.10055158,0.67481834,-4.7445903,-2.2015584,5.1104984
905,1747666231540,0.7489783581196581,0.09283353085470086,0.7023008442735043,-4.893129825641026,-2.059216321367521,5.251279383760684
906,1747666231550,1.4798198492063492,0.0724888719047619,0.8936213933333333,-5.287872666666666,-1.6027455746031745,5.2241388650793645
907,1747666231560,1.653559605882353,0.13925618470588233,1.173743023529412,-5.259092768907563,-1.4440340873949578,4.293484427731093
908,1747666231570,1.5225351106557379,0.1910328095081967,1.2152930450819672,-5.110398438524591,-1.526562218032787,3.868399345081967
909,1747666231580,1.3744351495934959,0.2515337325203252,1.2641153341463414,-5.028548258536585,-1.6637883642276425,3.723839593495935
910,1747666231590,1.4248339040650406,0.40159718682926826,1.3884972073170732,-5.146628965853659,-1.8728085658536586,3.738167531707317
911,1747666231600,1.5252947443548386,0.5293759201612903,1.5078131564516128,-5.3520907580645165,-1.8566657741935484,3.7235734306451613
912,1747666231610,1.6289303033613447,0.6211052000000001,1.6277120983193278,-5.593010109243698,-1.5831214201680672,3.6210500453781513
913,1747666231620,1.7542014754098358,0.7432523774590163,1.7770728598360657,-5.865407859016393,-0.8909319463934426,3.38454401147541
914,1747666231630,1.7843026,0.9234765786885246,2.0682609459016392,-6.1515580508196726,0.3454843566393443,2.895511308196721
915,1747666231640,1.7843026,0.9308343,2.08132,-6.1850104,0.5045747,2.8301387
916,1747666231650,1.7843026,0.9308343,2.08132,-6.1850104,0.5045747,2.8301387
917,1747666231660,1.8058823719298245,0.991077896491228,2.229231596491228,-6.107778966666666,0.603111551754386,2.619368660526316
918,1747666231670,1.6570153235294116,1.350618874789916,3.1667125857142855,-4.231520008403361,-0.5457131117647058,1.3907604529411766
919,1747666231680,1.470796296,1.494196464,3.32436244,-2.9016196432,-1.04980368976,0.92245048336
920,1747666231690,0.9859393040983606,1.7350649975409835,2.938193159016394,-1.0108818409836065,-1.1494330819672132,0.5547407504098362
921,1747666231700,0.8732488570491804,1.8921198655737705,2.642435773770492,-0.6242642200819671,-0.791776463852459,0.5628071617213115
922,1747666231710,0.849429974789916,2.0395618478991597,2.344467250420168,-0.6813714042016807,-0.21046103294117646,0.4802427336134454
923,1747666231720,0.8445510057851241,2.1513728314049585,2.1827995305785124,-0.8914947284297521,0.5779491874380165,0.2565280617355372
924,1747666231730,0.8121391524390243,2.225432951219512,2.2202303536585366,-1.029774805691057,1.0562208113821139,-0.03839511455284553
925,1747666231740,0.7090185864462809,2.219101738016529,2.5264120421487606,-1.0253499446280991,1.3083976371900825,-0.34075175578512396
926,1747666231750,0.6808563039370078,2.1979989062992127,2.646237764566929,-0.6893301669291338,1.2471607614173228,-0.5480471353543307
927,1747666231760,0.6540734,2.1679606,2.7803001,-0.18081611,1.1160508,-0.80878556
928,1747666231770,0.67139948,2.086209401639344,2.8657701540983602,0.5963046034426229,0.8719049986885247,-0.9010162085245902
929,1747666231780,0.7635737866666666,1.91227,2.8788992666666666,1.6715195749999998,0.561554858425926,-1.0441949199074074
930,1747666231790,0.79489446,1.866794,2.8632796,2.0873265,0.45142943,-1.1136073
931,1747666231800,0.9369358,1.6017478,2.6792605,3.209486,0.29993483,-1.4257594
932,1747666231810,1.064864147826087,1.3782231478260871,2.4874103086956523,3.770658639130435,0.5639083069565217,-1.733210695652174
933,1747666231820,1.0760727225,1.3566532700000002,2.4676812000000004,3.8379441225,0.62738916,-1.7880484700000001
934,1747666231830,1.0960611000000002,1.2686096,2.4017673,3.976122,0.8906415,-1.9566014
935,1747666231840,1.1399854634146342,1.0402633349593495,2.3739307967479677,4.604742118699187,1.4640254821138212,-2.2282874016260164
936,1747666231850,1.2066074904761905,0.9113601301587301,2.3418609063492064,4.905277116666666,1.5130793087301586,-2.263488381746032
937,1747666231860,1.3800983682170542,0.7545474139534885,2.235570003875969,5.674952534883721,1.2968100697674418,-2.5251464162790698
938,1747666231870,1.415288,0.7231416,2.212867,5.8233786,1.2455542,-2.5815165
939,1747666231880,1.4448877943548388,0.6149160258064515,2.094503187096774,6.290966158064516,0.9617925403225807,-2.8675394693548384
940,1747666231890,1.4471255303278687,0.5084152622950819,1.958455319672131,6.6575197360655745,0.6698688144262296,-3.2072628172131146
941,1747666231900,1.4061040672268907,0.432069537815126,1.794905694117647,6.797708428571429,0.5617342171428572,-3.4048756
942,1747666231910,1.3447194114754097,0.36368932803278686,1.6094135229508197,6.889218212295082,0.6279243950819672,-3.6574304770491803
943,1747666231920,1.3220581,0.34582913,1.5539125,6.9217143,0.7257079,-3.8069122
944,1747666231930,1.3186220417322836,0.31079441937007873,1.3665938456692912,6.81565441023622,1.0392116501574804,-3.857137805511811
945,1747666231940,1.3256485881355933,0.2587399828813559,1.1841699144067797,6.670047869491525,1.2763252983050848,-3.8495536076271186
946,1747666231950,1.3233378658536588,0.14417433414634145,0.9659507575609756,6.499631102439024,1.4013100105691059,-3.860832300813008
947,1747666231960,1.2956707393162394,0.07946253538461538,0.8974005882051281,6.479103102564102,1.287187082051282,-3.9140016153846156
948,1747666231970,1.2522857450819673,-0.012875020459016394,0.8062351227868852,6.4856564754098365,0.9932969534426229,-4.042886319672131
949,1747666231980,1.1551509360655736,-0.11587518400819673,0.6862329444262295,6.488109762295082,0.6384242828688524,-4.206958836885246
950,1747666231990,1.0056079098360657,-0.2199756019672131,0.5562784934426229,6.442935885245902,-0.014089966721311471,-4.514854931147541
951,1747666232000,0.911019959375,-0.2840025584375,0.494303671875,6.391311421875001,-0.5001745503125,-4.7491337234375
952,1747666232010,0.8725985403846154,-0.3208883542307692,0.46513557692307694,6.368796542307693,-0.71380543,-4.86493558
953,1747666232020,0.8154255481818182,-0.3568238096694215,0.4156436099173554,6.345895411570248,-0.9434990380165289,-5.006570577685951
954,1747666232030,0.7601374970247934,-0.3749909371900827,0.357051722892562,6.309490930578512,-1.048946473553719,-5.076340438016529
955,1747666232040,0.5757597376470588,-0.4313065717647059,0.10022139235294117,5.95673685882353,-1.15318525210084,-5.156375208403361
956,1747666232050,0.41823836431034483,-0.48081805689655177,-0.054138630706896555,5.379721853448276,-1.2208037422413793,-5.135291427586206
957,1747666232060,0.4083077600000001,-0.4837215,-0.061502427,5.349958,-1.2247849,-5.131879
958,1747666232070,0.15648869950819672,-0.4653171560655737,-0.09698274850819671,5.11176058852459,-1.3560207491803278,-5.008313959016393
959,1747666232080,0.07620823305555556,-0.4216793942222222,-0.066467635,4.4686014400000005,-1.73534594,-4.6204626
960,1747666232090,0.05458330005128205,-0.38194333025641025,-0.06409944585470086,4.092300952136752,-2.054653058974359,-4.187423965811966
961,1747666232100,0.13741972422222223,-0.35287576825396827,-0.16976698817460317,3.5104631373015875,-1.9993183309523808,-3.601462796031746
962,1747666232110,0.15497635,-0.3526627,-0.1889003,3.3719761,-1.9651535,-3.4733799
963,1747666232120,0.21646277631147542,-0.4166297119672131,-0.22643912073770495,2.92288502295082,-1.6692994155737704,-3.2816983204918033
964,1747666232130,0.252629761875,-0.49415490375000004,-0.225249595,2.48758643125,-1.3205665578125,-3.1162909242187498
965,1747666232140,0.16157558896825397,-0.6267273864285714,-0.15224910301587302,2.275269303968254,-1.0214539722222222,-3.0407416888888887
966,1747666232150,0.079586474,-0.7044801729268293,-0.14920826512195123,2.2662901235772357,-0.9363024650406504,-3.047586823577236
967,1747666232160,0.029489257121951225,-0.7528332804878048,-0.1599527392682927,2.2965404504065043,-0.8956923341463414,-3.0573060276422765
968,1747666232170,-0.0772493311965812,-0.8713449094017095,-0.203230852991453,2.3295268564102565,-0.8706448222222222,-3.058168864102564
969,1747666232180,-0.26911765976190477,-1.1045139873015872,-0.3445914173015873,2.364358758730159,-0.8218949396825397,-2.9898848555555553
970,1747666232190,-0.4020016451612903,-1.3149095741935484,-0.5247466890322582,2.2027554274193544,-0.4960570719354839,-2.7405730677419355
971,1747666232200,-0.4224902069841269,-1.3711019809523808,-0.578303307936508,2.157983282539682,-0.44057929015873015,-2.7180400936507936
972,1747666232210,-0.49128726,-1.5473229,-0.74583894,1.8936822,-0.14538592000000003,-2.6413813
973,1747666232220,-0.5461516980952381,-1.6271161142857142,-0.8273366304761904,1.7080955253968255,0.011402820079365078,-2.6155164587301587
974,1747666232230,-0.8025940646774193,-1.8593620717741937,-1.112700239516129,0.6689319068548386,0.7619509189516128,-2.3493286669354836
975,1747666232240,-1.3553201632,-1.9817018408000002,-1.2812282624,-0.5834984776,1.5040723599999999,-1.78702524
976,1747666232250,-1.4622663066666666,-1.9641619,-1.2276567111111112,-1.2695001293333334,1.741291733333333,-1.2369207199999999
977,1747666232260,-1.5224537705882353,-1.904991912605042,-1.0955667945378151,-1.6173606865546217,1.7045912033613444,-0.5811638635714286
978,1747666232270,-1.5502517,-1.8606924,-0.99965847,-1.8454239,1.6444492,-0.058643065
979,1747666232280,-1.5376023731707318,-1.8417015894308943,-0.9717288009756097,-1.8442568,1.571776112195122,0.1251081793495935
980,1747666232290,-1.3763855975609756,-1.6476959487804879,-0.7348325440650406,-1.7263052,0.9812532266666666,1.3367768333333334
981,1747666232300,-1.0923865672,-1.4719776168,-0.66744970656,-1.4987993944,0.48422066647999995,1.9699133832000002
982,1747666232310,-0.8606780683333334,-1.3371530616666667,-0.6498329320833334,-1.3811459133333333,0.22410609233333334,2.2805330416666667
983,1747666232320,-0.6883457741935485,-1.2138974161290321,-0.6514084768548388,-1.3540714741935482,0.09135391167741937,2.4617278387096775
984,1747666232330,-0.5187350406299213,-1.0396896622047245,-0.6521151829921259,-1.4426424259842519,0.09827715637795274,2.5685248629921262
985,1747666232340,-0.3923100237704918,-0.8046827639344262,-0.6473198073770492,-1.9087836540983607,0.4119334686065574,2.7345833327868854
986,1747666232350,-0.33953438752,-0.7109719576,-0.6339025576,-2.1320564912,0.555300938,2.7971226264
987,1747666232360,-0.30197655389380534,-0.6492462831858407,-0.6142467274336284,-2.315222414159292,0.6666431869026548,2.8445778017699115
988,1747666232370,-0.24358104471544714,-0.5430472323577237,-0.5645718772357724,-2.7957066390243903,0.9335659629268294,2.9802774658536584
989,1747666232380,-0.15768099106557376,-0.4599798937704918,-0.4573412781147541,-3.344607392622951,1.1193604295081967,3.169048663934426
