id,timestamp,acc_x,acc_y,acc_z,gyro_x,gyro_y,gyro_z
0,1747666114440,0.5885209851351352,-0.3132936531081081,0.33469811729729726,-0.33366450554054056,-0.7279285,1.511297157027027
1,1747666114450,0.6115858849557521,-0.25654520176991147,0.3129850575221239,-0.31246027044247787,-0.863612075221239,1.9229389415929203
2,1747666114460,0.6437786692727272,-0.17572564654545453,0.3037092858181818,-0.36028832400000005,-1.48696818,2.5159095999999996
3,1747666114470,0.7230637616379311,-0.0213844653637931,0.30239324999999995,-0.4598867356896552,-2.0320748844827587,2.8831575551724136
4,1747666114480,0.7762349437499999,0.012209399230357144,0.34824573366071426,-0.5597816210714285,-2.3637594839285714,3.0839313642857142
5,1747666114490,0.797929656,0.06312207818181818,0.46025201854545456,-0.6486944543636363,-2.69184994,3.3491630836363635
6,1747666114500,0.7868950472727273,0.09258241117355372,0.5178471049586777,-0.6754756161157025,-2.7999337347107436,3.504205740495868
7,1747666114510,0.8322800288073394,0.02283838486238532,0.4848723473394495,-0.8796347348623853,-2.6542543688073397,4.085724619266055
8,1747666114520,0.857340218968254,0.008433534206349206,0.4908398027777778,-1.1112656642857142,-2.4419775333333336,4.5595419095238094
9,1747666114530,0.8515157,0.026846299,0.48689422,-1.278541,-2.3878722,4.7800207
10,1747666114540,0.8332261767241379,0.08901778164655173,0.5201701406034482,-1.541423675862069,-2.4045550965517237,5.090424534482758
11,1747666114550,0.9372238245901638,0.09729482655737705,0.6205335336065574,-1.9886767655737705,-2.577305444262295,5.663421722950819
12,1747666114560,1.2110527,0.10409042,0.7982705533333333,-2.3458548699999997,-2.893322463333333,6.185081668333334
13,1747666114570,1.2402989,0.10860548,0.81417495,-2.4178047,-3.037222,6.286414
14,1747666114580,1.4870808568965517,0.24248560370689656,0.9002682743103448,-2.5487404344827587,-3.2423147241379313,6.291659277586207
15,1747666114590,1.5293628307692309,0.44419044871794877,1.0942150820512822,-2.8275855914529915,-3.1447289658119657,6.189135096581196
16,1747666114600,1.5165277524590164,0.5436995244262296,1.231072767213115,-2.9097164344262296,-3.034152680327869,6.221221883606557
17,1747666114610,1.5694245830508475,0.6011626118644069,1.3082626237288135,-2.903546044067797,-2.928218869491525,6.318779922033898
18,1747666114620,1.6553834976744186,0.6775312693023257,1.3631562046511627,-2.8475838,-2.768327641860465,6.413530967441861
19,1747666114630,2.004784802631579,1.0189218610526316,1.4625280254385966,-2.6219301438596494,-2.2451977298245613,5.981753298245614
20,1747666114640,2.087733448739496,1.1751582042016806,1.4811259747899161,-2.5103687672268906,-1.9144414361344537,5.559592447058824
21,1747666114650,2.018577936,1.3366332280000002,1.461893096,-2.427285308,-1.519246292,4.93777012
22,1747666114660,1.552085258974359,1.598919171794872,1.2888224358974358,-2.421626471794872,-0.7950959174358975,3.8677011641025643
23,1747666114670,1.2089503160000001,1.7603126832,1.1731147928,-2.502929972,-0.376454268,3.2915275968
24,1747666114680,0.8932975153846154,1.9732403931623932,1.1229240726495726,-2.6045571615384615,-0.1411359793162393,2.935933176923077
25,1747666114690,0.7801677097560975,2.1246969463414636,1.1425748902439024,-2.6249028268292682,0.027310151219512194,2.576897829268293
26,1747666114700,0.6171068799999999,2.4211130533333334,1.2951142266666666,-2.2564954999999998,0.21009691533333333,1.4653436266666666
27,1747666114710,0.5277944228813559,2.5567459042372884,1.3756348186440677,-1.9721526144067798,0.28279954855932204,0.9825819523728813
28,1747666114720,0.49644757999999994,2.5903280248000002,1.4004219688000001,-1.6613335776,0.37116661040000004,0.59170851664
29,1747666114730,0.476303447368421,2.6048700412280703,1.441451251754386,-1.1020223122807018,0.5631909486842105,0.01033112368421053
30,1747666114740,0.4751795,2.6043348,1.4492118,-0.9767735,0.60903263,-0.11056661
31,1747666114750,0.4751795,2.6043348,1.4492118,-0.9767735,0.60903263,-0.11056661
32,1747666114760,0.6290615553278688,2.307421308196721,1.4281829778688526,0.47697061147540987,1.2636148377868852,-1.3367684145081966
33,1747666114770,0.721944580952381,2.114105223809524,1.4510249476190478,1.1552625761904762,1.4104297047619048,-1.8141243047619047
34,1747666114780,0.8655146461538461,1.8603607307692307,1.443767617948718,1.785851523931624,1.4383475008547006,-2.2057404273504275
35,1747666114790,1.0278878102564104,1.5995449623931624,1.3777135965811966,2.5106561666666667,1.5045610999999999,-2.6660195333333334
36,1747666114800,1.1736482118110234,1.4017591212598426,1.2389672188976377,2.9775785354330706,1.6292593771653545,-2.9643125527559055
37,1747666114810,1.2952524416666666,1.2903306291666667,1.1547975625,3.2098016766666664,1.6668120691666666,-3.1694437775
38,1747666114820,1.4692064165289258,1.1438398157024792,1.0870007132231405,3.416392644628099,1.6568079140495868,-3.6237233314049586
39,1747666114830,1.5702532990990992,1.050543309009009,1.0532653162162162,3.5150121702702704,1.6543056162162164,-3.929360432432432
40,1747666114840,1.654965330357143,0.9400431446428571,1.0260472071428572,3.5765177946428572,1.6818211321428571,-4.280638185714286
41,1747666114850,1.7334283814516127,0.7675836369354838,1.0133867008064514,3.6040359330645164,1.79235255,-4.83166826532258
42,1747666114860,1.7498904,0.72582626,1.0164984,3.6065483,1.8252654,-4.9663343
43,1747666114870,1.6749959355932202,0.5523946186440678,1.0286660788135593,3.6397421669491523,1.8440313618644066,-5.387826198305085
44,1747666114880,1.6086959626086954,0.4431464052173913,1.032128651304348,3.6877934999999997,1.8161024000000001,-5.8526998
45,1747666114890,1.4483349779661017,0.3506895901694915,1.0332804372881357,3.85433701440678,1.602066577118644,-5.973149140677966
46,1747666114900,1.3205817754098361,0.2410645531147541,0.9691553259016393,4.163106455737705,1.219988055737705,-5.856585401639344
47,1747666114910,1.2039215982608695,0.12939915260869564,0.7685681474782609,4.452007144347825,0.7095810554782609,-5.599440346086957
48,1747666114920,1.1734232809523808,0.11674459261904763,0.6396721049206349,4.444403501587302,0.5658454398412698,-5.482370004761904
49,1747666114930,1.137519225862069,0.11693919336206897,0.49775053913793105,4.285925499999999,0.48753367,-5.348504243103448
50,1747666114940,1.085566657142857,0.13407562663865547,0.3667401169747899,4.03476494117647,0.5364115376470587,-5.300801188235294
51,1747666114950,1.0596966,0.14374973,0.3133695,3.456485453125,0.710779840625,-5.2269830187499995
52,1747666114960,0.886207347008547,0.06748704641025641,0.16111115692307693,3.2022025,0.6882101692307692,-5.090574946153846
53,1747666114970,0.81832397,0.035144243,0.102259986,3.1441233,0.6609562,-5.0371947
54,1747666114980,0.6357175226923076,-0.08241156177884615,0.04774135298076923,2.984499560576923,-0.18092771230769233,-4.517536391346154
55,1747666114990,0.42432402458333335,-0.19615084458333332,-0.04337100841666666,2.82683992,-1.148671012,-3.8978088
56,1747666115000,0.6356551933333333,-0.3046322653333334,-0.13829911266666667,2.5209186933333334,-1.97895906,-3.2237395466666663
57,1747666115010,0.9073797713675213,-0.4047741571794872,-0.19019778358974357,2.064473935897436,-2.630511105128205,-2.7931734794871796
58,1747666115020,1.0068581137096775,-0.4137478904032258,-0.1736920074032258,1.3301886470967743,-2.9538685,-2.417982016129032
59,1747666115030,1.1013468807017543,-0.46062381333333335,0.013024949228070171,0.1301786,-2.7998366526315785,-1.8735879631578947
60,1747666115040,0.9719901078947369,-0.517459215,0.22999185236842107,-0.196521784122807,-2.063234885964912,-1.37737255
61,1747666115050,0.9123936157480315,-0.5488040881889763,0.24903448102362205,-0.27268159700787403,-1.6600238763779527,-1.116671307086614
62,1747666115060,0.674971975462963,-0.5710600907407408,0.208777405,-0.438601255,-0.50396381,-0.18967364999999997
63,1747666115070,0.42905265,-0.5532778,0.21208574,-0.5102824648437501,0.12486467140625,0.421382478125
64,1747666115080,0.26503678115384616,-0.4564527461538462,0.1555771035576923,-0.5284101790384615,0.5142428278846154,1.3654951980769232
65,1747666115090,0.3031191,-0.35583547,0.079318605,-0.44837508,0.48930305,2.3445008
66,1747666115100,0.3031191,-0.35583547,0.079318605,-0.44837508,0.48930305,2.3445008
67,1747666115110,0.2820515908474576,-0.0068170573220338974,0.05090041230508475,-0.0858006793220339,-0.7482581566101696,3.6483252847457623
68,1747666115120,0.40490257904761906,0.04152459733333333,0.047393593,-0.026209027142857142,-1.2447688190476192,4.199232971428572
69,1747666115130,0.5882061157692309,0.08571102961538461,0.06536040969230769,-0.015453715875,-1.5418238509615385,4.572149947115384
70,1747666115140,0.7428238592920354,0.12146492008849559,0.07625385592920353,-0.027418660221238938,-1.852305617699115,5.236298960176992
71,1747666115150,0.8439062934959349,0.1544485574796748,0.08394379365853658,-0.06268073260162602,-1.9323207845528454,5.6604710650406505
72,1747666115160,0.9781546219780219,0.20534065252747255,0.10415612534065935,-0.13999554527472527,-1.8829552582417581,5.9816327362637365
73,1747666115170,1.1066664396694215,0.2292665703305785,0.1376503074380165,-0.3257426444628099,-1.7964840743801653,6.387005039669422
74,1747666115180,1.3095226791208792,0.22552231,0.20940917120879124,-0.5829936945054945,-1.673106191208791,6.742777507692307
75,1747666115190,1.4062579,0.22233616,0.24454537,-0.6365216,-1.6462818,6.8129800000000005
76,1747666115200,1.544698337704918,0.2275093629508197,0.3353786685245902,-0.6495901124590164,-1.6157885852459015,6.838245655737706
77,1747666115210,1.5984438520661155,0.23137836628099173,0.3677619976859504,-0.633381450661157,-1.598841272727273,6.850464774380166
78,1747666115220,1.6615417,0.24478942,0.37633628,-0.4447099,-1.5589281,6.868569
79,1747666115230,1.6971909303921568,0.3353729471568627,0.31269954901960784,-0.2567430643137255,-1.5306246950980391,7.115538083333333
80,1747666115240,1.717217627927928,0.37899672954954955,0.2955489355855856,-0.24301429792792792,-1.5386980342342342,7.242897184684685
81,1747666115250,1.7866942536,0.4706126712,0.28624009896,-0.3413515,-1.57163408,7.4333749
82,1747666115260,1.8912796475409837,0.5468802865573771,0.28988799540983606,-0.39906524262295084,-1.5215751475409838,7.412709532786885
83,1747666115270,2.118623195348837,0.7635397389147287,0.2585493311627907,-0.4927077900775194,-1.2375845341085272,7.046254875968992
84,1747666115280,2.118609016393443,0.8332734520491802,0.2363834441803279,-0.5624967181967213,-1.0346705122950821,6.7608964540983605
85,1747666115290,2.006176773553719,1.0780876181818182,0.19111093900826448,-0.7529747090909091,-0.6767831799999999,6.2067241636363635
86,1747666115300,1.841650157936508,1.2508689833333333,0.20270116166666666,-0.9340517476190475,-0.4966237711111111,5.790779499999999
87,1747666115310,1.6413847504347827,1.4458397339130435,0.22591211730434782,-1.1827679260869566,-0.3236523521739131,5.2279705000000005
88,1747666115320,1.493452882644628,1.6228596363636363,0.26732337181818183,-1.3015620214876034,-0.3069067809917356,4.911119090909091
89,1747666115330,1.4604386,1.688388,0.28920785,-1.3732251,-0.321926,4.684115
90,1747666115340,1.4604386,1.688388,0.28920785,-1.3732251,-0.321926,4.684115
91,1747666115350,1.5146915608,2.1298427047999997,0.41884519175999996,-1.5184496959999998,-0.33154345856,3.1561795096000003
92,1747666115360,1.5227992565573771,2.239171263934426,0.46430690819672127,-1.5431407049180328,-0.3187164547540983,2.7225112795081965
93,1747666115370,1.4846021578125,2.3756780195312497,0.50763336234375,-1.29432802578125,-0.09793887904687501,1.846573990625
94,1747666115380,1.4308112921052631,2.3985625710526315,0.4861684726315789,-1.122882857894737,0.060363130052631574,1.3301268565789475
95,1747666115390,1.262833501754386,2.3451503728070175,0.39810875482456143,-0.6385631571929824,0.336988631754386,-0.23025333166666667
96,1747666115400,1.1607016377952757,2.264799281102362,0.28414221377952753,-0.528489791968504,0.3994770058267717,-0.9892746554330708
97,1747666115410,1.1470127076923078,2.247504330769231,0.26788099615384614,-0.5194077225641026,0.41453210803418805,-1.2224144786324787
98,1747666115420,1.1858958266129034,2.168497864516129,0.29856861991935485,-0.5698830604838709,0.3746820920967742,-2.0310677741935486
99,1747666115430,1.3707559939655172,2.071787372413793,0.4350152177586207,-0.5756825526724137,0.26813825387931034,-2.785445386206897
100,1747666115440,1.4638554,2.0222585,0.48640612,-0.54305923,0.23396139,-2.9895744
101,1747666115450,1.4638554,2.0222585,0.48640612,-0.54305923,0.23396139,-2.9895744
102,1747666115460,1.6147770184210524,1.724442250877193,0.514070207368421,-0.41149812999999996,0.3892175957894737,-3.6180261684210526
103,1747666115470,1.7115957545454545,1.411560590909091,0.5500606545454546,-0.1019943016694215,0.8907929520661156,-4.792550753719008
104,1747666115480,1.6390989435897436,1.1025922897435898,0.5580525273504274,0.39971472047863243,1.404932577777778,-5.785347986324786
105,1747666115490,1.6612387948275864,1.003079527586207,0.5393833355172414,0.6098910218965516,1.474460102586207,-6.005516161206897
106,1747666115500,1.7377394440944882,0.8004578196850394,0.4968851738582677,0.9905059125984251,1.5064562212598425,-6.406851007874016
107,1747666115510,1.7574561999999998,0.7473033,0.48616204,1.0897835000000002,1.4813483,-6.528928
108,1747666115520,1.760551580487805,0.7103653315447155,0.47447903967479677,1.1593576089430895,1.4326777260162602,-6.641590339024391
109,1747666115530,1.7701909948717947,0.5556119676923077,0.42395246743589743,1.4235196222222224,1.231368611111111,-7.09418168888889
110,1747666115540,1.7686684411764706,0.5129652735294118,0.4080780694117647,1.4663794,1.1941183613445379,-7.198184504201681
111,1747666115550,1.7246084905511812,0.4074237956692913,0.37257933417322836,1.5081974204724409,1.2680985212598426,-7.352898538582677
112,1747666115560,1.6597485,0.38192836956521736,0.38049587260869566,1.5187012643478262,1.3158993460869564,-7.34463491826087
113,1747666115570,1.5871822016806723,0.3564261271428572,0.3903419033613445,1.5816070672268907,1.4634432016806722,-7.284486109243697
114,1747666115580,1.5180320491803279,0.32413602950819675,0.3793810078688524,1.6771756131147542,1.5787612295081968,-7.233906590163935
115,1747666115590,1.3748167133858267,0.2866384966929134,0.21249315401574803,2.023536776377953,1.705559881889764,-7.07039007480315
116,1747666115600,1.2987719158730158,0.3461351531746032,0.16569163222222222,2.099049414285714,1.4308210142857143,-6.884538571428571
117,1747666115610,1.2339446839285715,0.47057066294642863,0.10261735544642857,2.0623520321428574,0.7975282240178572,-6.514659380357143
118,1747666115620,1.2334653,0.5191097,0.06858008,1.9903862322580648,0.28457452435483865,-6.26392029032258
119,1747666115630,1.2347311372881355,0.4220659606779661,0.06112599606779661,1.8257468305084747,-0.705865119322034,-5.934271080508474
120,1747666115640,1.19622222,0.290281694,0.03114170468,1.761399425,-1.1734720900000002,-5.7615283349999995
121,1747666115650,1.1024262483870968,0.08101519516129033,-0.11911174997258064,1.6678099370967743,-1.3464454935483872,-5.378156022580645
122,1747666115660,1.0335229428571429,-0.17289918462184875,-0.3576074574789916,1.5106697,-1.3585643,-4.889365
123,1747666115670,1.023088,-0.35485923,-0.49543622,1.078579561111111,-1.2888723833333333,-4.3440955119047615
124,1747666115680,0.964613963478261,-0.47117905373913044,-0.521858068173913,0.09741439965217392,-1.020373319130435,-3.2332991043478256
125,1747666115690,0.946454,-0.48665017,-0.50495446,-0.2657264,-0.8924741,-2.8179214
126,1747666115700,0.934087190625,-0.4762472040625,-0.28234754689062497,-1.020116353125,-0.5355379171875,-1.8192044390625
127,1747666115710,0.9288819,-0.473227,-0.022941383,-1.6597209,-0.1459968,-0.8142834
128,1747666115720,0.9251803583333333,-0.49216179,0.05536031833333333,-1.6921170516666666,0.04386012216666667,-0.5193271083333333
129,1747666115730,0.8827399566371681,-0.5365199060176992,0.19160005663716814,-1.5961800849557521,0.3906996701769912,-0.026283426371681417
130,1747666115740,0.6341931101694914,-0.5306052810169491,0.26879389237288137,-1.080687943559322,0.7274939171186441,0.5963753144915255
131,1747666115750,0.3831458872131147,-0.4853258580327868,0.28080186229508197,-0.40392213288524587,0.9301425102459016,1.346211855737705
132,1747666115760,0.26455808,-0.4283205,0.2294138,-0.027488936,0.83077675,1.8283197
133,1747666115770,0.26455808,-0.4283205,0.2294138,-0.027488935999999995,0.83077675,1.8283197
134,1747666115780,0.2815696956779661,-0.40222084728813556,0.17686289891525425,0.13390372862711866,0.6500279332203389,2.1500852067796608
135,1747666115790,0.3878069800000001,-0.26406994,-0.114218794,0.9627235999999999,-0.30726522,3.8374555000000004
136,1747666115800,0.49318780377952753,-0.215383407007874,-0.23509630363779527,1.0249933669291338,-0.6312931653543308,4.440682657480315
137,1747666115810,0.5987716479674796,-0.1841064794308943,-0.3025992369105691,0.9466176341463415,-0.8873935426829268,4.99330212195122
138,1747666115820,0.6777056677419355,-0.17125930330645162,-0.3276508009677419,0.8233281358870966,-1.0945621749999999,5.508728663709678
139,1747666115830,0.8498977893103448,-0.16316279810344828,-0.25288959370689656,0.6754695103448276,-1.091679448275862,6.256387089655172
140,1747666115840,0.9015029074782608,-0.16144281513043476,-0.2366591319130435,0.6394271626086957,-1.028612143478261,6.506633835652173
141,1747666115850,0.98013395,-0.16010156,-0.21721096,0.5179511803149607,-0.8266113125984252,6.991256452755906
142,1747666115860,0.98013395,-0.16010156,-0.21721096,0.3304781,-0.60231316,7.442782
143,1747666115870,1.2360686285714286,-0.09175777931746032,-0.21657562285714285,0.27576202365079366,-0.5676780660317461,7.50689373015873
144,1747666115880,1.5324964714285714,0.06671043703571429,-0.22341698017857142,-0.08365581026785715,-0.39312996008928575,7.763551705357143
145,1747666115890,1.679846,0.16132185,-0.22697324,-0.3652974,-0.32070425,7.823962
146,1747666115900,1.7342436487179487,0.27729492905982905,-0.1617703214102564,-0.6402128598290597,-0.3923373384615385,7.905828410256411
147,1747666115910,1.8582519,0.55620646,0.024405725,-1.1856894,-0.6310238,8.141612
148,1747666115920,1.8582519,0.5562064599999998,0.024405725,-1.1856894,-0.6310238,8.141612
149,1747666115930,2.294052864227642,0.790219694308943,0.3892673579674797,-1.190755092682927,-1.250639755284553,8.574626130081299
150,1747666115940,2.3500273,0.82027644,0.43613032,-1.1905763000000003,-1.3329079,8.631526
151,1747666115950,2.54848843015873,0.9978183865079365,0.4764811158730159,-0.8343546161904761,-1.2074187492063493,7.970104349206348
152,1747666115960,2.9862845,1.4875289,0.54034275,0.19669860000000003,-0.74097955,5.924782
153,1747666115970,2.7869776616,1.5799348247999998,0.45246651847999997,0.23074090848,-0.5248505332,5.5790810848
154,1747666115980,1.6901431252173913,2.0045652147826085,0.16494874017391306,-0.1096051560869565,0.49993213208695647,4.242097674782609
155,1747666115990,1.46654,2.0879097,0.12690976,-0.2565634,0.6725626600000001,4.019493
156,1747666116000,1.3212324641666666,2.174476905,0.09411050508333332,-0.6350300456666667,0.5400404969166667,3.3732742566666665
157,1747666116010,1.3118078,2.1808956,0.09445015,-0.66828656,0.5216789,3.3011158
158,1747666116020,1.1951860804878047,2.2155101455284556,0.22276474593495935,-0.6969624640650407,0.3966601278861789,2.032443012195122
159,1747666116030,1.0542010648275861,2.2289412172413794,0.2600051317241379,-0.5877945456896552,0.39689915758620686,1.1776955468965515
160,1747666116040,0.9513002463392857,2.2169745973214288,0.23793402375,-0.45378563428571433,0.47001718857142855,0.6004805471428571
161,1747666116050,0.8358088857142857,2.169843335714286,0.21993045142857143,-0.20579371666666668,0.5949148777777777,-0.33380391555555555
162,1747666116060,0.8158608135294118,2.1448080411764705,0.22212491445378155,-0.03269412068907563,0.6454073384873948,-0.915599712605042
163,1747666116070,0.910755781031746,2.0871815047619044,0.1964118477777778,0.2147627685714286,0.6348635142857143,-1.6979435428571428
164,1747666116080,0.9577181461538462,2.0568769769230766,0.17275498153846153,0.2695795323076923,0.6267007538461539,-1.9244604461538461
165,1747666116090,1.1315602421487603,1.8821090561983471,0.06588133917355372,0.2970572032231405,0.5418828876033058,-3.3002979090909093
166,1747666116100,1.15524488125,1.857413025,0.0568348328125,0.284916138828125,0.53393915390625,-3.46071384375
167,1747666116110,1.2559186,1.7606289,0.056377225,0.18325958,0.5345071,-3.907094
168,1747666116120,1.35514256,1.678157148,0.0894518622,0.09077946488000001,0.5690478231999999,-4.2725577536
169,1747666116130,1.5627806300884954,1.4292229628318585,0.3091708585840708,0.10715549408849558,0.7221291874336282,-5.0918053557522125
170,1747666116140,1.645678,1.3269392,0.4026944599999999,0.14110987,0.8063421,-5.514281000000001
171,1747666116150,1.645678,1.3269392,0.40269446,0.14110987,0.8063421,-5.514281
172,1747666116160,1.920120375,0.88083309375,0.5335396250000001,1.1396455,0.8712465375,-6.7880108749999994
173,1747666116170,1.920120375,0.88083309375,0.5335396250000001,1.1396455,0.8712465375,-6.7880108749999994
174,1747666116180,1.934680609090909,0.8251797265909091,0.5040447704545454,1.2943124295454547,0.8300547852272728,-6.9532152499999995
175,1747666116190,1.9205898508474577,0.6360731869491526,0.3098368830508475,1.7210559067796611,0.6021992627118644,-7.489518305084745
176,1747666116200,1.8982773,0.60062486,0.2677308,1.7684549,0.5174029,-7.606494
177,1747666116210,1.8445131959349592,0.5550337549593496,0.22292150756097562,1.7664136902439023,0.37571193365853656,-7.754115012195122
178,1747666116220,1.5551816128,0.42515553512,0.11723728136000001,1.606819944,0.2676567164,-7.8894711399999995
179,1747666116230,1.2896892280991736,0.3561864161157025,0.06183320955371901,1.5190098330578512,0.40206040041322316,-7.757650191735538
180,1747666116240,1.1780643,0.32679266,0.041245673,1.5070046,0.48258355,-7.671856400000001
181,1747666116250,1.1780643,0.32679266,0.041245673,1.5070046,0.48258355,-7.6718564
182,1747666116260,1.0079000740384616,0.34971526048076923,-0.08332442508653845,1.5777768432692307,0.5131972914423076,-6.980451014423077
183,1747666116270,0.7285468590163934,0.46863389409836065,-0.4549426918032787,1.4673383409836065,0.1919518868852459,-5.348345491803279
184,1747666116280,0.8566410000000001,0.5025139,-0.5449798,1.102001,-0.14782938,-4.986492999999999
185,1747666116290,0.9662313982142858,0.4488735841964286,-0.5530794875,0.4732405866071429,-0.47309877562499997,-4.861271151785715
186,1747666116300,1.0264362099173554,0.19293633446280992,-0.4459107438842975,-0.535057370247934,-0.7326849083471074,-4.840304285950413
187,1747666116310,1.0166910605263157,-0.030963159210526316,-0.3525342807894737,-0.9158584315789473,-0.6714427412280701,-4.646391078947368
188,1747666116320,0.9866286408264463,-0.2065652147107438,-0.28771324793388425,-1.090283367768595,-0.6323111663636363,-4.412228991735538
189,1747666116330,0.8848295554918032,-0.48910671885245904,-0.14779866409836065,-1.2162327,-0.63285637,-3.9956696
190,1747666116340,0.8504216906896552,-0.6139891206896553,-0.006875684000000001,-1.2009295284482757,-0.8186331795689654,-2.7164229000000004
191,1747666116350,0.9092667440322582,-0.6045848919354839,0.0630100695,-1.0661175798387097,-1.0378798096774193,-1.4585638811290322
192,1747666116360,0.99233675,-0.5764632,0.099087246,-0.9425651,-1.1239921,-0.87964594
193,1747666116370,1.1548388909836065,-0.5057425914754099,0.11181023196721311,-0.6839537416393443,-1.0752180098360655,-0.1422865443442623
194,1747666116380,1.2185779,-0.46590528,0.09322987,-0.54367006,-0.9388999,0.13500121
195,1747666116390,1.2185779,-0.46590528,0.09322987,-0.54367006,-0.9388999,0.13500121
196,1747666116400,0.582247387,-0.32704282625,-0.04103822675,-0.3438662171666667,0.15022703558333333,1.04964466125
197,1747666116410,0.26040908974358973,-0.22534203213675214,-0.0653301641880342,-0.2432496687179487,0.4619707658119658,1.9330230393162393
198,1747666116420,0.19864474317073172,-0.1608158675609756,-0.03838246829268292,-0.09535457085365853,0.3810309326829268,2.681489892682927
199,1747666116430,0.2102893926126126,-0.09737883873873873,0.0019568551891891886,0.09102442364864864,0.17109730536936937,3.266819308108108
200,1747666116440,0.26935420901785717,-0.05320229834375,0.016693951785714284,0.2755002203571429,-0.06294093689285714,3.6872480857142853
201,1747666116450,0.4590061843902439,0.02860231814634146,-0.012298103073170731,0.6082280956097561,-0.5264615273170732,4.299180170731708
202,1747666116460,0.6741361415384616,0.10399967512820513,-0.07360516025641026,0.8546005,-0.9095783,4.718323
203,1747666116470,0.7747914486614174,0.15637536637795277,-0.1657629138582677,0.8854996757480316,-1.0926070464566928,4.947354291338582
204,1747666116480,0.82003236,0.17474499999999998,-0.20159128,0.7755084557377049,-1.1310470893442623,5.2127983401639355
205,1747666116490,0.9250679776271187,0.2362970677966102,-0.20258405830508475,0.6908886,-1.1007792,5.3322425
206,1747666116500,0.9595842843200001,0.2545204816,-0.19508959865599998,0.66054081384,-1.0708712373600002,5.396368688000001
207,1747666116510,1.1241193865546217,0.3176394702521008,-0.07822547191596639,0.2552492715966387,-0.6633586063865546,6.27052125210084
208,1747666116520,1.203772336134454,0.34929515537815126,-0.03279391112605042,0.2072527218487395,-0.5889048858823529,6.441029773109244
209,1747666116530,1.343770753448276,0.42696133879310344,0.032817282965517246,0.17512874155172414,-0.5739500310344827,6.660042622413793
210,1747666116540,1.4524879898305085,0.4824763783050847,0.047140277491525426,0.1625626227118644,-0.6065995633898306,6.7456606
211,1747666116550,1.513643,0.5132524,0.0302631,0.13622294,-0.62796944,6.753115
212,1747666116560,1.5220158663366337,0.5352755366336635,0.03406894289108911,0.0995589316831683,-0.6585006120792078,6.7617881821782175
213,1747666116570,1.5589671132231406,0.6240866214876032,0.05384790309090909,-0.029508325041322312,-0.784931532231405,6.814580623140497
214,1747666116580,1.6776238684210527,0.7175668310526315,0.14590769157894737,-0.038902469578947364,-0.9765484684210526,6.9773672157894735
215,1747666116590,1.8787731638655463,0.8510850068067226,0.2485015462184874,0.04752429006722689,-1.1233041957983192,7.07591414369748
216,1747666116600,1.9802804,0.9108216,0.2706595,0.09773844,-1.1239921,7.040833
217,1747666116610,2.074191488181818,1.116721621818182,0.2620531427272727,0.18531985054545455,-0.9490402729090909,6.525234826363637
218,1747666116620,2.1245184,1.3742863,0.22526483,0.25350907,-0.6737844,5.7549615
219,1747666116630,1.9330153605042018,1.4740257537815127,0.13933413075630252,0.12871802831932772,-0.3572381052521008,5.1122183067226885
220,1747666116640,1.6169434754385965,1.5732658403508772,0.04376760087719298,-0.07589732950877193,-0.022055449736842102,4.544623105263158
221,1747666116650,1.334159775609756,1.6771196975609757,-0.01226238930487805,-0.28718116585365855,0.1880421987804878,4.212661014634146
222,1747666116660,1.2153923130434783,1.814722667826087,0.014507612764347826,-0.7414894643478261,0.4091362945217391,3.6956444852173918
223,1747666116670,1.178435296,1.921736044,0.06809197664,-0.878961764,0.3864333592,3.456373348
224,1747666116680,1.1861450694915252,2.0570385788135592,0.14895766127118645,-0.9463493405084746,0.3572422762711865,3.0512305406779663
225,1747666116690,1.2060316440677967,2.196457293220339,0.23374066610169492,-0.8158312301694916,0.4580660901694915,1.8305664644067798
226,1747666116700,1.2035263336065574,2.21952055,0.24380919614754096,-0.7507934360655737,0.5069680649180328,1.403498006557377
227,1747666116710,1.1561899512396694,2.2437009454545453,0.24402094305785124,-0.5512629780991737,0.6462096067768596,0.5293020992975206
228,1747666116720,1.0386262333333334,2.152178161904762,0.16373917333333332,-0.19279101357142858,0.7880598206349206,-1.0969540118650793
229,1747666116730,1.029283223076923,2.1355009384615387,0.15238559384615383,-0.16493362,0.7965683,-1.2272283
230,1747666116740,1.0093740530434783,1.9914010765217391,0.07601640139130435,-0.07213521942608696,0.7761441453913044,-2.078848777391304
231,1747666116750,1.0069802,1.9505056,0.05686534,-0.04642576,0.76174897,-2.3878722
232,1747666116760,1.0266415405172413,1.850431548275862,0.018426322672413793,-0.06552056493103448,0.752459609137931,-2.7909274448275863
233,1747666116770,1.093612807936508,1.7229956785714284,-0.01715180073015873,-0.1472088284920635,0.7791876873015873,-3.247795930952381
234,1747666116780,1.2412995850000001,1.51764558,-0.00783423775,-0.34602463800000005,0.896078205,-3.8846447000000004
235,1747666116790,1.283497,1.4643435,0.029286869,-0.5155703,1.0128145,-4.3353105
236,1747666116800,1.4456515084033614,1.3378193529411764,0.20679442281512603,-0.4874448205882353,1.0416278462184874,-4.889688803361345
237,1747666116810,1.6605743297297297,1.149975836036036,0.44997121441441446,-0.3041503563063063,1.0282072234234234,-5.639051153153153
238,1747666116820,1.7266475723577235,1.0472556227642276,0.5121015373170732,-0.10036068621138211,0.9800115886178862,-5.924017089430894
239,1747666116830,1.7630007358974358,0.963012376923077,0.5072886141025641,0.146994017008547,0.9348274756410256,-6.239758811965812
240,1747666116840,1.797245923076923,0.844846938974359,0.42315354119658116,0.39076579461538463,0.9478749192307692,-6.640246246153846
241,1747666116850,1.8140279284552845,0.7581648310569106,0.3492955087804878,0.49068867048780485,0.9875456451219512,-6.888012126829268
242,1747666116860,1.8063100147826086,0.7046569340869565,0.3199951260869565,0.50420816,1.03040754,-7.0390004
243,1747666116870,1.7498963707317072,0.6514840207317073,0.2977915141463415,0.49720458894308944,1.0544775788617884,-7.1357704471544725
244,1747666116880,1.5805672247933884,0.5559200429752066,0.27446960132231407,0.4380055319008265,1.0875521223140496,-7.151015762809918
245,1747666116890,1.4924101,0.5098356,0.26675457,0.4007276,1.105666,-7.1318517
246,1747666116900,1.3740115117647058,0.4574761,0.2384521519327731,0.3377622662184874,1.133052331092437,-7.036603060504201
247,1747666116910,1.2087320811965812,0.4197784576068376,0.20725674085470083,0.2286985576068376,1.1896260871794873,-6.853991723931625
248,1747666116920,0.7388979360000001,0.38124669952,0.3087109556,0.07388048824,1.1905079448000002,-6.027402388800001
249,1747666116930,0.7128828068965518,0.3591933548275862,0.3515097646551724,0.14183658948275862,1.127088481034483,-5.822072312068966
250,1747666116940,0.6972716,0.32679266,0.4080637,0.24984388,1.0341948,-5.5588737
251,1747666116950,0.7156403168,0.30508132688,0.40247186256,0.33241331615999997,0.9964286752,-5.4842796904
252,1747666116960,0.8407772,0.15717287,0.36437747,0.8949176,0.73914695,-4.976108
253,1747666116970,0.8708997088,0.132599233264,0.32904578864,0.9709972064,0.7022018124,-4.957635504
254,1747666116980,1.0079604719008266,-0.012535666677685952,0.08311863454545455,1.4550254272727272,0.36374249999999997,-4.858100136363636
255,1747666116990,0.7141557139655172,-0.023383209551724137,-0.3354188069827586,1.3601546948275862,-0.2785756058620689,-4.184900965517241
256,1747666117000,0.58232063,-0.010738519,-0.50812715,1.1184943,-0.64568454,-3.6370916
257,1747666117010,0.6456396421649484,-0.02755582442268041,-0.5378568520618556,0.8973988593814434,-0.7453122600000001,-3.232346162886598
258,1747666117020,0.92082804,-0.1044565,-0.6160005,-0.11056661,-1.1496484,-1.382999
259,1747666117030,1.108276554310345,-0.19159335405172412,-0.5524740599137931,-0.4345516320689655,-0.8950808112068965,-0.7707012928448276
260,1747666117040,1.1887984982300885,-0.2462516096460177,-0.4903088422123894,-0.6382892980530973,-0.5690128560884956,-0.2953938763716814
261,1747666117050,1.2163813,-0.2962855,-0.37121108,-0.81061816,0.029321533,0.40194935
262,1747666117060,1.2163813,-0.2962855,-0.37121108,-0.8106181600000001,0.029321533,0.40194935000000004
263,1747666117070,0.8748671696721312,-0.23382285319672133,-0.25942885442622954,-0.6693831233606558,0.4203654252213115,1.055890587295082
264,1747666117080,0.60977808,-0.1571367803478261,-0.18979377008695653,-0.4637051696521739,0.48917559034782604,1.5968071017391305
265,1747666117090,0.5549862,-0.1164153,-0.1803583,-0.19608775,0.3494149,2.162463
266,1747666117100,0.5226356682926829,-0.05966306510894309,-0.1730365882926829,0.0036999552520325203,0.14776979126829268,2.5563171479674796
267,1747666117110,0.5186216,-0.0021965152,-0.16986385,0.20891592,-0.105068825,2.9767463
268,1747666117120,0.596505886885246,0.05775754706229508,-0.15715086459016395,0.4076724386885246,-0.4168604588934426,3.4411240270491805
269,1747666117130,0.7834238,0.136428,-0.15009521,0.6750061,-0.80756384,4.039652
270,1747666117140,0.7834238,0.136428,-0.15009521,0.6750061,-0.80756384,4.039652
271,1747666117150,0.8483000728,0.25141800447999996,-0.13913996879999999,0.7581668224,-0.93899273312,4.3810178751999995
272,1747666117160,0.8535571626168224,0.2896890943925234,-0.14241995327102805,0.7492062209345796,-0.941234891588785,4.513323671028037
273,1747666117170,0.8560471398425197,0.3303670207086615,-0.14467790913385828,0.7247795748031496,-0.9296936407086613,4.700593766929134
274,1747666117180,0.8584950157983193,0.4291654495798319,-0.14382970789915966,0.63346726,-0.88514376,5.3279667
275,1747666117190,0.8507334700854701,0.4463890512820513,-0.11547454222222223,0.5259549833333332,-0.9627236,5.650096266666667
276,1747666117200,0.8629864499999998,0.4588276,-0.08688438,0.48075095,-1.0164797,5.7861156
277,1747666117210,0.9949622469696969,0.5202560930303031,0.014465936212121213,0.32498031393939397,-1.2764491515151515,6.247022742424242
278,1747666117220,0.9949622469696969,0.5202560930303031,0.014465936212121213,0.32498031393939397,-1.2764491515151515,6.247022742424242
279,1747666117230,1.1963686,0.58329684,0.117147475,0.1600467,-1.5344933999999997,6.7079115
280,1747666117240,1.3611192203252032,0.6662465261788618,0.1738322524390244,0.09712757715447154,-1.449568330081301,6.75624900406504
281,1747666117250,1.4628792,0.7443746300000001,0.22355644,0.070249505,-1.2956452,6.7439523
282,1747666117260,1.53212628,0.8140773353333333,0.291892456,0.11992302545833335,-1.1526823683333334,6.674893823333334
283,1747666117270,1.5693948875,0.8878650512499999,0.33048403000000004,0.202520923046875,-1.03672904296875,6.5896275546875
284,1747666117280,1.6307325610169492,1.0483954544067795,0.34778157711864405,0.31460594423728816,-0.9440094093220339,6.4800948610169495
285,1747666117290,1.729329673770492,1.2090555065573771,0.33547069704918037,0.4886922,-0.947452,6.274808
286,1747666117300,1.777469,1.291795,0.32117933,0.5226853770491804,-0.9469863139344262,6.133247287704918
287,1747666117310,1.8203533142857145,1.400156457142857,0.2634423585714286,0.5370583411764706,-0.8735372911764706,5.771634641176471
288,1747666117320,1.7959413073770492,1.4927722065573772,0.2053581641147541,0.4396477157377049,-0.6951746595081967,5.396478799180328
289,1747666117330,1.6138469681415928,1.8225872115044246,0.01127414907079646,-0.03503555557522124,0.06127032575221238,3.9431242389380534
290,1747666117340,1.4933863,1.8933961,0.0102504045,-0.23273966,0.29443705,3.5375206
291,1747666117350,1.3887691333333334,1.9605018601626016,0.0398448257398374,-0.3983437372357724,0.49589841382113814,3.1176127991869924
292,1747666117360,1.2954084611111112,2.020665013888889,0.07772545225,-0.5159322622222222,0.6850967022222222,2.655544381481482
293,1747666117370,1.1858170127659575,2.1005122074468088,0.13912561686170213,-0.5577264761702128,0.8506493500000001,2.027435770212766
294,1747666117380,1.0731009500000002,2.171499319230769,0.17733575076923075,-0.4371445746153846,0.8812906076923077,1.2062943807692308
295,1747666117390,0.9827977740425532,2.210909555319149,0.18679726723404252,-0.2777617255319149,0.8496096021276596,0.4582918893617021
296,1747666117400,0.9249944042857143,2.1994962,0.1438020064285714,-0.08447393642857144,0.7690793571428571,-0.35918876285714285
297,1747666117410,0.9225364,2.1982236,0.14082102,-0.07452556,0.7648033,-0.40317106
298,1747666117420,0.9225364,2.1982236,0.14082102,-0.07452556,0.7648033,-0.40317106
299,1747666117430,0.9225364,2.1982236,0.14082102,-0.07452556,0.7648033000000001,-0.4031710600000001
300,1747666117440,1.1352384787878789,1.81384823030303,0.02214264725252525,-0.2614441496868687,0.8769556763636364,-2.5898094713131314
301,1747666117450,1.281265125,1.5137788112903225,0.038318954959677416,-0.45523254225806453,1.030982912096774,-4.416220708064516
302,1747666117460,1.3045469857142857,1.426837082142857,0.09437170357142857,-0.44510259678571434,1.0651308821428571,-4.696048371428572
303,1747666117470,1.3522762688,1.2800645992,0.18797874416000002,-0.36723263976,1.0779278792,-5.0846909104
304,1747666117480,1.435732739344262,1.0245082606557376,0.34906189229508194,-0.13050484791803277,0.9601299221311476,-5.762722580327869
305,1747666117490,1.4372531,0.9974619,0.36242503,-0.056199603,0.91446525,-5.9596014
306,1747666117500,1.4380290984375002,0.8654955875,0.41347493171875,0.071328061859375,0.859134233984375,-6.2927710664062495
307,1747666117510,1.4399377,0.8080735,0.43173727,0.15149458,0.8436049,-6.477615
308,1747666117520,1.4261165672131146,0.706717763114754,0.4018402694262295,0.24438615721311474,0.9414785319672131,-6.706829619672131
309,1747666117530,1.403432103305785,0.6245909190082644,0.3623665166942149,0.3052609707438016,1.072795452892562,-6.895461949586777
310,1747666117540,1.3733101,0.605506,0.34949,0.3213151,1.1685852,-6.9473705
311,1747666117550,1.3091535250000002,0.632977724375,0.3979201025,0.497182297265625,1.2314327320312501,-6.9088524937499995
312,1747666117560,1.292283,0.6535853,0.42685616,0.589485,1.2076806,-6.8490210000000005
313,1747666117570,1.2994993000000001,0.6676918096000001,0.42418909864,0.7051291232,1.144561112,-6.760856048
314,1747666117580,1.3527676560975612,0.721183212195122,0.3196911843902439,1.7625250658536584,0.5403326473170731,-6.075829512195122
315,1747666117590,1.3329687098360656,0.6410543885245902,0.16741527016393443,2.0538892229508194,0.2957789491803278,-6.0212086
316,1747666117600,1.2975106387096773,0.5051434161290324,-0.13721529032258065,2.221382012903226,0.06421967870967742,-5.95636985483871
317,1747666117610,1.2786158,0.3448529,-0.4927516,2.189952,-0.3775147200000001,-5.5906386
318,1747666117620,1.1015678766666666,0.2773207041269842,-0.8162552484126985,1.608068853968254,-0.40352982833333334,-5.117538026984127
319,1747666117630,0.9788855895081968,0.1762733462295082,-0.8882483360655737,0.5834764854098361,-0.48259354819672134,-4.337523732786885
320,1747666117640,0.9910585616949152,0.06400918338983051,-0.8059845932203389,-0.4550428393220339,-0.5601841310169492,-3.4881338169491527
321,1747666117650,1.0489895483870968,0.010966829451612902,-0.6930989870967742,-0.8251804129032259,-0.5010080403225806,-3.095727174193548
322,1747666117660,1.1374378404958678,-0.07051035428099174,-0.4955088232231405,-1.2232298545454545,-0.15410463963636364,-2.4015889272727273
323,1747666117670,1.2106594777777777,-0.18618856666666667,-0.3563235722222222,-1.2817310476190475,0.11007209647619047,-2.0165242714285716
324,1747666117680,1.2417135898305083,-0.3149517538135593,-0.268328543220339,-1.2010542796610169,0.37921272101694914,-1.6568114169491528
325,1747666117690,1.0568724892857142,-0.40624197767857145,-0.20990667410714287,-0.9068621660714286,0.7981172892857142,-0.9699558410714285
326,1747666117700,1.0077124,-0.4170938,-0.19500175,-0.8784242,0.816116,-0.9108001
327,1747666117710,0.8612399828440367,-0.41169097394495413,-0.1629675547706422,-0.8035455814678899,0.7422517423853212,-0.674596991559633
328,1747666117720,0.56474847,-0.3900035,-0.10494461,-0.6658431,0.5491679,-0.17837265
329,1747666117730,0.56474847,-0.3900035,-0.10494461,-0.6658431,0.5491679,-0.17837265
330,1747666117740,0.30501162035087714,-0.31351080105263157,-0.031757413975438596,-0.37248848350877195,0.1113703850877193,0.9488666298245615
331,1747666117750,0.2730355218181818,-0.179636219338843,-0.019790825694214875,0.07919034925619835,-0.16749318330578514,2.1349084214876033
332,1747666117760,0.33753118,-0.14179726,-0.06494746838842975,0.50701815,-0.22907446,2.9981264999999997
333,1747666117770,0.44260855584,-0.090644813568,-0.15129792168,0.66123474072,-0.27032985472000004,3.420175848
334,1747666117780,0.5670207244827586,-0.023984936165517244,-0.20819765931034484,0.8103654003448275,-0.32668651862068965,3.898773848275862
335,1747666117790,0.59842837,-0.0043930304,-0.22819352,0.82711154,-0.34880406,4.0201044
336,1747666117800,0.6944767366129032,0.10750328418709677,-0.2382786106451613,0.7760254469354838,-0.48282987548387096,4.488293075806451
337,1747666117810,0.7065269746153846,0.11863059653846154,-0.22864409615384615,0.7489155705128204,-0.5454452760683761,4.634807012820513
338,1747666117820,0.72673333575,0.07551131229166666,-0.21278131,0.75158823,-0.7315314933333333,5.15951032
339,1747666117830,0.73485637,0.04881145,-0.20818083,0.7648033000000001,-0.766025,5.283373399999999
340,1747666117840,0.73485637,0.04881145,-0.20818083,0.7631815265486724,-0.7825021469026548,5.373997676106195
341,1747666117850,1.0160143180327867,-0.06949629975409835,-0.3315097721311476,0.557149141147541,-1.055374844262295,6.887645567213115
342,1747666117860,1.167349172173913,-0.03926774906608696,-0.3338024184347826,0.36967970486956525,-1.1603783426086958,7.35501928
343,1747666117870,1.5193598496,0.1021233106624,-0.24096650256000002,-0.034574964799999997,-1.432992144,7.95932992
344,1747666117880,1.9861190034482759,0.29238269,-0.11358761060344827,-0.4150934582758621,-1.6708849827586205,8.29272775862069
345,1747666117890,2.129629243697479,0.3609217137815126,-0.07559827250420167,-0.45194787714285717,-1.645552925210084,8.207657487394957
346,1747666117900,2.3897965983606557,0.5756230421311476,0.041479731229508196,-0.42405063344262295,-1.49697038852459,7.874353196721312
347,1747666117910,2.471883635294118,0.7538497764705883,0.1298097445882353,-0.31193653411764705,-1.3222358176470588,7.5180981764705885
348,1747666117920,2.4620570023437502,1.06018087109375,0.231368172734375,-0.06573482460937499,-1.0329778796875,6.9528731484375
349,1747666117930,2.2413130722689076,1.465165905042017,0.3101906008403362,0.2180789,-0.7287622000000001,6.358496
350,1747666117940,2.1713774,1.5446383,0.3133695,0.4040020657657658,-0.5791167477477478,5.974746394594595
351,1747666117950,2.1713774,1.5446383,0.3133695,0.4184427,-0.5674938,5.9449406
352,1747666117960,2.066122744144144,1.6545696297297299,0.28015133387387386,0.4846803054054054,-0.5343750064864865,5.783837297297297
353,1747666117970,1.729822670967742,1.9622084,0.13224556153709677,0.47518912088709675,-0.41832445943548385,4.871640553225807
354,1747666117980,1.36008226,2.24869444,-0.05012936086,0.0292271245090909,-0.1307862448181818,3.3916570845454546
355,1747666117990,1.257481010714286,2.3019260267857145,-0.04343783353571429,-0.35923240258928574,0.14273520616071428,2.77149554375
356,1747666118000,1.1179750612903225,2.3647730096774193,0.05353907477419355,-0.9590190161290324,0.6474777267741936,1.6996438806451613
357,1747666118010,1.0812671816666668,2.355201178333333,0.13714390783333333,-1.0753977125,0.8039139166666666,1.3514121253333333
358,1747666118020,1.0468190113821139,2.310868886178862,0.24543827040650404,-1.1758411219512195,1.1104338048780489,0.5421652590243903
359,1747666118030,0.9983943558974359,2.188179682051282,0.33428333435897434,-0.9531534222222222,1.3319577000000002,-0.5210680422222222
360,1747666118040,0.96573454,2.1032853,0.38439015,-0.7788532,1.4391985,-1.1490375
361,1747666118050,0.9090537490243902,1.9798320585365852,0.3780923021138211,-0.45629647195121953,1.3892565447154472,-1.7519416016260163
362,1747666118060,0.8595696700000001,1.8731394,0.36462155,-0.1685988,1.3304645,-2.270586
363,1747666118070,0.85956967,1.8731394,0.36462155,-0.1685988,1.3304645,-2.270586
364,1747666118080,0.8617514356034482,1.748024301724138,0.2763590775,0.08862286646551723,1.1215485836206895,-2.742210875862069
365,1747666118090,0.8900767600000001,1.4731296,0.07834238,0.6401868,0.6273586,-3.7910297
366,1747666118100,1.0506526458064518,1.3220758653225808,-0.027895347774193547,0.6120179888709677,0.4751743370967742,-4.293170795967741
367,1747666118110,1.101985777586207,1.2642839568965516,-0.06417863643103448,0.5815437,0.46731192,-4.440990399999999
368,1747666118120,1.1673658859375,1.1023417625,-0.08564693226562499,0.32489441203125,0.9343804171875,-5.13985352734375
369,1747666118130,1.1704986,1.0855666,-0.073217176,0.25534168,1.1050552,-5.3426275
370,1747666118140,1.1896891464912283,1.0722397850877194,-0.041410520298245615,0.2691665194736842,1.2479119877192981,-5.470276771929824
371,1747666118150,1.2779144700787402,1.0617854527559056,0.00092049942992126,0.3870624925984252,1.4304972952755906,-5.692715700787402
372,1747666118160,1.3225190863247864,1.0453764422222223,0.011718919717948719,0.460968305982906,1.422391882051282,-5.765466221367522
373,1747666118170,1.70230904,0.8263289864,0.0567677158,1.6410284055999997,0.7446544904,-6.7033857856
374,1747666118180,1.7476153610169491,0.7339752369491525,0.01535906059322034,1.9667272661016948,0.35550286745762716,-6.912768405084746
375,1747666118190,1.7294924894736843,0.6661734578947368,-0.03844543868421052,2.1913022236842106,-0.04026887763157896,-7.026991828947368
376,1747666118200,1.4855764,0.6113634,-0.18060236,2.3866506,-0.64873886,-7.0225067
377,1747666118210,1.4855764,0.6113634,-0.18060236,2.3866506,-0.64873886,-7.0225067
378,1747666118220,1.4855764,0.6113634,-0.18060236,2.3866506,-0.64873886,-7.0225067
379,1747666118230,1.2379859513761469,0.7664405128440367,-0.1716326982568807,1.814521985321101,-0.7320631270642202,-6.297308866972477
380,1747666118240,0.9664667,0.9230245,-0.15497635,1.1606439,-0.7959574,-5.480683
381,1747666118250,0.893310066,0.8276801320000001,-0.16848735536,1.0918165832,-0.69189532064,-5.1724648496
382,1747666118260,0.85590875,0.6457755,-0.22209209000000002,1.0396926,-0.7049385,-4.7470336
383,1747666118270,1.089135994375,0.363523266875,-0.3599996915625,0.8036075375,-0.8401019921875,-4.1290434453125
384,1747666118280,1.2774551571428572,0.2025346954621849,-0.4710714957983193,0.4829942210084034,-0.9248089294117647,-3.681125250420168
385,1747666118290,1.2878901,0.16644704,-0.4515059,0.1282817,-1.0274754,-3.4306192
386,1747666118300,1.3319805671875,0.120423187125,-0.33360338437500003,-0.3359949975,-1.2376130578125,-3.13597213125
387,1747666118310,1.4660478644628099,0.0016398212231404936,-0.15992606765454545,-0.828060661322314,-1.4460340818181818,-2.8161292082644622
388,1747666118320,1.5584413733870968,-0.2522213643548387,-0.002212260823387097,-1.1349678451612903,-1.4447849612903225,-2.594108233064516
389,1747666118330,1.486368588983051,-0.4469164044915254,0.039897154491525415,-1.3696842016949153,-0.8827934755932204,-2.2328470186440676
390,1747666118340,1.3481722,-0.5923269400000001,0.06199054,-1.4049901000000002,-0.52290064,-1.9407189
391,1747666118350,1.1808089311475407,-0.6990239811475409,0.06482320350819672,-1.4150343180327867,-0.17607940213114753,-1.5247696737704919
392,1747666118360,0.724341749908257,-0.7455679953211009,0.056298856055045865,-1.388513547706422,0.3103924086238532,-0.4854417027431193
393,1747666118370,0.5210000156862745,-0.7085412118627451,0.06645774245098039,-1.3570311558823527,0.46700648784313725,0.07995148151960783
394,1747666118380,0.3909797,-0.63625723,0.09396204,-1.2864822,0.49602258,0.5681047
395,1747666118390,0.2933568,-0.5449798,0.117391534,-1.1453724,0.46670106,1.187522
396,1747666118400,0.2933568,-0.5449798,0.117391534,-1.1453724,0.46670106,1.187522
397,1747666118410,0.25521322552631576,-0.4240301834210526,0.12258738442105264,-0.8667856657894738,0.3924326994736842,1.9412171842105261
398,1747666118420,0.25171890062499996,-0.24878585169642856,0.10342797053571429,-0.3438189353482143,0.34175181848214287,3.249519425
399,1747666118430,0.3458708012195122,-0.1920671043902439,0.04809118551219512,0.005497787,0.43982297,4.1508293
400,1747666118440,0.39366436000000005,-0.19426957,-0.0014643435,0.07484134133050847,0.4767078294067796,4.38659757881356
401,1747666118450,0.4400014969105691,-0.21635775601626014,-0.035556959682926825,0.2335640779674797,0.5628701211382114,5.119984463414633
402,1747666118460,0.5902974010526316,-0.26201901649122805,-0.10114673771929826,0.27615396614035087,0.5821277927192983,5.804457671052632
403,1747666118470,0.761325662601626,-0.28517989146341466,-0.19165835105691056,0.10065371585365854,0.4429219976422764,6.617374030081301
404,1747666118480,0.9379926000000001,-0.2568543257391304,-0.25118159556521735,-0.29289662717391307,0.1624742247130435,7.3119453443478255
405,1747666118490,1.0286083327433628,-0.23793638557522123,-0.2704996601769912,-0.5736295513274335,-0.015985208601769912,7.551872984070797
406,1747666118500,1.3361912504132232,-0.1575137473553719,-0.21768695,-1.1830592363636363,-0.2379648281818182,7.806549867768595
407,1747666118510,1.6997189324786326,-0.00015227461538462166,0.01612863068376069,-1.6817120666666667,-0.24862215,7.858577666666666
408,1747666118520,2.131901112096774,0.29373863991935484,0.38710431661290323,-1.893746320967742,0.091713532,7.481483354838709
409,1747666118530,2.149835372580645,0.4146453806451613,0.4910549916935484,-1.8191173088709676,0.16442127996774195,7.371320620967742
410,1747666118540,2.146660575221239,0.5299562603539824,0.5925494053097345,-1.627301792035398,0.19270906946902658,7.270831557522124
411,1747666118550,2.29472927578125,0.88638159953125,0.75677006328125,-0.949127111796875,-0.07148078203124998,7.16198468125
412,1747666118560,2.4524399600000004,1.1640342226086955,0.6892813165217391,-0.32525121817391306,-0.3365814405217391,6.8989898591304355
413,1747666118570,2.480901898360656,1.3371056393442624,0.5721421704918033,-0.04881915131147541,-0.3633646740983606,6.505935181967213
414,1747666118580,2.342474410619469,1.566292482300885,0.37097131283185836,0.09298125840707964,-0.19590934495575218,5.737597831858407
415,1747666118590,2.0409424735849058,1.8085102481132074,0.12019358893396226,0.023777641415094333,0.08635098896226415,4.94757049245283
416,1747666118600,1.8012944901639345,1.9308608852459015,-0.0005681334180327863,-0.3748459394262295,0.48842181926229505,4.372197960655737
417,1747666118610,1.5979864176470588,2.064207570588235,-0.04034122694117647,-0.6282928544117647,0.7073999129411764,4.0874071647058825
418,1747666118620,1.525955924590164,2.141488412295082,-0.019388547155737703,-0.7628755290983608,0.815334839672131,3.9240630622950823
419,1747666118630,1.445795,2.361986,0.11251039,-1.0983357,1.0024298,3.046385
420,1747666118640,1.445795,2.361986,0.11251039,-1.0983357,1.0024298,3.046385
421,1747666118650,1.4431548429752066,2.4188292049586773,0.16497664826446282,-1.0468211165289256,0.971321143801653,2.5661741669421487
422,1747666118660,1.3831537805555556,2.5220604194444443,0.26318860944444444,-0.7492771486111112,0.8318457444444444,1.279219636111111
423,1747666118670,1.2543244476190476,2.5035721611111112,0.21786563571428572,-0.4042667558730159,0.7859556992063492,0.3179989517460317
424,1747666118680,1.126808223140496,2.4115356958677685,0.13065735876033058,0.11145009479338844,0.7797719768595041,-1.381837773553719
425,1747666118690,1.13579356,2.30765883,0.109337654,0.21558961875000002,0.7571522030000001,-1.99024477
426,1747666118700,1.1896124341463414,2.0795819829268294,0.11090914365853659,0.30952990146341464,0.6794758346341463,-2.614667136585366
427,1747666118710,1.2338878638655462,1.9021308403361343,0.13013789016806723,0.4069235228571429,0.49523717428571423,-3.4924912
428,1747666118720,1.2953663100917432,1.7507345376146788,0.1819480409174312,0.48022416146788993,0.32850539357798164,-4.202063577981652
429,1747666118730,1.390428980952381,1.5805031047619047,0.2746225176190476,0.5711706733333334,0.22677062542857143,-4.686831447619047
430,1747666118740,1.436738936893204,1.4945165300970873,0.32291854504854367,0.6044422970873786,0.20222604378640777,-4.825028669902912
431,1747666118750,1.6083373,1.2115002,0.400742,0.883922,0.20525073,-5.552765
432,1747666118760,1.618502377669903,1.194582049514563,0.40255465533980583,0.9054268291262135,0.21396890242718444,-5.598763739805825
433,1747666118770,1.6781375,1.0953289,0.4131889,1.0421361,0.26939157,-5.8911843
434,1747666118780,1.7783834895652173,0.9247859765217392,0.3901032189565217,1.2401520643478263,0.309931767826087,-6.386951840869565
435,1747666118790,1.7957731,0.895202,0.38609856,1.2620475999999998,0.31337386,-6.445239
436,1747666118800,1.7681578262626263,0.6316250767676768,0.31475249717171716,1.3141500575757576,0.2488010911111111,-7.058714262626263
437,1747666118810,1.7328066,0.5637722,0.29506522,1.3084733,0.24923302,-7.197214
438,1747666118820,1.6604609571428572,0.5350083214285715,0.2842569628571428,1.3246175857142857,0.2832669342857143,-7.273136142857143
439,1747666118830,1.2870314625000001,0.5204607930357142,0.2768873055357143,1.513833138392857,0.26356107876785717,-7.389255136607143
440,1747666118840,1.0790436027272727,0.5382793818181818,0.27955647727272726,1.6636082727272725,0.05292314463636363,-7.177277795454546
441,1747666118850,0.839228994921875,0.5895126875000001,0.328886206640625,1.79280833828125,-0.4107018975,-6.5972302734375
442,1747666118860,0.898394163539823,0.5349972778761062,0.3087086516814159,1.8988934415929204,-0.7835130548672566,-6.0414681061946895
443,1747666118870,1.161617217073171,0.3842413604878049,0.14185083073170732,1.9783689512195122,-1.122293468292683,-5.332182926829268
444,1747666118880,1.2385550316239315,0.3368156883760684,0.07059303725880342,1.8602255846153846,-1.0526617,-5.155655584615385
445,1747666118890,1.3005811,0.26943922,0.00024405724,1.6408288550458714,-0.9128512357798165,-4.994899552293578
446,1747666118900,1.2227829476190477,0.11696928384920634,-0.17053209576666667,1.1789699357142858,-0.6091635392857143,-4.677700728571429
447,1747666118910,1.1475570454545454,-0.06088118881818182,-0.33555652454545454,0.7621376945454545,-0.3672966172727273,-4.330146418181818
448,1747666118920,1.1493817047619048,-0.30743076666666663,-0.41214296190476196,-0.18097610166666667,-0.08050331333333334,-3.3364733714285717
449,1747666118930,1.1590278,-0.3863426,-0.4229512,-0.35430184,-0.08124508,-3.0934217
450,1747666118940,1.1979213387931034,-0.45415688103448276,-0.3953601094827586,-0.5835026613793104,-0.15805611120689655,-2.7027944051724133
451,1747666118950,1.2295720666666665,-0.4969354370634921,-0.36448206203174605,-0.7646384063492063,-0.21889821880952381,-2.3000822230158726
452,1747666118960,1.3147364,-0.56767714,-0.26358184,-1.2565498,-0.3811799,-0.77457714
453,1747666118970,1.3151412253968253,-0.5685119706349206,-0.2599132333333333,-1.2556916801587301,-0.3794539634126984,-0.7723615414285715
454,1747666118980,0.9892656529629629,-0.7091354314814814,0.30191011,-0.5522957175925925,0.5419619176851851,0.004490990055555556
455,1747666118990,0.98574716,-0.7094744000000001,0.30287504000000004,-0.5467244,0.548557,0.009162978
456,1747666119000,0.6871411645901639,-0.682420038032787,0.17617332740983604,-0.1299140142622951,0.8930249573770492,0.47770664134426233
457,1747666119010,0.39866314553571425,-0.5909889614285715,-0.026770027808035717,0.2977531762946429,1.0307805710714286,1.3489595375892858
458,1747666119020,0.3590082,-0.5449798,-0.09005712,0.38240165,0.91690874,1.6982054
459,1747666119030,0.3883807263157895,-0.44025358315789476,-0.223594979122807,0.5450686065789473,-0.03194718236842104,2.7314249701754383
460,1747666119040,0.45766452882882885,-0.3893482700900901,-0.2600309072972973,0.6075907882882883,-0.44060445387387387,3.17357142972973
461,1747666119050,0.5069944758778626,-0.3563645741984733,-0.27871337648854966,0.6344138770229009,-0.6121242961832061,3.412279207633588
462,1747666119060,0.6427367286274509,-0.20045235529411762,-0.3633964423529412,0.5747163992156863,-0.7273967929411764,4.032345450980392
463,1747666119070,0.6978711360629921,-0.11722434905511811,-0.4052829917322835,0.3563220354330709,-0.6040591325984251,4.573307732283464
464,1747666119080,0.7486551509565218,-0.04020789765217391,-0.4243603675652174,0.18786497153043477,-0.48743327913043477,4.788716382608696
465,1747666119090,0.79538256,0.04515059,-0.43222540000000004,-0.108123146,-0.29993483,5.0469685
466,1747666119100,0.79538256,0.04515059,-0.4322254,-0.108123146,-0.29993483,5.0469685
467,1747666119110,0.959145,0.38561043,-0.055400997,-0.8045095,-0.46120325,6.007248999999999
468,1747666119120,0.959145,0.38561043,-0.055400997,-0.8041706609375,-0.462849723046875,6.0091818125
469,1747666119130,1.0756781991666666,0.4435577594166667,0.02128992731,-0.7450112566666667,-0.7161886171666667,6.306725291666666
470,1747666119140,1.2568948,0.5725583,0.102504045,-0.6731735,-0.91324353,6.5387015
471,1747666119150,1.3789234,0.665056,0.14643435,-0.5477170425,-1.3493822103125002,7.03875184375
472,1747666119160,1.7649050181818182,0.8638840049586777,0.26897932834710747,-0.4265354038842975,-1.6071359702479338,7.364434826446281
473,1747666119170,1.9412313,0.9476743,0.31825066,-0.36651915,-1.6780468,7.447058
474,1747666119180,2.2654164983333334,1.164075675,0.37838229233333337,-0.16126842519999998,-1.56312268,7.212078733333333
475,1747666119190,2.553083,1.4828918,0.33509058,0.084910266,-1.070236,6.4073653
476,1747666119200,2.308473571428572,1.7056230777777777,0.1903220403174603,0.04976127592063492,-0.6411757817460317,5.695901708730159
477,1747666119210,2.1545374,1.7713674,0.14570218,-0.10553328591735536,-0.3004295768595041,5.1572425
478,1747666119220,1.9864213475806454,1.7991328798387096,0.14939846483870967,-0.18598383919354838,-0.1955212094516129,4.978330125806451
479,1747666119230,1.2553939883333334,1.9119690183333333,0.17610764133333331,-0.7375485093333333,0.33124168660000003,4.032015955
480,1747666119240,1.0135201399999998,1.9583567525423726,0.22892570644067797,-0.9555589135593221,0.5200948061016949,3.58650366440678
481,1747666119250,0.8866827348837208,2.029863906976744,0.28833946511627906,-1.0466253162790697,0.5993866372093023,3.241009595348837
482,1747666119260,0.782960924137931,2.1847920965517242,0.36727250620689655,-1.1136915931034483,0.7334174724137931,2.5840231965517244
483,1747666119270,0.7895252,2.2558212,0.37316352,-1.1471133050000002,0.9144041900000001,1.8842444150000002
484,1747666119280,0.8314987813793103,2.3699893500000004,0.41561686448275864,-1.1337659,1.0873401,1.2754866
485,1747666119290,0.83223516,2.3719923,0.41636166,-1.1337659,1.0873401,1.2754866
486,1747666119300,0.9327766121666666,2.503616495,0.5099556092499999,-0.9088656803333333,1.1826656591666667,0.20669642625
487,1747666119310,1.0252845,2.548934,0.56743306,-0.5693264,1.1765264,-0.8881981
488,1747666119320,1.1565345928,2.4283951119999996,0.55338124816,-0.028608040432,1.0789004072,-2.04937968
489,1747666119330,1.2527604547008546,2.2378548598290595,0.5177121473504273,0.6436379018803419,0.9486580290598291,-3.271590570940171
490,1747666119340,1.2944796,2.0876658,0.46785772,0.8313876,0.9114109,-3.566842
491,1747666119350,1.4101451864,1.8597104359999999,0.33335875904,1.2832616951999998,0.837872512,-4.2373961656
492,1747666119360,1.5584570103448274,1.6070538431034482,0.16227913431034482,1.6696105681034483,0.7666358939655172,-4.911662075000001
493,1747666119370,1.6193199,1.4977793,0.07834238,1.7525724,0.7476991,-5.081788
494,1747666119380,1.6973493897435896,1.240305217948718,-0.08998829082051282,1.7769234085470085,0.7261151806837607,-5.374001008547008
495,1747666119390,1.6944074522123893,1.1916905318584072,-0.10067469785840709,1.710774024778761,0.7450664007079646,-5.614062557522124
496,1747666119400,1.6656427131147542,1.0269368452459016,-0.06861209449180328,1.5080760655737704,0.8044494196721311,-6.164802154098361
497,1747666119410,1.646622142105263,0.9648417465789474,-0.03473962136842105,1.4475899157894734,0.8127401421052631,-6.265387742105263
498,1747666119420,1.5728811333333335,0.8158562577777777,0.03366634327777778,1.3583606555555556,0.8031520622222222,-6.442218816666666
499,1747666119430,1.535448956521739,0.7677828913043478,0.06233010156521739,1.3169139043478262,0.7927384293913043,-6.569542278260871
500,1747666119440,1.4802072,0.7236297000000002,0.105676785,1.3500122,0.77396625,-6.632775
501,1747666119450,1.4802072,0.7236297,0.105676785,1.3500122,0.77396625,-6.632775
502,1747666119460,1.2969202,0.63332856,0.14741059,1.473407,0.30604348,-6.2173862
503,1747666119470,1.2969202,0.63332856,0.14741059,1.473407,0.30604348,-6.2173862
504,1747666119480,1.2482994296874999,0.6926458950000001,0.12640640734375,1.41109870625,0.18580802359375,-6.0577214562499995
505,1747666119490,1.2129645,0.69165826,0.07736614,1.2767084,0.059864793,-5.8685822
506,1747666119500,1.0879739904,0.5728179868,0.020584761711999997,1.209224864,0.002277304208000001,-5.7634304296
507,1747666119510,0.8368638682758621,0.3333821898275862,-0.09485410603448276,1.0006709655172414,-0.19012654448275862,-5.333633039655172
508,1747666119520,0.7106795496124031,0.17694150176744186,-0.1708495192248062,0.7246235255813954,-0.43807560837209303,-4.622450364341086
509,1747666119530,0.7454060041739131,0.02085734111304348,-0.24691801530434782,0.3605592484782609,-0.5845236485217392,-3.8820114730434785
510,1747666119540,0.86201024,-0.09762289999999998,-0.29872608,0.095294975,-0.6640105,-3.3903022
511,1747666119550,0.9431172459016394,-0.11125809737704918,-0.2924526085245902,-0.17658511893442622,-0.6766333866393444,-3.12582756557377
512,1747666119560,1.2020157297029703,-0.16936364326732672,-0.2642535927722772,-0.5287008469306931,-0.7091419789108911,-2.863530663366337
513,1747666119570,1.2822767,-0.2208718,-0.23673552,-0.7110472,-0.75991637,-2.7769935
514,1747666119580,1.2411327333333333,-0.38527486166666663,-0.18591059875000002,-0.8322021199999999,-0.8187630458333333,-2.6822330208333334
515,1747666119590,1.2170670810000002,-0.45997468220000004,-0.1607971086,-0.8900001442,-0.8408560018,-2.601223121
516,1747666119600,1.0016361972413792,-0.6013065551724138,-0.05004856406896551,-0.9682635215517242,-0.7530283426724138,-1.640805093965517
517,1747666119610,0.9212642619469026,-0.6113331617699116,-0.03281381848318584,-0.9362780026548674,-0.6844934398230088,-1.3735385778761062
518,1747666119620,0.528384,-0.58183247,-0.017084008,-0.6914995,-0.15943582,0.18020524
519,1747666119630,0.43595926974358973,-0.5388700467521368,-0.02548625295726496,-0.6295880382905983,0.002177189743589742,0.558508345982906
520,1747666119640,0.38609856000000004,-0.51569295,-0.030019043,-0.59742624,0.086132,0.75502944
521,1747666119650,0.38609856,-0.51569295,-0.030019043,-0.59742624,0.086132,0.75502944
522,1747666119660,0.3716486138738739,-0.45896833322882885,-0.03305106908108108,-0.5278921603603604,0.07977019657657658,0.9799764358558558
523,1747666119670,0.41771542242187504,0.022876553584375,-0.06594312078125,0.23481087734375,-0.21851316906249998,3.1054574921875
524,1747666119680,0.5438083466666667,0.12616132386666667,-0.08229610333333334,0.5180442614999999,-0.5885228419999999,3.4648581375000003
525,1747666119690,0.61698647152,0.18114905288,-0.10472594103999999,0.70879913968,-0.80613687552,3.644993752
526,1747666119700,0.6355095918253968,0.22465858079365078,-0.15168932380952382,0.868407963095238,-0.9585009153968254,3.7958146825396826
527,1747666119710,0.6439670360655737,0.26123926663934427,-0.26529822442622947,0.9931267114754099,-1.0367685098360655,4.165940878688525
528,1747666119720,0.6870040289473685,0.2758488966666667,-0.3138190894736842,0.9194807873684211,-0.9221814542105264,4.658747789473685
529,1747666119730,0.7026408299999999,0.28432667,-0.33020946,0.86315256,-0.86070913,4.782464
530,1747666119740,0.7026408300000001,0.28432667,-0.33020946,0.8631525599999998,-0.86070913,4.782464
531,1747666119750,0.8779113104838709,0.33853692629032256,-0.317691675,0.5110281783870968,-0.6987904544354839,5.186773054032257
532,1747666119760,1.1030777175,0.4413409191666667,-0.16463898283333334,0.0971733885,-0.67848802925,5.56470761
533,1747666119770,1.2251793252032521,0.509085570894309,-0.035352585656910566,0.03924933515447154,-0.8175015853658537,5.755691402439024
534,1747666119780,1.270303882644628,0.5434912955371901,0.014173473641322315,0.0759391333801653,-0.8437109181818182,5.802957208264464
535,1747666119790,1.3148763868852458,0.5936472542622951,0.06551136632786886,0.16640069729508197,-0.8122555024590163,5.91355113442623
536,1747666119800,1.3519404279999998,0.619153734,0.0780006956,0.19233459351999999,-0.7493459376,5.9871829824
537,1747666119810,1.3860271892857143,0.6534110071428572,0.08186377178571427,0.20403444705357146,-0.6750824455357144,6.068302454464286
538,1747666119820,1.4679879666666664,0.7654286166666667,0.08358146400000001,0.215146734,-0.5925392966666667,6.16696956
539,1747666119830,1.5307758550000001,0.8537448486666667,0.0850214105,0.21685717,-0.61819565,6.2479296
540,1747666119840,1.6277826702702702,0.9826008975675675,0.07318419864864865,0.22351613945945947,-0.6754298027027027,6.310039944144144
541,1747666119850,1.6754290016393443,1.2528818819672132,6.401437704918034e-05,0.0999916281967213,-0.6580520491803279,6.073883163934426
542,1747666119860,1.650139313559322,1.3303250610169493,-0.012002239093220339,0.06536258,-0.6426302,6.006027
543,1747666119870,1.5832853450819673,1.4325921229508196,0.003474815254098361,-0.11356586054098361,-0.5345521501639344,5.698266245081967
544,1747666119880,1.5592817,1.4743499,0.01952458,-0.1740966,-0.49602258,5.5875845
545,1747666119890,1.5564351373831777,1.4990794962616822,0.02711544474766355,-0.1944321318691589,-0.4747222221495327,5.506539207476636
546,1747666119900,1.4977677507936509,1.8306811047619047,0.04942352985714286,-0.46883906500000005,-0.1664607775,4.4724497
547,1747666119910,1.4316659910714284,2.0978202017857144,-0.0027064207678571435,-0.7353944725,0.09127526933035715,3.7394005446428573
548,1747666119920,1.373007488,2.339171628,-0.0202372272,-1.0718974455999999,0.3271550004,3.0814485680000003
549,1747666119930,1.3314163016393443,2.4856431311475413,0.018904434032786886,-1.3522853967213115,0.5359191049180327,2.4600644426229508
550,1747666119940,1.2566714847457627,2.666275861016949,0.17933243491525425,-1.7925374415254236,0.9414469042372882,1.1339212398305083
551,1747666119950,1.2189871725806452,2.652725129032258,0.33370105580645165,-1.8686367,1.0726794,0.6206391000000001
552,1747666119960,1.1993435629310345,2.5950206568965517,0.45294081612068965,-1.7502500146551725,1.1440558689655171,-0.22776321103448277
553,1747666119970,1.1781774853658538,2.4978783024390245,0.5701594151219512,-1.5036224697560976,1.1713565219512194,-1.063784580487805
554,1747666119980,1.1007597886956522,2.050093619130435,0.6850113434782609,-0.28805218017391304,1.0978469495652174,-2.842255123478261
555,1747666119990,1.0860548,1.9873582,0.6721336,-0.15027285,1.0897835,-3.0066788
556,1747666120000,1.033236539130435,1.818079975652174,0.5693112671304348,0.21876412052173913,1.0691150539130434,-3.4132069252173913
557,1747666120010,1.0299496065573772,1.639940730327869,0.40366068049180326,0.7553098214754098,1.0189883786885245,-4.026112628688525
558,1747666120020,1.1512238848,1.4339456832000002,0.15378730048,0.9883115008,0.88801237088,-4.5952605848
559,1747666120030,1.2590914,1.3686731,0.07175283,0.9211848,0.8820894400000001,-4.8331656
560,1747666120040,1.2616701982300884,1.3668027132743363,0.0709969004778761,0.9162221955752213,0.8844301884070797,-4.842155594690265
561,1747666120050,1.4418901,1.2317569,0.029286869,0.5503896,1.0769554,-5.5008416
562,1747666120060,1.4551188525423728,1.2056365720338982,0.03242445246610169,0.4637295620847458,1.1845815796610168,-5.604740452542373
563,1747666120070,1.5518655483870967,0.9993080998387096,0.08899429016129032,-0.04795292220967742,1.8738686,-6.24958485
564,1747666120080,1.571490926724138,0.9432581273275862,0.16022357129310347,-0.07128692098060346,1.956580396551724,-6.3151773232758615
565,1747666120090,1.5824672,0.8668914,0.2550398,0.00061086525,2.0103576,-6.4519587
566,1747666120100,1.5824672,0.8668914,0.2550398,0.00061086525,2.0103576,-6.4519587
567,1747666120110,1.5819512526315789,0.8605737395614035,0.2607237654385965,0.028324855942982455,1.9982474614035086,-6.467723309649122
568,1747666120120,1.4311397829268293,0.605244126585366,0.37713391024390247,1.2721839902439023,1.468127648780488,-7.087238728455285
569,1747666120130,1.3747745,0.59745216,0.34900185,1.323745,1.4489723,-7.0970325
570,1747666120140,1.3747745,0.59745216,0.34900185,1.323745,1.4489722999999999,-7.0970325
571,1747666120150,1.2231937952755905,0.6166154403149606,0.286978642992126,1.460482622047244,1.2150494181102363,-6.823215778740158
572,1747666120160,0.8366008732758621,0.5277211912068965,0.017163958491379316,1.9978768586206896,0.3686940452586207,-5.691357657758621
573,1747666120170,0.7793079632000001,0.460846452,-0.08569728223999999,2.0772398592,0.22992479628799997,-5.437927124800001
574,1747666120180,0.6947312330434783,0.3344772711304348,-0.42927759686956524,1.9973221286956522,-0.08954221787826087,-4.421947038260869
575,1747666120190,0.7804623526785714,0.2952417119642857,-0.5832053003571429,1.5509649928571427,-0.19460420642857143,-3.8268742464285714
576,1747666120200,0.8361401,0.28335047,-0.63454884,1.3084733,-0.21502456,-3.5979962
577,1747666120210,1.046198723140496,0.25262951297520664,-0.6701448966942148,0.5814326285123967,-0.18728825859504133,-3.4029890016528923
578,1747666120220,1.2689863408000002,0.14314836632,-0.57411637168,-0.8000673168,-0.11787256039999999,-3.4102896488
579,1747666120230,1.2815446,0.04905551,-0.4685899,-1.0922271000000001,-0.12705997,-3.4171803
580,1747666120240,1.2444889504424779,-0.03736667685840709,-0.40789740973451327,-1.2151731743362832,-0.08515353317699115,-3.3225825955752217
581,1747666120250,1.2080834,-0.122272685,-0.3482697,-1.3359623,-0.043982297,-3.2296445
582,1747666120260,1.0465238469565217,-0.2958419513043478,-0.18417833704347827,-1.385596436521739,-0.03502648102608695,-2.257487026086957
583,1747666120270,0.8159448878048781,-0.4910015242276423,0.07491367079674797,-1.321376007317073,-0.045159330560975604,-0.6904068796747967
584,1747666120280,0.7731020959292035,-0.46641716070796463,0.11716476021238938,-1.0458985851327434,0.003594914486725665,-0.09586260539823009
585,1747666120290,0.5989164831034482,-0.36069135448275863,0.06959839796551724,-0.5371822503448276,0.11869743606896552,0.634583679137931
586,1747666120300,0.48191201203125,-0.30322778359375,0.0347819729609375,-0.308195826015625,0.136571334390625,1.0087151140625
587,1747666120310,0.3148545295762712,-0.22688430686440678,-0.0031169006779661014,-0.15300103398305084,0.06862915826271186,1.4772792677966102
588,1747666120320,0.2525418170588235,-0.1873785370588235,-0.00920239376235294,-0.060039324285714284,8.726542857142928e-05,1.8294541714285715
589,1747666120330,0.22062775,-0.14277348,-0.00024405724,0.16982053,-0.19730948,2.719572
590,1747666120340,0.305677174537037,-0.15084771490740742,0.01623658686962963,0.44603342018518516,-0.35629847472222226,3.4356759
591,1747666120350,0.36245101393442625,-0.15717486918032786,0.01623180731967213,0.59528817,-0.40866885999999997,3.8078285500000004
592,1747666120360,0.4299242714285714,-0.15874180714285713,0.002440571428571428,0.7484433831932774,-0.4199621612605042,4.234974749579832
593,1747666120370,0.51569295,-0.153512,-0.02318544,0.7959574,-0.41355577,4.392732
594,1747666120380,0.7089162452173913,-0.08192683353913044,-0.09817043973913042,0.811106888,-0.23567181,4.8765372000000005
595,1747666120390,0.7735597616666666,-0.04550311888888889,-0.12642165416666667,0.7626426434259259,-0.1461381964259259,5.130046365740741
596,1747666120400,0.8292454656451613,0.08463471986290323,-0.11529933080645162,0.5626068987096775,-0.07998393393548388,5.656907870967742
597,1747666120410,0.8568849503448276,0.12432612172413793,-0.09926396689655172,0.5333064431034483,-0.1330632979310345,5.78543106724138
598,1747666120420,0.9279514346875,0.16601612359375,-0.07224856828125001,0.50686068203125,-0.46487799078125003,6.295391059375
599,1747666120430,1.0349878922413793,0.19931061818965518,-0.04612260968103448,0.5326587017241379,-0.6477646660344828,6.514830256896552
600,1747666120440,1.206456300900901,0.259287740990991,-0.02903841625225225,0.5476324672072073,-0.8132597675675676,6.712495486486486
601,1747666120450,1.45031015,0.41099240000000004,-0.052350279000000007,0.4508136167741935,-0.740186404032258,6.842745137096775
602,1747666120460,1.6480652025210085,0.5968635289915967,-0.08824617779831932,0.24249296386554622,-0.5368940831932774,6.859750067226891
603,1747666120470,1.70847888828125,0.6819207278125,-0.10409041515625,0.05842830382812501,-0.433766815546875,6.80666169140625
604,1747666120480,1.7669702771929825,0.7667893254385965,-0.10811735687719298,-0.13797516771929824,-0.3751301975438597,6.752584909649123
605,1747666120490,1.8423188051724138,0.8781432099137931,-0.030561853568965517,-0.39425031318965514,-0.3619534565517242,6.718085151724138
606,1747666120500,2.0045574752,1.0253059448000001,0.11246353448,-0.492161916,-0.41480194,6.64939048
607,1747666120510,2.1993898666666665,1.2194185,0.22217344555555557,-0.4459316333333333,-0.43385007555555555,6.430239266666666
608,1747666120520,2.251834988888889,1.3591548333333332,0.23226114111111112,-0.35771494142857146,-0.3650162406349206,6.080562501587302
609,1747666120530,2.101089,1.6661788000000002,0.21013328000000003,-0.22724187,-0.20586158000000002,5.287039
610,1747666120540,1.8389714,1.8831457,0.106164895,-0.23090707,-0.007330383000000001,4.4489317
611,1747666120550,1.8389714,1.8831457,0.106164895,-0.23090707,-0.007330383000000001,4.4489317
612,1747666120560,1.6727684,1.9653930000000002,0.0656514,-0.2846632,0.09896017,4.067752
613,1747666120570,1.2631030395833334,2.1901340791666666,0.03243927710416667,-0.43367614687500006,0.285274065625,2.8711047625
614,1747666120580,1.1973797214285713,2.242171257142857,0.03141365507142858,-0.4659156492857143,0.30220376,2.5622741785714287
615,1747666120590,1.1024686305084745,2.3656219372881355,0.035632357,-0.5122881498305085,0.24374558644067798,1.9954896694915252
616,1747666120600,1.0738069152,2.4853482536000002,0.037846445344,-0.5740911399999999,0.14905112,1.11653944
617,1747666120610,1.0961638105263158,2.5097819842105267,0.04714800605263158,-0.6258260894736842,0.11089883622807017,0.19248683719298243
618,1747666120620,1.1404796,2.4959733,0.06272271,-0.6579019,0.12583824,-0.31764993
619,1747666120630,1.2236415260504203,2.411574911764706,0.1042534617815126,-0.6830346304201681,0.24836035764705885,-1.17049995302521
620,1747666120640,1.2683612276785714,2.196020510714286,0.16356629258928573,-0.6284603178571428,0.5186791542857143,-2.433403492857143
621,1747666120650,1.2185975588709677,1.8725016814516129,0.21481366991935485,-0.5173289464516129,0.7767200838709677,-3.5276186403225807
622,1747666120660,1.1708553034188034,1.7417302273504274,0.22256977427350427,-0.4296418974358974,0.8642489830769231,-3.951086778632478
623,1747666120670,1.1273005,1.6190758,0.22624107,-0.3481932,0.91813046,-4.2601743
624,1747666120680,1.116095808108108,1.5368263297297298,0.23239747288288287,-0.2880972590990991,0.9165895418018017,-4.4346065810810815
625,1747666120690,1.1050912,1.4560456,0.23844394,-0.22907446,0.91507614,-4.605924
626,1747666120700,1.1963686317460316,1.220685218253968,0.23947246412698414,0.025447871534126986,0.6609222390476192,-5.413143684920635
627,1747666120710,1.3711702348214285,0.959827096875,0.25893821919642857,0.10735956857142857,0.6081163464285714,-5.711328253571429
628,1747666120720,1.4191114952380952,0.8762933957142858,0.2615712719047619,0.1793034923809524,0.6199118666666668,-5.979585209523809
629,1747666120730,1.4412871347107437,0.6706007355371901,0.22862719074380167,0.3067603600826446,0.7182008097520661,-6.556739907438017
630,1747666120740,1.428223,0.6374775,0.21916342,0.31398472,0.73853606,-6.6388836
631,1747666120750,1.3814027634920634,0.5920615774603175,0.20322802857142858,0.3147022557142857,0.7783586549206349,-6.724986358730159
632,1747666120760,1.2507933,0.50617474,0.16644704,0.31520647,0.8063421,-6.785491
633,1747666120770,1.0682307912000002,0.46962471376,0.14751600896,0.2961083836,1.0264881968,-6.7367246208
634,1747666120780,0.9059056672268908,0.4782250336134454,0.17099798857142856,0.3473718523529412,1.094187961344538,-6.522834506722689
635,1747666120790,0.72315994275,0.54490052,0.26710235325,0.5171992533333333,0.9976651133333334,-6.187942906666667
636,1747666120800,0.814576938487395,0.6286381651260503,0.37562872647058826,1.2938177142857141,0.13716234336134453,-5.020850314285715
637,1747666120810,0.9646822704918033,0.6375455622950819,0.34931793491803276,1.5506063377049182,-0.15018272360655738,-4.763266836065574
638,1747666120820,1.193394639516129,0.6555456180645161,0.2283785308064516,1.8841941370967743,-0.5449410887096774,-4.561862870967741
639,1747666120830,1.3421371692982458,0.6910780650877194,0.02084976787631579,2.0932744157894736,-0.8962357863157895,-4.495196578947368
640,1747666120840,1.3372058818181818,0.6302868834710744,-0.22084558242644628,1.7736750454545454,-1.0985578254545454,-4.472310972727272
641,1747666120850,1.2750116616,0.52916103248,-0.3299224544,1.3456383936,-1.0503216912,-4.3841702944
642,1747666120860,1.2155260834710746,0.428001794214876,-0.3747973104132232,0.9731638462809918,-0.8936251814876033,-4.239919859504132
643,1747666120870,1.1775762,0.3619369,-0.39927766,0.7623598,-0.79229224,-4.147775
644,1747666120880,1.1390313074380165,0.2596748968595041,-0.41674087371900825,0.5217293854545455,-0.6403533533884298,-4.002015462809918
645,1747666120890,1.1177822,0.20329969,-0.42636803,0.35796702,-0.5369505,-3.902818
646,1747666120900,1.1177822,0.20329969,-0.42636803,0.35796702,-0.5369505,-3.902818
647,1747666120910,1.0929675027027026,0.0390645518918919,-0.4153876477477478,-0.07118506522522523,-0.3173857395315315,-3.2018363990990992
648,1747666120920,0.9229490214285715,-0.3334403033333333,-0.23774081190476193,-1.0776244865079367,0.24319224952380955,-0.8917566202380953
649,1747666120930,0.82427284375,-0.33368727,-0.17883295000000002,-1.09272340625,0.40996693125,-0.497511561875
650,1747666120940,0.624920797,-0.316664274,-0.108324811,-1.03636348,0.60078595,-0.0769690198
651,1747666120950,0.4559957919047619,-0.2724763698412699,-0.0715475119047619,-0.9373873166666666,0.7138833238095239,0.27935447761904764
652,1747666120960,0.22919637254545455,-0.17889397381818184,-0.022857070181818182,-0.6446405381818181,0.7603717356363636,1.137186710909091
653,1747666120970,0.1192737048,-0.10383757488,0.010535463432,-0.39546925584,0.69319520032,1.7437612904
654,1747666120980,0.11563684758620689,-0.04675379447413793,0.02057444656896552,-0.1947659495689655,0.5630176377586207,2.1408772879310347
655,1747666120990,0.14425183393442623,0.0102944135,0.022201207409836065,0.026046892295081968,0.3883200313114754,2.5327473868852457
656,1747666121000,0.30101630056,0.11391811328,-0.03895349016,0.45892107344,-0.08419189488,3.1781852536
657,1747666121010,0.42387905522522523,0.18089259243243244,-0.10908479585585587,0.667857327027027,-0.357092012972973,3.5009677837837843
658,1747666121020,0.4893601592,0.228414152,-0.16302633456,0.72075256,-0.46659841904,3.6957543104
659,1747666121030,0.5301908037815126,0.2843041251260504,-0.22044931235294116,0.6658430882352943,-0.4914231176470588,3.924126411764706
660,1747666121040,0.5620289900000001,0.31615872142857143,-0.2442315585714286,0.5368632571428571,-0.43458698000000007,4.155279742857143
661,1747666121050,0.6327126165079365,0.3471385,-0.25653515285714285,0.2576978696825397,-0.28538072746031745,4.621505838095238
662,1747666121060,0.6499941928571429,0.3615272178571428,-0.2381039875,0.15233996982142856,-0.23201425455357144,4.848257510714285
663,1747666121070,0.6622667793650793,0.3899260031746032,-0.1933669285714286,0.08583141428571428,-0.2368896619047619,5.079838822222222
664,1747666121080,0.6920910075630252,0.4159986452941176,-0.14485104470588236,0.05136401319327731,-0.3085433949579832,5.336554516806723
665,1747666121090,0.7324158,0.43027294,-0.11665936,0.04153884,-0.3933972,5.521
666,1747666121100,0.9305063256000001,0.48235669936,-0.07029824790400001,0.084362931,-0.6938158680000001,5.80300468
667,1747666121110,1.05359518,0.53697472,-0.0278225262,0.12256502279166666,-0.8287863341666666,5.8431753183333335
668,1747666121120,1.1158297,0.5710939,0.0014643435,0.17104226,-0.9230174,5.8502564
669,1747666121130,1.1158297,0.5710939,0.0014643435,0.17104226,-0.9230174000000001,5.8502564
670,1747666121140,1.2246265939655174,0.689432236724138,0.0870421760301724,0.5564192514655172,-1.0350216560344827,6.081447918965517
671,1747666121150,1.337696946456693,0.7709000006299213,0.12377545763779528,0.7644810259842519,-1.0677107236220473,6.197583755905512
672,1747666121160,1.4964189895652174,0.8707962780869565,0.11595053782608696,1.0173722,-1.105288932173913,6.203224670434783
673,1747666121170,1.7245762238095237,1.015320742063492,0.0635536661111111,1.3302996936507936,-1.13887575,6.08645276984127
674,1747666121180,1.8550792,1.142676,-0.04612682,1.4624114,-1.0903945,5.7549615
675,1747666121190,1.8881929529411765,1.2796905705882353,-0.15770611168067225,1.4499066,-0.9957154949579832,5.2922847773109245
676,1747666121200,1.7081252193548389,1.5274756032258066,-0.29652169193548383,1.120612591935484,-0.7071947577419354,4.550719314516129
677,1747666121210,1.6163912,1.6190758,-0.33875147,0.7788532,-0.41599923,3.930307
678,1747666121220,1.5005869312,1.6908949936,-0.34974771064,0.54355277856,-0.196791458192,3.6576020288
679,1747666121230,1.403418045762712,1.746984527118644,-0.3519512427966101,0.34823459491525427,-0.0299893409661017,3.4499804762711865
680,1747666121240,1.0999266983050848,1.9652254686440678,-0.2815365793220339,-0.4076541969491525,0.3788141042372881,2.6269276627118643
681,1747666121250,0.9794922205645161,2.139079072580645,-0.1803996239516129,-0.7422505374193549,0.46315900524193554,2.108155064516129
682,1747666121260,0.9859121187387387,2.2373606792792793,-0.10952013657657658,-0.934519235135135,0.46500052000000003,1.4977039468468467
683,1747666121270,1.0078295047999999,2.2773841072,-0.06800215249120001,-1.0169683919999999,0.4677761768,1.105934868
684,1747666121280,1.0615341638655462,2.282140269747899,0.017670564752941174,-1.072140388235294,0.4797807394117647,0.44726118
685,1747666121290,1.1448161923076923,2.1776665,0.10261668769230768,-1.0133418735042736,0.4777749336752137,-0.8023479962393162
686,1747666121300,1.2067573598425196,2.042025047244094,0.13434679236220473,-0.9216128560629921,0.47309829070866144,-1.7999216543307088
687,1747666121310,1.2167067144144144,1.9292218288288288,0.13101696873873872,-0.8579684713513513,0.4735691437837838,-2.313643872972973
688,1747666121320,1.210768,1.842388,0.12202863,-0.79045963,0.46303584999999997,-2.8240300000000005
689,1747666121330,1.1691839176470589,1.6777212100840335,0.093951786302521,-0.7072998001680671,0.46149586050420166,-3.4388735714285716
690,1747666121340,1.124505223076923,1.5101845435897434,0.06472940292307693,-0.6409699102564101,0.4670247514529915,-3.9928450752136753
691,1747666121350,1.1022836039370079,1.2265452748031496,0.015237244393700788,-0.636194481496063,0.4643778364566929,-4.608858055118111
692,1747666121360,1.1403664097560975,1.0901620642276424,-0.0023612043577235773,-0.688018019105691,0.4880117989430895,-4.854561006504065
693,1747666121370,1.2007695532258063,0.9960133677419354,-0.003834060919354839,-0.8210127361290323,0.6020569600806451,-5.240804923387096
694,1747666121380,1.260480576923077,0.9152355162393162,0.01721542318803419,-0.9056990661538462,0.7389329034188035,-5.447022781196582
695,1747666121390,1.3265116469026548,0.8436843190265486,0.06203157697345133,-0.9338129345132743,0.8518488992920354,-5.596428562831859
696,1747666121400,1.4088656874015748,0.7551919015748031,0.13063211896062993,-0.8632536263779528,0.9907993575590551,-5.876076321259842
697,1747666121410,1.4088962206896551,0.7260913793103447,0.15070955517241377,-0.738388646724138,1.0535213413793103,-6.109178855172414
698,1747666121420,1.3891739,0.69117016,0.17206036,-0.6014041752,1.04247331152,-6.2441176888
699,1747666121430,1.2099057408333336,0.6215161926666666,0.15994291766666666,-0.3252552025,0.96739675525,-6.35770215
700,1747666121440,1.0839131625,0.5922964475,0.123529576625,-0.164735077675,0.92258978275,-6.36503245
701,1747666121450,1.0047837,0.5771954,0.078830495,-0.014049901,0.88025683,-6.326731
702,1747666121460,0.9620736796747967,0.5909856235772358,0.042073091544715446,0.08003825005691058,0.8732542169918699,-6.181290512195122
703,1747666121470,0.7946504,0.6450433,-0.10201593,0.4098906,0.8552113,-5.638897
704,1747666121480,0.7041893206896551,0.7412355306896552,-0.21296519844827586,0.2936576750862069,0.7794219362068966,-5.1335009215517236
705,1747666121490,0.6597766710526316,0.7864680605263158,-0.29284942894736843,0.026304709122807017,0.6282213557017544,-4.491033149122807
706,1747666121500,0.7656540601587302,0.6918635396031747,-0.2852796728571429,-0.3159918662698412,0.4499168034920635,-3.9676134682539685
707,1747666121510,0.8793381999999998,0.60306543,-0.26406994,-0.38606682,0.40744713,-3.862501
708,1747666121520,0.9675457880991735,0.31882145644628096,-0.28148878231404956,-0.2568360196694215,0.5090425974380165,-3.780079591735537
709,1747666121530,0.9380733101694915,0.16379135962711863,-0.2830030006779661,-0.13214879237288135,0.45131034440677964,-3.669224229661017
710,1747666121540,0.9170829724137931,0.031205663275862064,-0.2683872255172414,-0.05214998856034483,0.25462549103448273,-3.493701670689655
711,1747666121550,0.9005712,-0.052716363,-0.25748038,-0.020158553,0.07452556,-3.3353243
712,1747666121560,0.8681183102752295,-0.1730477826238532,-0.24635899678899084,-0.0571187024587156,-0.5233545937614679,-2.226138633944954
713,1747666121570,0.8961722463414634,-0.21032377390243903,-0.23161628487804878,-0.11973952121951219,-0.7564249931707316,-1.5875046609756098
714,1747666121580,0.9498709,-0.2169669,-0.20061506,-0.1881465,-0.82772243,-1.1972959
715,1747666121590,0.9798898,-0.22965786,-0.1637624,-0.267559,-0.82833326,-0.8790351
716,1747666121600,0.9798898,-0.22965786,-0.1637624,-0.267559,-0.82833326,-0.8790351
717,1747666121610,0.65114474,-0.32581642,-0.09200958,-0.35979962,-0.41905355,-0.116675265
718,1747666121620,0.42930778333333336,-0.32211119060606064,-0.07566144824242424,-0.36401091090909093,-0.22473362727272728,0.299638650530303
719,1747666121630,0.3045214047457627,-0.2939648918644068,-0.05351058861016949,-0.3418722816949153,-0.06884140845762712,0.7599008120338983
720,1747666121640,0.16330141955555558,-0.18890030555555556,-0.00862335622222222,-0.22951825470085468,0.04502651264957265,1.6779319923076923
721,1747666121650,0.13520771965,-0.10264437008333333,0.018715123241666666,-0.12702433571666666,0.024332798666666666,2.2832260058333333
722,1747666121660,0.17279254,-0.07492557,0.033435844,0.022602013999999997,-0.13316862,2.769663
723,1747666121670,0.18892112720930232,-0.06849305372093023,0.03513856880620155,0.10266797996899225,-0.2145889103875969,2.927365695348837
724,1747666121680,0.32666758223140496,-0.01631956253553719,0.037986200528925616,0.4447099,-0.56199604,3.5992181
725,1747666121690,0.37709117813559323,0.0059504465067796615,0.026556738762711866,0.6111965525423728,-0.752399633220339,3.907653133898305
726,1747666121700,0.5649944535999999,0.089059420992,-0.045806618224000006,0.9221572924,-1.054592924,4.542271695999999
727,1747666121710,0.614214235775862,0.08859067706896553,-0.058861979051724134,1.0137992784482759,-1.0679030594827588,4.793822611206896
728,1747666121720,0.7470534042400001,0.0708019848,-0.09301314584,1.1337659,-0.8032878,5.4177637
729,1747666121730,0.82100856,0.08981306,-0.11348662,1.0591530776785716,-0.5101870238392857,5.8071358687500005
730,1747666121740,0.8301508094594595,0.09278132486486486,-0.11497075243243242,1.0158689,-0.4117231700000001,5.9315014
731,1747666121750,1.1565322318548388,0.2520107661290322,-0.07935600450000001,0.8150124654838711,-0.3526367416129032,6.182912046774193
732,1747666121760,1.3065912356521738,0.34529220695652174,-0.025125163652173915,0.7132834365217392,-0.4270797940869565,6.31286755652174
733,1747666121770,1.4039215174757282,0.4239108650485437,0.047152806504854365,0.7320478485436893,-0.5328049473786408,6.419737165048544
734,1747666121780,1.5263161036697248,0.5319194449541285,0.12564246229357798,0.8793377174311926,-0.6673114278899083,6.576760287155963
735,1747666121790,1.667374169387755,0.6527934040816327,0.1350533106122449,1.060212719387755,-0.7020337846938774,6.634040298979592
736,1747666121800,1.872747560526316,0.8338408950000001,0.12094320715789474,1.2982172210526317,-0.6827223265789474,6.627502028947368
737,1747666121810,1.9592916,0.97500867,0.088348724,1.3994923,-0.58032197,6.4519587
738,1747666121820,1.9592916,0.97500867,0.088348724,1.4039657092307691,-0.5658491652307692,6.4237367246153845
739,1747666121830,1.9786701028037383,1.2978143570093459,-0.11534099874766356,1.2218046925233645,-0.11051523028037381,5.4733012831775705
740,1747666121840,1.7674895339449541,1.4672811596330277,-0.2124507210091743,0.8122938467889909,0.22913049862385318,4.723865674311927
741,1747666121850,1.7337828,1.487773,-0.21623473,0.72692966,0.28038713,4.6028695
742,1747666121860,1.5984989459016392,1.5412335409836067,-0.20868494918032784,0.512901485409836,0.36651414278688527,4.3254067491803285
743,1747666121870,1.5162325305084745,1.5715094279661015,-0.20174433516949153,0.37900045898305085,0.40355932940677963,4.147909687288136
744,1747666121880,1.4282936256198346,1.6255604181818182,-0.19131667338842975,0.2447348163636364,0.4103398973553719,3.901177285123967
745,1747666121890,1.2681437,1.883700381818182,-0.15735035636363637,-0.16060202272727273,0.32020444363636363,2.9094401
746,1747666121900,1.26401254453125,1.929501275,-0.15572568046875,-0.2754811296875,0.311254923125,2.59461189375
747,1747666121910,1.2595794,1.9695419,-0.1564407,-0.33169982,0.30726522,2.3182335
748,1747666121920,1.2560443875,1.97679498125,-0.15535388249999998,-0.35219721296875,0.3113599259375,2.1766416328125
749,1747666121930,1.1503500295652171,2.1299321504347826,-0.12404475026086956,-0.5913972239130435,0.3660676369565217,0.4586535582608695
750,1747666121940,1.1121730704347825,2.1315598817391304,-0.11198195452173913,-0.671229332173913,0.36983906573913045,-0.1700064492173913
751,1747666121950,1.0632766732283465,2.106519566929134,-0.08515868528818898,-0.7281514,0.35735616,-0.5919284
752,1747666121960,0.99233675,2.004198,-0.0078098318,-0.7762344827868852,0.3444679099180328,-1.049461525409836
753,1747666121970,0.9909429472656249,1.9824101859375,0.0074189596234375006,-0.77595158125,0.323434059375,-1.822802809375
754,1747666121980,0.9923247022950819,1.8844139770491801,0.06756385081967213,-0.7009829180327869,0.28524403000000004,-2.5945249639344263
755,1747666121990,1.019183,1.7411043999999998,0.12520137,-0.63407815,0.26328292000000003,-2.9443705
756,1747666122000,1.143408220472441,1.5501670606299212,0.12032791401574804,-0.5203561994488188,0.26915586952755904,-3.734854009448819
757,1747666122010,1.2144289,1.4584862,0.11592719,-0.48747048,0.2932153,-4.145942
758,1747666122020,1.2144289,1.4584862,0.11592719,-0.48747048,0.2932153,-4.145942
759,1747666122030,1.3142276059322033,1.3524867220338983,0.10676056481355932,-0.5154822625423728,0.34929066601694914,-4.528607776271187
760,1747666122040,1.5532187894736844,1.082470942105263,0.07166291242105263,-0.5742133,0.45814893,-5.188689
761,1747666122050,1.6403086,0.9432813,0.042221904,-0.5742133,0.45814893,-5.188689
762,1747666122060,1.6566730881355933,0.8733774389830509,0.03830871669491526,-0.7354921440677966,0.885495813220339,-5.827499233898305
763,1747666122070,1.6593986890625,0.7433411984375,0.065201419484375,-0.8122980625,1.2623340031249999,-6.16181699375
764,1747666122080,1.58466597,0.6013703731818183,0.13236777072727274,-0.7018397365454545,1.486379558181818,-6.362905654545455
765,1747666122090,1.4539083711711713,0.5044707338738739,0.19570972207207207,-0.3217939105405405,1.4449439396396397,-6.4888087171171165
766,1747666122100,1.4050941784,0.47414660944,0.21547716232,-0.1036516184,1.344734284,-6.49845776
767,1747666122110,1.3656312045454544,0.4498973309090909,0.22826007945454543,0.12769860681818182,1.2113735227272728,-6.482501904545455
768,1747666122120,1.2527935024390244,0.41542711756097556,0.14074364414634147,0.4839244748780488,0.9834483999999999,-6.4274346731707315
769,1747666122130,1.192021875,0.4066940555172414,0.07734931245689655,0.9304741668103449,0.6475856051724138,-6.328600836206896
770,1747666122140,1.1312053,0.41465324,0.034900185,1.0421361,0.5021312,-6.254649
771,1747666122150,1.0170341508474574,0.3604332488135593,-0.17518966241525424,1.1436587440677966,0.05396838703389831,-5.638105113559322
772,1747666122160,1.0089327,0.35485923,-0.19256116,1.1551461,-0.035430185,-5.4929004
773,1747666122170,1.0129896278688524,0.26019302696721314,-0.3110269560655738,1.0144869213114753,-0.16729695852459017,-5.195629216393442
774,1747666122180,1.018939,0.17620933,-0.39634898,0.7996226,-0.31887165,-4.8789806
775,1747666122190,1.018939,0.17620933,-0.39634898,0.7996226,-0.31887165,-4.8789806
776,1747666122200,0.9352313250000001,0.06388395112903225,-0.3158888079032258,0.504643659032258,-0.3845298322580645,-4.656418964516129
777,1747666122210,0.8724754679487179,-0.01741775995726496,-0.20787627572649572,-0.3956161790598291,-0.1299785536068376,-3.685851301709402
778,1747666122220,0.8296423346399999,-0.09177333176000001,-0.147883074,-0.57335812,0.0767246724,-3.30417016
779,1747666122230,0.8022161625423729,-0.16588446745762714,-0.12035539127118644,-0.5753833152542372,0.26962969847457624,-3.019382640677966
780,1747666122240,0.6793365608695653,-0.35603708434782605,-0.1156958703478261,-0.3668431871304348,0.5299601208695652,-2.348442215652174
781,1747666122250,0.5708223629032257,-0.43352047532258065,-0.1269806277419355,-0.20779271032258065,0.6085991193548388,-1.9305508967741936
782,1747666122260,0.44735694,-0.44857723000000005,-0.13862452,-0.046825979448275865,0.5194250751724139,-1.4152484068965518
783,1747666122270,0.23205040007874014,-0.3998272628346457,-0.15075051598425196,0.14290879573228346,0.08620414755905512,-0.25930989448818903
784,1747666122280,0.03788778434482759,-0.31506946896551724,-0.17119353827586206,0.24057557758620687,-0.2751631920689655,0.7410427072413793
785,1747666122290,0.009150146245901639,-0.2737161829508197,-0.18923638672131146,0.2591971244262295,-0.412894826557377,1.2901974344262295
786,1747666122300,0.0118234289609375,-0.23414431375,-0.22180418757812498,0.24862215,-0.47586402,1.7550159
787,1747666122310,0.18060236,-0.18401916,-0.30922052,0.17850545260869563,-0.4320410721739131,2.361525291304348
788,1747666122320,0.36519164304687496,-0.146838576796875,-0.3186586884375,-0.13761170921875,-0.02467800121875,3.50521158046875
789,1747666122330,0.42905265,-0.1342315,-0.31825066,-0.22418754,0.100792766,3.7830884
790,1747666122340,0.5244790155172414,-0.108874782,-0.28689350689655174,-0.28043979344827585,0.2396171700689655,4.0782839155172415
791,1747666122350,0.54937285,-0.102259986,-0.27871338,-0.27306676459016394,0.27593084409836066,4.204765808196722
792,1747666122360,0.763798199137931,0.011599033293103451,-0.13911473756896553,0.0024171327586206925,0.24473578870689655,4.8882174448275855
793,1747666122370,0.9116313287301587,0.1364725515952381,-0.041970099706349205,0.49960535722222227,-0.16750798481666668,5.293161979365079
794,1747666122380,0.9432813,0.1683995,-0.021232981,0.6469063,-0.2919936,5.4061575
795,1747666122390,1.0665425728813558,0.26615890296610173,-0.05113205836440678,1.0783220881355933,-0.7012526338983051,5.667845847457627
796,1747666122400,1.1726465991735537,0.34494969958677685,-0.10336731454545454,1.6340745752066117,-1.2293840314049587,6.015603876033058
797,1747666122410,1.2266316,0.38487828,-0.1718163,1.7513506,-1.3420709,6.1349196
798,1747666122420,1.3046079428571429,0.4511126922222222,-0.22855379269841272,1.7510209595238095,-1.3591703428571429,6.288881957142857
799,1747666122430,1.4901383291666668,0.5878688246666667,-0.2548038908333333,1.6631417066666667,-1.3046453266666667,6.552955146666666
800,1747666122440,1.6203232555555556,0.6802689066666666,-0.21645165777777778,1.556155712820513,-1.2077589102564101,6.6953023589743585
801,1747666122450,1.7414890912,0.79889307192,-0.16680825124,1.4994249888,-1.1037308232,6.7439865896
802,1747666122460,1.8645174120689654,0.9414277223275863,-0.1125040790948276,1.4847817344827587,-1.0023456413793101,6.6926395379310355
803,1747666122470,1.940011,1.0206474,-0.09225364,1.515594825,-0.86884125375,6.44527740625
804,1747666122480,1.9876042973451327,1.2449684123893805,-0.09994252481415929,1.5646151398230088,-0.6391812830088496,5.941626915929204
805,1747666122490,1.9621195692982458,1.3555475157894736,-0.10819229622807018,1.570159494736842,-0.5360289070175439,5.703552666666666
806,1747666122500,1.8372315838709679,1.448338006451613,-0.12003680780645162,1.5653716677419354,-0.3711301941935484,5.332026064516128
807,1747666122510,1.6395636044247788,1.5733463097345135,-0.11215618376991152,1.5749998185840708,-0.17970249922123896,4.877861854867257
808,1747666122520,1.5536196528000001,1.6126346327999999,-0.09439549180000001,1.6455342175999998,-0.003699399872,4.3442830192
809,1747666122530,1.4787427999999998,1.6398207,-0.122272685,1.7153096,0.06780604,4.011552
810,1747666122540,1.4787428,1.6398207,-0.122272685,1.7153096,0.06780604,4.011552
811,1747666122550,1.3042379129032258,1.857509854032258,-0.33824170326612907,1.455445514516129,0.19955095637096773,2.9183545451612907
812,1747666122560,1.2363939,1.9732028,-0.4407674,1.279157153097345,0.2440866168141593,2.3451927973451325
813,1747666122570,1.1854165828125,2.03357643125,-0.499268683125,0.9978960328125,0.242484861875,1.8806631953125001
814,1747666122580,0.9789053801680673,2.0707497462184876,-0.47934690294117643,0.4840722055462185,0.39152355815126055,1.0910515351260504
815,1747666122590,0.78806084,2.0901062,-0.43759465,0.11484267,0.6310238,0.47525316
816,1747666122600,0.74293763072,2.0967952,-0.36149955664,-0.2099617112,0.80833599728,-0.463944798848
817,1747666122610,0.74315435,2.0930347,-0.34924594,-0.26145032,0.8246681,-0.62796944
818,1747666122620,0.7901141826446281,2.0188556049586777,-0.3031957552066116,-0.3530296318181818,0.7146265066115702,-1.2843669011570247
819,1747666122630,0.8251576,1.9627084,-0.2723679,-0.40561453,0.6188065,-1.7562376
820,1747666122640,0.8853917874999999,1.7575563464285715,-0.1830167925,-0.33839754732142857,0.2593232076785714,-2.9026734598214285
821,1747666122650,0.9014080285714287,1.6637032571428574,-0.15525528,-0.30176744,0.16126843,-3.2400293
822,1747666122660,0.9227352685185186,1.5499532629629629,-0.17100278185185186,-0.31203902,0.1444356968148148,-3.5209367407407406
823,1747666122670,0.9227352685185186,1.5499532629629629,-0.17100278185185186,-0.31203902,0.1444356968148148,-3.5209367407407406
824,1747666122680,1.0155222,1.2564068,-0.26211748,-0.45081853999999993,0.14660765,-4.542394
825,1747666122690,1.0993107621621623,1.2014147117117118,-0.2779240318018018,-0.5860013673873874,0.21647743954954954,-4.754028562162162
826,1747666122700,1.200215384126984,1.1388253777777777,-0.26757970730158726,-0.8130034876190476,0.31974434349206354,-5.129415974603174
827,1747666122710,1.3544941201754388,1.049204299736842,-0.18151008140350877,-0.9884228377192983,0.38005463736842104,-5.583388576315789
828,1747666122720,1.4064765775999999,0.98385134264,-0.11377362712,-0.9773844,0.3866777,-5.8300977
829,1747666122730,1.4160202,0.9430371500000001,-0.06443111,-0.90046825,0.37072471625000003,-6.019254508653846
830,1747666122740,1.3988751750000001,0.8989848375,-0.051374048250000005,-0.8038354775862069,0.33841407905172416,-6.110900934482759
831,1747666122750,1.3341495346456693,0.7589335097637795,-0.02204586459055118,-0.4578555138582677,0.24488962748031495,-6.371593824409449
832,1747666122760,1.230511420689655,0.7087422606896552,-0.10185602965517242,-0.15677119370689654,0.2779542212068965,-6.458067399999999
833,1747666122770,1.2071072,0.6999562,-0.12056428,-0.11501787837209303,0.2992340126356589,-6.455936473643411
834,1747666122780,1.1457843613207548,0.6866113396226415,-0.1650471609433962,-0.07391469,0.31215215,-6.4030895
835,1747666122790,1.034346484347826,0.6596125,-0.22134931,-0.011064627130434787,0.2276296415652174,-6.241629930434783
836,1747666122800,0.9859971884800001,0.6293514192,-0.32278229456,0.18994488008,-0.12523225792,-5.7435504064
837,1747666122810,1.0460524113207548,0.6143611509433962,-0.44499922264150943,0.3868966860377358,-0.6317960324528302,-5.205724420754717
838,1747666122820,1.0711672,0.6040417,-0.5130083,0.43127087,-0.79229224,-5.0518556
839,1747666122830,1.1695503716814157,0.49375374955752216,-0.6976452061946903,0.11616711099115044,-1.195917377522124,-4.635775146017699
840,1747666122840,1.1846211589285713,0.4704552257142857,-0.7188531990178572,-0.12872893975,-1.4591716160714285,-4.3467968982142855
841,1747666122850,1.2388345,0.35534734,-0.75218445,-0.5320636,-1.5008959,-4.133725
842,1747666122860,1.322378663559322,0.022984808559322032,-0.522909175,-1.4438886644067797,-1.3746642322033897,-3.5322196440677964
843,1747666122870,1.3391421,-0.06321083,-0.4639528,-1.7006587463414633,-1.2938424089430893,-3.310214260162602
844,1747666122880,1.290710322222222,-0.2765168588888889,-0.3443647644444444,-1.9120535037037039,-1.108856188148148,-3.01052487037037
845,1747666122890,1.2061309,-0.4087959,-0.2626056,-2.0389741384615383,-0.8389059569230769,-2.6443885615384612
846,1747666122900,1.0107751827868852,-0.5206681240163935,-0.1433276221065574,-2.090240557377049,-0.5694265605573771,-2.227525042622951
847,1747666122910,0.6147110383333333,-0.5636949350833333,0.04638511469166666,-1.99905647,-0.0576656778,-1.058690581
848,1747666122920,0.428771468,-0.548578192,0.120443238304,-1.7713332424000001,0.18990579327999998,-0.2338196696
849,1747666122930,0.3961049,-0.5440036,0.1342315,-1.7201965,0.2321288,-0.07696902
850,1747666122940,0.3924750657627118,-0.5426819680508475,0.13503192466101696,-1.7201965,0.2321288,-0.07696902
851,1747666122950,0.05774740261417322,-0.33436995881889764,0.1871457816535433,-0.9006125881889764,0.3342587266929134,1.582381530551181
852,1747666122960,0.03822862168103449,-0.2125612381896552,0.1938046,-0.375187115,0.1788939898275862,2.529656178448276
853,1747666122970,0.09599584833333334,-0.16250145000000002,0.19618134833333334,-0.16676621,0.06414085,2.8735101
854,1747666122980,0.28208845863247867,-0.0864484099059829,0.15249406623931622,0.5047104533333333,-0.3200255136752137,3.6292286623931624
855,1747666122990,0.49592432,-0.008053889,0.07248501,0.95905846,-0.5711590000000001,4.1123447
856,1747666123000,0.6426344778861789,0.061720694552845526,-0.09625379345528455,1.268598230894309,-0.6346194673983739,4.480984643089431
857,1747666123010,0.6844036266666667,0.0804026325,-0.14064612008333333,1.3290289558333332,-0.625495494,4.6404073275
858,1747666123020,0.8091156292063492,0.15795539936507938,-0.22913101793650795,1.3083037484126985,-0.5779754967460318,4.858773675396826
859,1747666123030,0.9328343634146341,0.3411087009756098,-0.2828444941463415,1.0954304032520326,-0.48714268739837396,5.231151904878048
860,1747666123040,0.9398771226086956,0.35645516608695654,-0.2809714377391304,1.0635164,-0.48258355,5.2742105
861,1747666123050,0.9608701879310345,0.40552637689655174,-0.2619449487931034,0.9474941262931035,-0.5172080355172414,5.459502808620689
862,1747666123060,1.0214308462184873,0.4542213174789916,-0.22870214781512607,0.8753699,-0.5729916,5.607132
863,1747666123070,1.0616491,0.47835222,-0.20866893,0.81719598752,-0.6860554416,5.7940276848
864,1747666123080,1.2024352100840336,0.554040718487395,-0.15679549415966387,0.8185594442857143,-0.8616690742857143,6.134308557142857
865,1747666123090,1.4055532626086957,0.675270307826087,-0.1011097324,0.8349624956521738,-0.8813616974782609,6.197195799999999
866,1747666123100,1.716960712295082,0.8827470721311476,-0.02244926592622951,0.8989833852459016,-0.8538994718032786,6.218728278688524
867,1747666123110,1.7836075576271186,0.9518687711864406,0.009038392957627117,0.9483217296610169,-0.7908271862711863,6.099867296610169
868,1747666123120,1.840786475,1.053107021875,0.04807546703125,1.010686090625,-0.681744721875,5.881200671875
869,1747666123130,1.8307322931034482,1.162806496551724,0.051075292413793105,1.0872769663793103,-0.49423210431034487,5.579074584482759
870,1747666123140,1.8079761,1.2266316,0.03734076,1.1267159549180328,-0.36035541639344265,5.3981761967213115
871,1747666123150,1.6612977,1.2805684,-0.008786061,1.201572,0.0720821,4.8857
872,1747666123160,1.5845552765432098,1.3544846086419753,-0.06952317281481482,1.1750483444444444,0.1916985701234568,4.550629191358025
873,1747666123170,1.5256019,1.4038173,-0.10836142,1.1508701,0.25473082,4.3175955
874,1747666123180,1.400922852631579,1.4834784315789473,-0.1421954545614035,1.0529655185964912,0.12048513647368421,3.7778157210526317
875,1747666123190,1.30473,1.5490314,-0.17572121,0.96944314,-0.057421334,3.3139439
876,1747666123200,1.2632202663934424,1.5725369327868852,-0.18832416491803278,0.9457495872131148,-0.0605457595409836,3.139106281967213
877,1747666123210,1.0567549247787609,1.6883081982300883,-0.25163381194690265,0.8197325247787611,-0.0499612094159292,2.3651080566371685
878,1747666123220,0.9337070168852459,1.788039343442623,-0.30241692991803276,0.6660534081967213,0.05298505149180328,1.9771804688524588
879,1747666123230,0.84199744,1.8870505,-0.34900185,0.5815437,0.11484267,1.8081611
880,1747666123240,0.8213014100869565,1.9340666617391304,-0.35597551626086954,0.10411268669565218,0.41551053,1.2397908704347826
881,1747666123250,0.8252958133333334,2.0005046275,-0.329658291,-0.17083864233333335,0.5643173068333333,0.8676017491666667
882,1747666123260,0.8279836884033613,2.0383026243697477,-0.17810641731092436,-0.494256717815126,0.7774517832773109,-0.02166261252100841
883,1747666123270,0.831797062047244,2.0322205952755903,-0.1075120216535433,-0.6143140011023621,0.9026135274015747,-0.859886608503937
884,1747666123280,0.8469711677419355,1.9473072217741936,-0.05069108346774193,-0.48859367612903226,0.8347966193548387,-1.9607001580645165
885,1747666123290,0.8528515428571428,1.8671338026785713,-0.038778954017857144,-0.3894266,0.72754053,-2.4022276500000004
886,1747666123300,0.8676053623140496,1.6972567834710743,-0.05189947978512397,-0.20876446561983472,0.5058772107438017,-3.232895758677686
887,1747666123310,0.8832170125000001,1.5493233821428571,-0.06630076567857143,-0.12301299375,0.4019493275,-3.709402775
888,1747666123320,0.8970717963709677,1.432395560483871,-0.07595691416935485,-0.1020145,0.38626388096774195,-4.099339212903226
889,1747666123330,0.91057765,1.3674527,-0.078830495,-0.1020145,0.39095375,-4.251622
890,1747666123340,0.9105776499999999,1.3674527,-0.07883049499999999,-0.1020145,0.39095375,-4.251622
891,1747666123350,0.9739402853543307,1.1705120102362205,-0.0792033025984252,-0.1372282227559055,0.5360799422047244,-4.855031996062992
892,1747666123360,1.0233321,1.1258361,-0.10665302,-0.15699236,0.5882632,-4.987104
893,1747666123370,1.0233321,1.1258361,-0.10665302,-0.15699236,0.5882632,-4.987104
894,1747666123380,1.22691063125,1.0732439848214286,-0.09119678598214286,-0.21425007312500002,0.5133285991071429,-5.306608290178572
895,1747666123390,1.3786794,1.0223558,-0.06955632,-0.24007004,0.44776422,-5.620571
896,1747666123400,1.4359077785123966,0.9698592914049586,-0.029438144198347106,-0.18754572165289257,0.42459173636363634,-5.914346876033057
897,1747666123410,1.4499441,0.93254274,-0.0134231495,-0.14477506,0.42638394,-6.096435
898,1747666123420,1.3698933125,0.8584408674999999,-0.0158027080875,-0.069791355125,0.49098293125,-6.3013802375
899,1747666123430,1.2654368,0.8049008,-0.03929322,-0.028710667,0.54000485,-6.389650299999999
900,1747666123440,1.1693479500000001,0.7849578714285714,-0.05991605507142857,0.05643958502678571,0.6977990091071428,-6.238254113392857
901,1747666123450,1.0893167341463417,0.7898466414634147,-0.056192695048780494,0.15224946788617885,0.7306097650406504,-6.070088678861789
902,1747666123460,1.089900751724138,0.8094453120689654,-0.11973953448275862,0.5687787043103448,0.41246042068965516,-5.58120175862069
903,1747666123470,1.1158297,0.8107582,-0.17816179,0.70005155,0.1740966,-5.421429
904,1747666123480,1.1529595305084746,0.8115524128813559,-0.2567895893220339,0.7077546754237288,-0.17353750169491527,-5.349616118644067
905,1747666123490,1.180223956302521,0.7315851919327732,-0.4412801163865547,0.4307832026890756,-0.988061718487395,-5.207970294117647
906,1747666123500,1.1465651862903226,0.6242374362903226,-0.512772160483871,0.10146274967741936,-1.3166018129032258,-5.159338556451613
907,1747666123510,1.1041998113043476,0.4766905177391304,-0.49866417321739126,-0.25094875530434785,-1.3536985382608695,-5.008664552173913
908,1747666123520,0.9583639840000001,0.25333142799999997,-0.4745449,-0.7163006000000001,-1.081353642,-4.5775796799999995
909,1747666123530,0.8104354552066115,0.04500335209917355,-0.4294439307438017,-1.0902126892561983,-0.7169033702479339,-3.9057359644628096
910,1747666123540,0.74510676,-0.058573738,-0.40147418,-1.2834278,-0.52290064,-3.5106425
911,1747666123550,0.74510676,-0.058573738,-0.40147418,-1.2834278,-0.52290064,-3.5106425
912,1747666123560,0.7365412051754386,-0.07646056640350878,-0.3876121555263158,-1.2974294789473684,-0.5126284596491228,-3.445113809649123
913,1747666123570,0.6139559670491803,-0.2470999699180328,-0.15141551672131148,-1.5591484639344262,-0.30874231295081966,-1.491192127622951
914,1747666123580,0.6161371235,-0.2613096589,-0.026370385769999997,-1.412247132,-0.3903428848,-0.6239377568
915,1747666123590,0.6037975999999999,-0.27846932,0.011226633,-1.2638800999999997,-0.44409904000000006,-0.28527406
916,1747666123600,0.6037976,-0.27846932,0.011226633000000001,-1.2638801,-0.44409904,-0.28527406
917,1747666123610,0.5320575373913043,-0.2871747417391304,0.021765661869565217,-0.9816816582608695,-0.46765187895652177,0.2445638794782609
918,1747666123620,0.48396555,-0.29262465,0.028554698,-0.79351395,-0.48258355,0.59803706
919,1747666123630,0.3901482683050848,-0.25056406779661017,0.029679843627118646,-0.5156116750169492,-0.41979384669491526,1.2101861940677965
920,1747666123640,0.2857110775862069,-0.16103149551724136,0.023130735431034485,0.06357211417241379,-0.27469976853448275,2.5254486474137927
921,1747666123650,0.3456981570731708,-0.1365887268292683,-0.020518666829268294,0.33274276081300813,-0.25908135788617886,3.0507801999999997
922,1747666123660,0.45422103325,-0.11387101425,-0.12130865275000001,0.6354423622500001,-0.27742953133333337,3.5654066091666667
923,1747666123670,0.47503065243902437,-0.07281239648780488,-0.17001265780487806,0.7883786986178861,-0.3572717471544716,3.8347339422764226
924,1747666123680,0.4787162522033898,-0.05100796427118644,-0.18613295305084746,0.8513597894915254,-0.4124997194915254,3.9633766847457625
925,1747666123690,0.4787162522033898,-0.05100796427118644,-0.18613295305084746,0.8513597894915254,-0.4124997194915254,3.9633766847457625
926,1747666123700,0.53157956484375,0.062615937421875,-0.30361483031250003,1.0325150078125,-0.9745400590625,5.203092296875
927,1747666123710,0.53157956484375,0.062615937421875,-0.30361483031250003,1.0325150078125,-0.9745400590625,5.203092296875
928,1747666123720,0.59916055,0.084931925,-0.31605414,1.0201449,-1.061073,5.561317
929,1747666123730,0.6559069327731093,0.10686631180672271,-0.31081817647058824,1.0062541739495798,-1.1071496521008404,5.769678611764705
930,1747666123740,0.6970275,0.122760795,-0.307024,0.9950995,-1.1441506,5.9369993
931,1747666123750,0.8667953229508196,0.16623299766393443,-0.2925246098360656,0.9594289696721312,-1.1587813229508197,6.2232748418032795
932,1747666123760,1.291979877669903,0.3179189308737864,-0.2485142640776699,0.8822495378640777,-1.1759808242718448,6.822445650485437
933,1747666123770,1.5790138047244096,0.5451758477165354,-0.16336847110236222,0.8691987058267717,-1.1188838417322833,7.019577588976378
934,1747666123780,1.8093119629310344,0.7270991379310344,-0.08057045160344828,0.8931166064655173,-1.0874717586206897,7.187766891379311
935,1747666123790,2.044152525641026,0.8958319683760684,-0.0015290075213675227,0.9731553217948719,-1.0459735564102566,7.132290174358974
936,1747666123800,2.194175008064516,1.0546539846774194,0.04253091334677419,1.079704325,-1.0051787625,6.899570250000001
937,1747666123810,2.2601609563025207,1.1611300092436976,0.04599145806722689,1.1581338042016807,-0.9640326403361344,6.634689550420168
938,1747666123820,2.2484239707317077,1.2965035130081302,-0.0031925865040650413,1.2160141308943089,-0.8694500028455284,6.228540803252033
939,1747666123830,2.0859573,1.4799632,-0.15082738,1.1111639,-0.52839845,5.512448
940,1747666123840,2.0688733,1.4880984342342343,-0.15432333495495495,1.0946540261261262,-0.5056148274774774,5.4833355675675675
941,1747666123850,1.8963249,1.5702643,-0.18963248,0.9279043,-0.27550024,5.1893
942,1747666123860,1.8963249,1.5702643,-0.18963247999999996,0.9279043,-0.27550024,5.1893
943,1747666123870,1.561936430327869,1.6916548524590163,-0.17564119655737706,0.4563814313114754,0.0159175444262295,4.429759351639345
944,1747666123880,1.3427735620689656,1.780191518965517,-0.1555023353448276,0.13541197781034484,0.17927315431034482,3.8655763525862072
945,1747666123890,1.2283401,1.8728954,-0.114462845,-0.09285152,0.20341812,3.3169982
946,1747666123900,1.1031547868852458,1.871747037704918,-0.053928648852459016,-0.3657130175409836,0.32811976426229505,2.3985474090163934
947,1747666123910,1.0603377169491526,1.8962462355932201,-0.016893725345762712,-0.4574811118644068,0.37176845516949153,1.86206741440678
948,1747666123920,1.039894414516129,1.897058977419355,-0.0001928840096774192,-0.5244573483870967,0.40813681612903224,1.3864473387096774
949,1747666123930,1.0082535469565217,1.8905352686956522,0.028611997678260868,-0.5722107530434782,0.49079038313043477,0.6880732949652173
950,1747666123940,0.9389769909090909,1.863700989090909,0.06812747179999999,-0.5694930254545454,0.6243598018181817,-0.2355163299090909
951,1747666123950,0.8866619120155039,1.816249531007752,0.08128052620155038,-0.5317274213178296,0.6941133914728682,-0.7310778765891472
952,1747666123960,0.8377396383928571,1.7607358830357143,0.08660763776785715,-0.46779732392857143,0.7542385614285714,-1.2373403160714285
953,1747666123970,0.7325785079365079,1.5826570428571427,0.053874665555555555,-0.25167647,0.8008443,-2.457511
954,1747666123980,0.7295434351648351,1.5553929494505496,0.05143975483516484,-0.22578518395604394,0.7881906758241759,-2.556598646153846
955,1747666123990,0.7552854235294117,1.4858061529411766,0.043155062,-0.14016362733333335,0.7338288262745098,-2.884733158823529
956,1747666124000,0.793920571226415,1.4432578301886794,0.031133415485849057,-0.08394210535849056,0.6787173860377359,-3.1220630037735853
957,1747666124010,0.8739559198214285,1.3875439178571427,0.0018042804017857142,-0.049425542499999996,0.6182610839285714,-3.3996723785714287
958,1747666124020,1.0190189703448276,1.2961185896551723,-0.046078430474137934,-0.07739030525862069,0.5967416030172414,-3.911349079310345
959,1747666124030,1.1700104,1.1988091000000003,-0.07590181,-0.14905111,0.61636305,-4.447099
960,1747666124040,1.1700104,1.1988091,-0.07590181,-0.14905111,0.61636305,-4.447099
961,1747666124050,1.2910846861788619,0.9244868065040651,-0.039676167528455285,-0.25287834593495934,0.7931166304878049,-5.151272585365854
962,1747666124060,1.329868,0.8363842,-0.03465613,-0.2883284,1.0268645,-5.64073
963,1747666124070,1.351989168032787,0.7857382737704918,-0.019520578766393445,-0.2718150245901639,1.124002049180328,-5.793235864754098
964,1747666124080,1.3446208327586204,0.7308504460344828,-0.0022091387500000007,-0.20863682577586207,1.2333843241379312,-5.992366887931034
965,1747666124090,1.325475,0.68360436,0.010250404499999997,-0.12889257,1.3451253,-6.205169
966,1747666124100,1.2448495527559056,0.6401448514960629,0.0024348073354330704,-0.009461196409448818,1.4308629,-6.391035631496063
967,1747666124110,1.2076900669421486,0.6293853090909091,0.011188310429752065,0.04804631880991736,1.3904808421487602,-6.429240690082645
968,1747666124120,1.1009250875,0.6445018124999999,0.0211509924140625,0.17268874265625,1.2518967328125,-6.44802174765625
969,1747666124130,1.0269929,0.656514,0.025870068,0.22724187,1.1844677,-6.447683
970,1747666124140,0.9690139336134453,0.6973474420168067,0.024065274890756303,0.4559313431092437,0.86656113697479,-6.257390672268907
971,1747666124150,0.9642702,0.70068836,0.02391761,0.4746423,0.8405506,-6.2418213
972,1747666124160,0.9737840678571429,0.7198708268749999,0.019738129687499998,0.5332744548214287,0.7612362899107143,-6.144502778571429
973,1747666124170,1.1189449097560975,0.8207268373983739,-0.05524225731707317,0.9102438523577236,0.14233160154471544,-5.464343617886179
974,1747666124180,1.3036544296296297,0.7299752074074074,-0.27162667407407404,0.8988995414814815,-0.34608910666666665,-5.203960888888889
975,1747666124190,1.3591548,0.6469958,-0.3734076,0.77763146,-0.50762904,-5.155091999999999
976,1747666124200,1.3057843272,0.6178846072,-0.453393928,0.6157766004799999,-0.56603750784,-5.066775648
977,1747666124210,1.1280826564102564,0.5671181213675214,-0.5662712466666667,0.11412215435897435,-0.6172871589743589,-4.686370102564102
978,1747666124220,0.9727137685483871,0.4203236483870968,-0.49014961298387094,-0.6106090812903227,-0.6463151251612903,-3.9704663225806454
979,1747666124230,0.920893096,0.30972083066666667,-0.4193513411666666,-0.99021256,-0.66523224,-3.5650096000000002
980,1747666124240,0.8494551009433963,0.163007214245283,-0.3345932728301887,-1.232253547735849,-0.5502628466037736,-3.1668521754716976
981,1747666124250,0.7039247782608696,0.028575917826086955,-0.2531404343478261,-1.3437707152173914,-0.30326803978260874,-2.662150791304348
982,1747666124260,0.4036206275213675,-0.09945228955555555,-0.10781072521367523,-1.249496170940171,0.10759060076923077,-1.469548564102564
983,1747666124270,0.35643205333333333,-0.11571025977777777,-0.07386799222222223,-1.1601009777777778,0.10893763800000002,-1.138584911111111
984,1747666124280,0.28973449614035085,-0.17780213929824562,-0.029929124280701755,-0.7185168421052632,-0.1175433322105263,-0.10770517859649124
985,1747666124290,0.26626647,-0.21281794,-0.028066583,-0.4269948,-0.27977628,0.47036624
986,1747666124300,0.29414366000000003,-0.23620639784,-0.046493880152000004,-0.0952656528,-0.4352927884,1.01319582048
987,1747666124310,0.29506522,-0.23697957,-0.047103047,-0.0842994,-0.44043383,1.0311406
988,1747666124320,0.2982420005785124,-0.23716111338842977,-0.04801069923140496,-0.0842994,-0.44043383,1.0311406
989,1747666124330,0.28507148818965516,-0.1891107048275862,-0.17324697297413796,0.46571629853448276,-0.6714883301724138,1.9151310051724137
990,1747666124340,0.28172622155172417,-0.18562657655172413,-0.18699412982758623,0.5329009388793103,-0.6395969529310345,2.135463768965517
991,1747666124350,0.3060206790476191,-0.18050938269841268,-0.25954713841269844,0.7887724592857144,-0.12055862353968254,3.830687378571429
992,1747666124360,0.3443648,-0.17816179,-0.2757847,0.7623598,0.073303826,4.219857
993,1747666124370,0.4085774134677419,-0.1524275302580645,-0.2707854510483871,0.7702222354838709,0.14457800638709678,4.644960274193548
994,1747666124380,0.50715095,-0.107629254,-0.2511349,0.8191703,0.10323623,5.2039610000000005
995,1747666124390,0.5688294737704919,-0.09126941386885246,-0.23383484721311476,0.8892996163934426,-0.008782437377049179,5.380931409836066
996,1747666124400,0.654839090967742,-0.05949879701612903,-0.2308761854032258,0.9860547483870968,-0.14318878387096773,5.573997467741936
997,1747666124410,0.8249054512396694,0.013626864743801653,-0.2482546318181818,1.1998453578512398,-0.4510053415702479,5.940078995041322
998,1747666124420,0.9093573,0.05027579,-0.26211748,1.2895365,-0.59681535,6.093381
999,1747666124430,1.1027767408333333,0.18093183116666667,-0.3112787579166667,1.227742394166667,-0.8182489330833334,6.3698788625
1000,1747666124440,1.1930750119266056,0.2505728953211009,-0.3064441200917431,1.0901086985321102,-0.8693285175229358,6.57378976146789
