id,timestamp,acc_x,acc_y,acc_z,gyro_x,gyro_y,gyro_z
0,1747666175600,-0.087616555,0.015131550000000002,0.76853627,4.670850128571429,0.33807028857142857,-3.800192714285714
1,1747666175610,-0.087616555,0.01513155,0.76853627,4.6743407,0.36896262,-3.7281106
2,1747666175620,-0.010335204610169492,-0.10054744694915255,0.7358739625423728,4.858935839830508,0.35753734779661017,-3.625081444915254
3,1747666175630,0.06524057583333334,-0.23100018816666665,0.620596925,5.050613533333333,0.307784462,-3.5098789166666666
4,1747666175640,0.05352848879310344,-0.3388082645689655,0.4517352409482759,5.080481993103448,0.18454450413793103,-3.429755520689655
5,1747666175650,0.03782887409756097,-0.42606445243902435,0.29391041487804875,5.012635996747967,0.015356060081300811,-3.272628643902439
6,1747666175660,0.03824110537815126,-0.43512743781512603,0.2763528006722689,4.949841,-0.11484267,-3.1447344
7,1747666175670,0.08612121746031746,-0.4862666253968254,0.18522783266666668,4.778396234126984,-0.11195802833333333,-3.023845903174603
8,1747666175680,0.13978114086956522,-0.6736935,-0.017168902608695653,4.495622865217391,0.0583243552173913,-2.8615318043478264
9,1747666175690,0.1485557717948718,-0.8099759533333333,-0.2391761087179487,4.121340658974359,0.3985347829059829,-2.776220733333333
10,1747666175700,0.10402546346774194,-0.8828948120967742,-0.40124191532258063,3.7499637548387095,0.5480397431451612,-2.7326860274193545
11,1747666175710,-0.042232069649999995,-0.9245844516666666,-0.6004093045833333,3.2067216775,0.4891197901666667,-2.6197210883333333
12,1747666175720,-0.15234289022580647,-1.0724151072580645,-0.7195221294354838,2.3935325967741936,0.46253830637096777,-2.1023420596774196
13,1747666175730,-0.1456919257142857,-1.2459081117647057,-0.7737599594957983,2.0363835344537815,0.35462010789915965,-1.7978894084033614
14,1747666175740,-0.15965855831932774,-1.3326859453781512,-0.8256272277310924,1.8765318773109243,0.16755674647058824,-1.6688324873949578
15,1747666175750,-0.18884923527131783,-1.369878250387597,-0.9201563550387597,1.7508960488372092,0.15103997976744185,-1.6433411186046512
16,1747666175760,-0.23685963830508475,-1.422142306779661,-1.056068759322034,1.5489781915254237,0.23112966042372882,-1.6249429542372882
17,1747666175770,-0.3714551350819672,-1.4557855032786886,-1.1072437131147541,1.1807774524590164,0.5226853482786885,-1.5900973081967216
18,1747666175780,-0.5495812170731708,-1.4569324609756098,-1.0765544365853659,0.896809774796748,0.7335647223577236,-1.4497521162601628
19,1747666175790,-0.6788629362903226,-1.429053585483871,-1.0988559153225808,0.45078896846774197,0.9649503120967743,-0.9310768613709678
20,1747666175800,-0.6960589984126985,-1.4371989380952381,-1.0809876126984126,0.3093596214285715,0.8376707971428572,-0.6210754214285714
21,1747666175810,-0.6294298525423729,-1.4539606669491525,-0.9804420703389831,0.294281756779661,0.47419189330508477,-0.28122061813559324
22,1747666175820,-0.593769281557377,-1.4678143532786885,-1.0093088245901638,0.41117740327868857,0.1954318105737705,-0.21105895459016394
23,1747666175830,-0.6281973936585366,-1.4988408642276423,-1.1477437829268293,0.37284135414634145,0.01284306988617886,-0.1424061001626016
24,1747666175840,-0.7123662146218488,-1.5172608025210084,-1.2564723739495798,0.14361493579831933,-0.13413881952941176,0.01879822336134454
25,1747666175850,-0.9172170646456693,-1.4482087960629921,-1.2371762582677164,-0.43016938322834647,-0.21084951244094488,0.6149296695590551
26,1747666175860,-0.913502212605042,-1.3953121924369747,-1.194522887394958,-0.6870796369747899,-0.18270517319327734,0.9997349428571428
27,1747666175870,-0.8777469780487804,-1.3777468170731708,-1.1784155967479675,-0.7889945252032521,-0.12364309829268294,1.151118494308943
28,1747666175880,-0.7242101023622047,-1.2960458259842522,-1.1527016456692911,-1.210557003937008,0.2847112956692913,1.5966429905511812
29,1747666175890,-0.63275168,-1.214162590909091,-1.1578076181818182,-1.6146279727272728,0.6700636363636363,1.909842418181818
30,1747666175900,-0.5813443666666667,-1.1657801333333333,-1.1741594,-1.9732984,0.9334021000000001,2.1467841
31,1747666175910,-0.5131634464406779,-1.0907207398305085,-1.151544786440678,-2.392386406779661,1.1612651711864406,2.4049971101694916
32,1747666175920,-0.37981456471544717,-0.9762745861788619,-0.9500136577235772,-2.8231906853658537,0.9921593915447153,2.758165837398374
33,1747666175930,-0.24765443217391306,-0.8923051434782608,-0.7198202913043478,-2.8638425,0.4533098257391304,2.9540752173913045
34,1747666175940,-0.158376876,-0.8123201233333333,-0.5332976053333334,-2.57882867,-0.319665759,3.0180408100000005
35,1747666175950,-0.12991717258064514,-0.7526331612903226,-0.4324930580645161,-2.266566212096774,-0.9674824266129033,3.0467890201612904
36,1747666175960,-0.12907781275,-0.6853310858333334,-0.31929400316666673,-1.7293595000000002,-1.8209893,3.1451923250000005
37,1747666175970,-0.12849814040983606,-0.6551896725409837,-0.313139453442623,-1.0862084924590165,-2.475851824590164,3.4900783786885246
38,1747666175980,-0.09969538459016393,-0.6293235983606558,-0.4015061868852459,-0.681715631147541,-2.7709449163934425,3.9084060655737707
39,1747666175990,-0.018773635897435897,-0.6002806715384615,-0.5050232764102565,-0.7813645247863248,-2.6769577316239315,4.149607829059829
40,1747666176000,0.1348426269918699,-0.5528035667479675,-0.5707328570731708,-1.4200580780487806,-2.345066938211382,4.352608524390243
41,1747666176010,0.245741244,-0.51920741,-0.5574511975,-2.0050429949999997,-2.05546987,4.43512588
42,1747666176020,0.3260720853968254,-0.4907836384126984,-0.44967354968253964,-2.5399776761904764,-1.7688039714285715,4.450473152380953
43,1747666176030,0.36293263968,-0.46357014544,-0.28227465656,-3.06348924,-1.43076864,4.47898604
44,1747666176040,0.3894517967226891,-0.38497876647058826,-0.06799557840336135,-3.5166536731092433,-1.0707236117647059,4.60388602184874
45,1747666176050,0.46283521007936507,-0.2578232337301587,0.16658456793650794,-3.7558127404761903,-0.8391203722222221,4.787321857142857
46,1747666176060,0.5332463233333333,-0.21166021128205129,0.2022796487179487,-3.7702236427350426,-0.7966988256410256,4.880969880341881
47,1747666176070,0.6165118585714285,-0.17022411809523808,0.18973707523809524,-3.757160580952381,-0.8421698704761905,4.9934063873015875
48,1747666176080,0.6914903224000001,-0.10784987321119999,0.15651684384,-3.799567,-1.04661744,5.0241663872
49,1747666176090,0.7980850243902439,0.07547917173414634,0.14307707524390242,-4.076288969105692,-1.729533263414634,4.907249720325202
50,1747666176100,0.7843296355932204,0.16767974898305085,0.2448307798305085,-4.17464253220339,-1.9231384677966101,4.840517186440677
51,1747666176110,0.7753039121621622,0.24970135513513514,0.402336046936937,-4.273706684684685,-2.138265135135135,4.758145057657658
52,1747666176120,0.7006632003968254,0.3223027677777778,0.6542128775396826,-4.185377156349206,-1.9671218317460317,4.73236331984127
53,1747666176130,0.6260710789473684,0.3589825031578947,0.7905785105263159,-4.056498684210527,-1.6849591736842104,4.764041578947368
54,1747666176140,0.5701177,0.4024504,0.7568215,-3.897931,-1.2266175,5.004208
55,1747666176150,0.5701177,0.4024504,0.7568215,-3.897931,-1.2266175,5.004208
56,1747666176160,0.851469572972973,0.7348563035135135,0.8008376172972972,-3.1805111851351353,-1.4332714743243242,5.485330722972972
57,1747666176170,1.074739309090909,0.9682637952727272,0.7973216909090908,-2.9415605418181814,-1.9468386454545454,5.308119221818181
58,1747666176180,1.1191166306451612,1.0283234125806453,0.8039639241935483,-2.9213941048387095,-1.9384429161290324,5.097345532258064
59,1747666176190,1.1309534645161292,1.1377319612903225,0.7928238951612904,-2.92909885,-1.71744765,4.5695775
60,1747666176200,0.969023096350365,1.1976370131386862,0.6946759869343067,-3.2064584408759123,-1.1323747357664233,4.10212941459854
61,1747666176210,0.6390078909836066,1.2515315885245903,0.539802625,-3.852997356557377,-0.32596668860655736,3.7600207844262292
62,1747666176220,0.4811538674796748,1.2576825479674798,0.6393902978861787,-4.196033170731707,-0.2076643787804878,3.8717235024390244
63,1747666176230,0.3671861195081967,1.2972002721311477,0.9393923475409836,-4.237171655737706,-0.5845579616393441,4.160863616393443
64,1747666176240,0.317824545,1.5333376885245902,1.415246037704918,-3.352123,-1.9312505,4.74520135
65,1747666176250,0.37224240451612906,1.8148018354838709,1.8552918290322582,-2.301828814516129,-3.2315659032258064,5.299896556451613
66,1747666176260,0.7938997943396225,1.9508048603773587,1.8857612886792452,-1.308634715471698,-3.7553345000000005,5.533741819811321
67,1747666176270,1.6790570976744186,2.173539862790698,1.6861915488372095,-0.5805303319379845,-3.4920230635658913,5.242829124031008
68,1747666176280,2.295405931355932,2.501315931355932,1.4120697627118644,-0.4284960688135593,-2.7427539220338986,4.535053338983051
69,1747666176290,2.589390470689655,2.818270018103448,1.1680369577586207,-0.8190228206896552,-0.6665592820689655,2.442892203448276
70,1747666176300,2.189203131496063,3.0495145456692914,1.0867927118110237,-1.5819437338582678,0.5672340615748032,0.9765089957480315
71,1747666176310,1.5148673702479338,3.235684666942149,1.286526588429752,-2.178219195041322,1.1434640008264463,0.20052534780991738
72,1747666176320,0.8362109806451614,3.3609595645161288,1.9360904903225804,-1.8333199008064516,0.6624291586290322,0.144346468266129
73,1747666176330,0.5851529021848739,3.4113440882352943,2.3401829764705884,-0.8806315757983194,-0.020132889663865554,0.3323774285714286
74,1747666176340,0.74498478,3.4282721499999997,2.2823013000000003,-0.007542217580645138,-0.21329543008064517,0.28094875862903224
75,1747666176350,0.9101735974789916,3.4453540621848737,2.1424062647058824,0.5502047718487395,-0.17632959571428572,0.10066443571428571
76,1747666176360,1.1227446666666665,3.4189164666666665,1.7854415333333333,1.02878869875,0.32598824574999996,-0.62131103125
77,1747666176370,1.292456360483871,3.3017736177419352,1.3994950838709677,1.0245836088709677,1.1636145326612903,-1.698954189516129
78,1747666176380,1.40943065,3.1357695,1.3731881000000001,0.90621858,1.53205,-2.27333505
79,1747666176390,1.4774237669421488,2.978498851239669,1.4522575719008266,0.9333212809917356,1.7037081933884297,-2.7270084991735537
80,1747666176400,1.4866127163934426,2.7957839163934426,1.5479849959016392,1.1879325713114752,1.7180835098360654,-3.156305647540983
81,1747666176410,1.3724058934426229,2.387183923770492,1.5468027204918031,2.151747804918033,1.487336668852459,-3.892944039344262
82,1747666176420,1.297902387804878,2.1823659097560975,1.413627131707317,2.596400821951219,1.4208427658536587,-4.142232536585365
83,1747666176430,1.246978,1.9776366533333336,1.2857911433333333,2.9297249549999997,1.38124266,-4.370954477500001
84,1747666176440,1.1968754008474576,1.7816862322033897,1.125250752542373,3.0785329966101695,1.3958633059322034,-4.547819105932204
85,1747666176450,1.1652261142857143,1.4779642317460318,0.8404634349206349,3.100247771428571,1.5132926087301586,-4.805215976190476
86,1747666176460,1.2330571596638655,1.3753508352941175,0.7866723764705882,3.003028998319328,1.579620545378151,-4.938116356302521
87,1747666176470,1.3277487756097561,1.1869040292682926,0.7200283824390245,2.9278772,1.6132951,-5.0744576
88,1747666176480,1.221268599159664,0.8602423073109244,0.5502793709243697,2.8524994218487394,1.4433000109243697,-5.531523532773109
89,1747666176490,1.0871602294117646,0.7693258770588235,0.49002387764705885,2.7631231764705886,1.341064811764706,-5.776377658823529
90,1747666176500,0.9739165032786885,0.713285337704918,0.46551318024590166,2.7029935860655736,1.3178516524590165,-5.770423204918033
91,1747666176510,0.7532495784745763,0.6303109454237288,0.4545442145762712,2.5978181957627116,1.2679336152542373,-5.6713608830508475
92,1747666176520,0.6044524156097562,0.5826718141463414,0.45114281,2.5240953,1.2339478,-5.4867916
93,1747666176530,0.5435809985365854,0.5039187136585366,0.4618218056097561,2.5519963097560976,1.1928857268292683,-5.238840105691057
94,1747666176540,0.5584029840000001,0.384292548,0.39693469,2.7852162173913046,1.0049636410434784,-4.8885472539130435
95,1747666176550,0.54404850176,0.30959929744,0.29214237192,2.94783044,0.84684982112,-4.663306016
96,1747666176560,0.4838000569491525,0.24065697406779663,0.1527674193220339,2.9429623440677966,0.7159444186440678,-4.567315288135593
97,1747666176570,0.2944027562698413,0.1795815854761905,0.03836153511111111,2.66620855,0.6753115071428571,-4.237179685714286
98,1747666176580,0.2247441720833333,0.1546082355,0.04847587003333333,2.5134558666666664,0.6772458916666667,-4.000098416666666
99,1747666176590,0.07180243463414634,0.10238102471544716,0.13417394699186994,2.408298980487805,0.6599132219512195,-3.715952853658537
100,1747666176600,-0.15885726622950821,0.06099430691803279,0.2810739254098361,2.3821842655737706,0.5305664989344262,-3.141539736065574
101,1747666176610,-0.21337712,0.0511217002330097,0.32513637796116507,2.466750909708738,0.3085284586407767,-2.4462306621359224
102,1747666176620,-0.17884515088,0.0176131231936,0.3030175732,2.551779556,0.1505660632,-2.01040636
103,1747666176630,-0.0013361086440677955,-0.045134045427118644,0.17742962576271185,2.5803568966101698,0.048113403389830514,-1.7166866372881355
104,1747666176640,0.0592042204,-0.054355617875,0.15739862908333332,2.5283662008333336,-0.09052513936666667,-1.6596394325
105,1747666176650,0.18103887890243905,-0.05322432184552846,0.16892929219512196,2.4542232308943093,-0.34307781056910575,-1.7202015146341463
106,1747666176660,0.25748038,-0.051496077,0.183287,2.4459045,-0.46120325,-1.8057177
107,1747666176670,0.4197095858064516,-0.10471630320967742,0.19262611798387097,2.4706296169354838,-0.6636163910483871,-2.304434913709677
108,1747666176680,0.5183795727419355,-0.18244067427419355,0.21587454096774195,2.4822261838709676,-0.7844692162903225,-3.0658391169354835
109,1747666176690,0.5187843575,-0.22332254641666666,0.1888006595,2.431274146666667,-0.7983805073333332,-3.4369519116666667
110,1747666176700,0.4533499022222222,-0.24126414444444444,0.13165533,2.3655901619047617,-0.7678818433333333,-3.6457310317460316
111,1747666176710,0.31454139879310344,-0.24847132439655173,0.030410373931034483,2.1658227500000002,-0.5326744999999999,-3.8808268
112,1747666176720,0.1755042693968254,-0.32033094873015877,-0.0018246189365079362,1.829798384920635,-0.0781083353174603,-3.810829514285714
113,1747666176730,0.08175322209756099,-0.3865688268292683,0.04493034536585366,1.586387292682927,0.20623903276422764,-3.605217424390244
114,1747666176740,0.01047960604,-0.41760740260869567,0.11527566956521738,1.631546763478261,0.09848210104347825,-3.344136532173913
115,1747666176750,-0.04702431846451612,-0.4673932548387097,0.13542028161290323,1.8113927838709676,-0.08174756741935484,-3.119324201612903
116,1747666176760,-0.07736614555555556,-0.5370615422222222,0.12235403555555555,2.0925266444444444,-0.27761999418803424,-2.8800260307692307
117,1747666176770,-0.16270418216000002,-0.7476820504000001,-0.00891687632,2.755486104,-0.555134812,-2.5489745112
118,1747666176780,-0.39185425525000006,-0.8961253041666667,-0.23527320533333332,3.1844915333333335,-0.6383338416666666,-2.3291935825
119,1747666176790,-0.5136988458536585,-0.9324137422764228,-0.341338836504065,3.300505,-0.6243043,-2.2479842
120,1747666176800,-0.5871659944715447,-1.2657682154471546,-1.1377591641463416,2.864764284552846,-0.3234307916178862,-1.9188072008130082
121,1747666176810,-0.60989904,-1.3628157,-1.3567142,2.312125,-0.029321533,-1.9517145
122,1747666176820,-0.8491604768292683,-1.5505989235772357,-1.6825882113821138,0.94099572,0.5284033887560976,-2.2101253536585364
123,1747666176830,-1.05872034,-1.66432404,-1.66881458,-0.52399045808,0.9623277544,-2.383625492
124,1747666176840,-1.575854041935484,-1.949759622580645,-1.2472741975806452,-1.742424143548387,1.3102960580645162,-2.4640826096774195
125,1747666176850,-1.7527884826771656,-2.017938392125984,-1.1100318976377952,-1.927106653543307,1.4109880472440945,-2.416193274015748
126,1747666176860,-2.0563463762295084,-2.0834786852459017,-0.9191575774590164,-1.7504294008196721,1.4228653090163934,-1.9159437549180327
127,1747666176870,-2.5075971135593225,-1.9806816949152541,-0.7470219891525424,-1.4706632847457628,1.1907316305084745,-1.427064006779661
128,1747666176880,-2.6031063866666666,-1.8687218933333334,-0.7382487733333333,-0.8013534089166667,0.30069841633333333,0.012415854166666695
129,1747666176890,-2.3983374232142856,-1.829241688392857,-0.8161122223214285,-0.2775618953571429,-0.4494659317857143,1.3560118035714286
130,1747666176900,-2.1202155551181106,-1.7910630464566928,-0.9097685952755906,-0.1571414748031496,-0.5959688031496062,1.8335770110236222
131,1747666176910,-1.8164388701754386,-1.7138748280701754,-1.008406052631579,-0.14916364921052633,-0.5922660142105263,2.1945923307017545
132,1747666176920,-1.3643336512195121,-1.4884316479674797,-1.148735831707317,-0.40696537902439023,-0.296706686504065,2.524571905691057
133,1747666176930,-0.9323304536585366,-1.2101746707317074,-1.2802688073170732,-1.4536804829268293,0.8017382487804877,2.806046736585366
134,1747666176940,-0.732769685,-1.0275237293333332,-1.3266646691666668,-2.3327923833333335,1.6835446166666665,2.89051245
135,1747666176950,-0.6784240370967742,-0.9586568929032259,-1.303163358064516,-2.9751501806451612,2.2597284967741933,2.9754851709677417
136,1747666176960,-0.41830816804878046,-0.7506963048780487,-0.7963469341463415,-3.5254325008130083,2.4842648211382112,3.1219832845528455
137,1747666176970,-0.3114428274796748,-0.6424380182113821,-0.4098018943089431,-3.3369334341463412,1.7788694219512196,3.2275139951219516
138,1747666176980,-0.26314881048387095,-0.5117014306451613,-0.10737338266129032,-2.5982857000000004,0.5354233983870967,3.3230674967741938
139,1747666176990,-0.20375413344827586,-0.37892833344827587,0.036612795327586205,-1.2508517763793106,-1.2826695553448275,3.48588673362069
140,1747666177000,-0.00012202499999999783,-0.19854057,-0.045760735,1.0124267165079364,-3.890552220634921,3.697838934920635
141,1747666177010,0.08812722857142857,-0.1914311293277311,-0.18408684605042017,1.5161675,-4.2858305,3.7024543
142,1747666177020,0.29741011936,-0.12864940406400002,-0.5385718672,1.8556278512000002,-4.143313192,3.5456280528
143,1747666177030,0.3178018932258065,-0.06622611296774193,-0.739855609032258,1.2151834153225807,-3.1706123838709677,3.4514822870967743
144,1747666177040,0.2983693776923077,-0.04712182415384616,-0.7532357784615386,0.6715758545299145,-2.601064309401709,3.473411099145299
145,1747666177050,0.27201534841269837,-0.0450808626984127,-0.6705182441269841,-0.27704192761904767,-1.7937912476190478,3.613733319047619
146,1747666177060,0.2563995471428571,-0.045778168571428565,-0.6020543657142857,-0.6792205445378151,-1.482410774789916,3.6983168126050416
147,1747666177070,0.2634184787903226,-0.03327248161290323,-0.24997366080645161,-1.6559570967741934,-0.7028152016129032,4.099053441935484
148,1747666177080,0.3129294069672131,-0.03687665018032787,-0.07776023783606559,-1.9623094639344263,-0.3850453854098361,4.3005413639344265
149,1747666177090,0.3435298328947368,-0.04761043178947368,-0.01976221436842105,-2.010721952631579,-0.3012101640350877,4.3776639859649125
150,1747666177100,0.3893546253658537,-0.08141988219512196,0.04491645268292683,-1.9881131463414636,-0.3064755687804878,4.453237373170732
151,1747666177110,0.42002252,-0.11275445,0.07980671999999998,-1.9202040083333332,-0.39561160458333333,4.509865479166666
152,1747666177120,0.4211387826229508,-0.11041390004098361,0.08423575831967213,-1.8020525540983607,-0.7289875631147541,4.613770189344262
153,1747666177130,0.462445544,-0.06950359864,0.11112023307999999,-1.7738158656,-1.3450959904,4.7586156736
154,1747666177140,0.49489068,-0.056032673000000005,0.12685234205882354,-1.8478314235294118,-1.4667234117647059,4.797843294117647
155,1747666177150,0.5193218009836066,-0.04403432914754098,0.15075937065573772,-1.996858375409836,-1.4053906737704918,4.8644298360655736
156,1747666177160,0.6301475447457627,-0.013381783101694914,0.14662049118644066,-2.3743296915254235,-0.6242214484745762,5.085577525423729
157,1747666177170,0.74242976421875,-0.0092093471484375,0.129880398828125,-2.67911658125,-0.055918032734375,5.252233757812499
158,1747666177180,0.8269059573770491,0.012951036983606556,0.0914494493442623,-2.9088451459016396,0.1386513940327869,5.3545444959016395
159,1747666177190,0.9337199647058824,0.10320545492436975,0.1329517204201681,-3.358044223529412,-0.12058172352941177,5.489147811764706
160,1747666177200,0.9618136160655738,0.1273018644262295,0.15179160213114756,-3.5271358,-0.25289822,5.5362716
161,1747666177210,1.0653099,0.18206671,0.26480213,-3.7836993,-1.2052372,5.3139167
162,1747666177220,1.1648064446153847,0.26372452753846154,0.629836695076923,-3.637420453846154,-1.495210146153846,5.091139030769231
163,1747666177230,1.1648064446153847,0.26372452753846154,0.629836695076923,-3.637420453846154,-1.495210146153846,5.091139030769231
164,1747666177240,1.0944588260869565,0.3719007830434783,0.9143869434782609,-2.755205966666667,-1.8611028,4.794885033333333
165,1747666177250,1.0726676393442622,0.3900954798360656,0.9530594786885246,-2.590534423770492,-1.840597094262295,4.8262261
166,1747666177260,1.1255093322033898,0.43070312254237286,1.0552373067796612,-2.1011486016949155,-1.7456975203389828,5.00605093220339
167,1747666177270,1.2461870748031496,0.5316489118110236,1.0835661913385828,-1.3807190133858267,-1.6445790748031495,5.2481357102362205
168,1747666177280,1.4515333740157481,0.7905571461417323,0.8892888937007875,-0.6567426574803149,-1.5870903629921258,5.385017716535433
169,1747666177290,1.5458126024590164,0.8689158335245901,0.7870905995081967,-0.6285903404918034,-1.5871279819672133,5.340284213114754
170,1747666177300,1.6321808967213116,1.1421878713114753,0.6432789177049181,-0.9714059662295081,-1.2867926360655737,4.8265562409836065
171,1747666177310,1.5692230933333333,1.27191246,0.6237452613333333,-1.15587928,-1.08917272,4.61520902
172,1747666177320,1.4133906758064516,1.4643119741935484,0.7394107524193548,-1.7505132016129032,-0.6083823503225807,4.526442580645161
173,1747666177330,1.4216822566666667,1.57767555,0.9894162516666667,-1.85971824,-0.598770092,4.68081616
174,1747666177340,1.455888607142857,1.62856570625,1.0995934437500001,-1.8053359625000003,-0.668133845,4.7373364875
175,1747666177350,1.6904015008064517,1.865923912903226,1.3945332491935485,-1.4862351,-0.99204516,4.8832569999999995
176,1747666177360,2.367970416,2.453370776,1.3100505,-0.5992771178,-1.2121643202,4.028448548
177,1747666177370,2.42316025,2.637903206896552,1.1382009336206897,-0.5174449772413794,-0.9478311206896551,3.3492056068965517
178,1747666177380,2.387976841584158,2.8147798267326736,0.976265196039604,-0.8184687089108912,-0.43408323960396045,2.6404075752475253
179,1747666177390,2.1649676184210525,3.116296313157895,0.8562491905263159,-1.4863316026315792,0.21782168947368422,1.8784749157894738
180,1747666177400,1.8754569811023623,3.4631318732283467,1.1019434433070865,-2.633339027559055,0.9367354125984252,0.9186018318897637
181,1747666177410,1.7683104939655172,3.561093923275862,1.5628647129310342,-2.7768669577586205,0.8865339870689655,0.5214419280172414
182,1747666177420,1.7057836023076922,3.5971559084615388,1.9595449446153845,-2.486630290769231,0.681824286923077,0.17508806384615386
183,1747666177430,1.6431082369747898,3.5874260949579835,2.2557083092436976,-1.5161470172268907,0.44308776806722694,-0.41301677478991594
184,1747666177440,1.556141216981132,3.4630850924528302,2.2601359547169815,-0.07198989094339622,0.4051188996226415,-1.2070005811320754
185,1747666177450,1.582769395238095,3.3181094142857144,1.9585826047619048,0.6189955695238095,0.7107126485714287,-1.8066484833333334
186,1747666177460,1.6130595707547168,3.16140245,1.7056423858490566,0.9548457699999999,1.1075793575471697,-2.4918750301886794
187,1747666177470,1.645975888976378,2.9493050110236223,1.669751331496063,1.1155216716535432,1.1763244464566929,-3.095711138582677
188,1747666177480,1.7302031857142859,2.6966582666666667,1.754562480952381,1.3719305738095238,1.046106761904762,-3.6047448190476192
189,1747666177490,1.833991824369748,2.523420623529412,1.8202261394957981,1.6687914084033615,0.9097631504201681,-3.859302848739496
190,1747666177500,1.940727909375,2.323501284375,1.817158796875,2.212601525,0.783511035625,-4.2334296984375
191,1747666177510,2.0112758,2.1843123,1.7462295000000003,2.5234842,0.77274454,-4.4550405
192,1747666177520,2.0112758,2.1843123,1.7462295,2.5234842,0.77274454,-4.4550405
193,1747666177530,2.0130798512,2.0573713656,1.6028058840000001,2.5234842,0.77274454,-4.4550405
194,1747666177540,1.908058179661017,1.4865609313559323,0.9611284974576271,2.9415491610169493,1.571953006779661,-5.409455164406779
195,1747666177550,1.793440044,1.1854641039999998,0.811031558,2.7585647656,2.0201069376,-5.8190974368
196,1747666177560,1.7673611407079646,1.0157792442477875,0.7477935785840708,2.7447418460176993,2.1441694389380532,-5.984792662831858
197,1747666177570,1.7635539338582678,0.89349938496063,0.699833198031496,2.765108056692913,2.2314858826771653,-6.130806955905512
198,1747666177580,1.6543499031746032,0.6658985973809524,0.6252533607142856,2.813732603174603,2.3037764063492063,-6.296440038095238
199,1747666177590,1.4998294600000002,0.509933224,0.5726559099999999,2.93026454,2.2614128958333333,-6.396945206666667
200,1747666177600,1.3459697243902438,0.40353973,0.5389795878048781,3.1164954097560975,2.0333171032520325,-6.360319065040651
201,1747666177610,1.179434734188034,0.2832127825641026,0.5275516495726496,3.275334147863248,1.733640794017094,-6.218054939316239
202,1747666177620,1.1373067,0.25406358,0.5252112,3.3243286999999997,1.6450601,-6.1782913
203,1747666177630,1.0795257188034189,0.09412891446153845,0.43153074837606836,3.525298028205128,1.3478454170940168,-6.095861178632479
204,1747666177640,1.0609169,-0.017816179000000005,0.32728076000000006,3.8386772,0.83077675,-6.070779
205,1747666177650,1.0609169,-0.017816179,0.32728076,3.8386772,0.83077675,-6.070779
206,1747666177660,1.0227390157024794,-0.08352606892561984,0.24248197380165287,3.8361024727272723,0.7170598863636364,-6.109399698347108
207,1747666177670,1.0101529,-0.10518867,0.21452633,3.835012,0.66889745,-6.1257567
208,1747666177680,0.7226128175925927,-0.1803244105555556,0.1250748225925926,3.54241884537037,0.4646931089814815,-5.943119282407407
209,1747666177690,0.53058046,-0.2238005,0.06833603,3.3334916,0.32925635999999997,-5.795889400000001
210,1747666177700,0.48684460121951223,-0.27117537406504066,0.01305408687804878,3.0707897422764225,0.48234516430894303,-5.528568764227642
211,1747666177710,0.46235765024,-0.30978088847999996,-0.0154693242,2.9578094,0.548557,-5.4104333
212,1747666177720,0.40593119827868857,-0.33372628172131147,-0.032239563475409835,2.8806100598360653,0.5120753232786885,-5.283648726229508
213,1747666177730,0.39647793699186995,-0.3157743674796748,-0.03206674240650406,2.4100371552845528,0.2509166184552845,-4.578583915447154
214,1747666177740,0.5214454979338843,-0.35704566884297523,0.0041146832231404975,2.1484686074380166,0.04108447455371901,-4.50137492231405
215,1747666177750,0.49659012448,-0.3926959196,0.041233956624,1.9707587832,0.04321016276,-4.494301651200001
216,1747666177760,0.37807516675,-0.43052308875,0.099666882325,1.8736458175000001,0.088941981525,-4.378727929999999
217,1747666177770,0.28767802365853656,-0.4671136741463415,0.16343501865853657,1.8988770268292683,0.10142846479674797,-4.239186243902439
218,1747666177780,0.2963831325,-0.5332467875,0.146342825,2.029803333333333,0.11881328666666667,-3.9920552083333334
219,1747666177790,0.33020946,-0.592571,0.10470056,2.1587976999999996,0.14660765,-3.8099666
220,1747666177800,0.30720513640625,-0.62695634921875,0.0330239953984375,2.17669428203125,0.2068590171875,-3.7562772445312502
221,1747666177810,0.22472962280701755,-0.6926515912280702,-0.03236541542105263,2.120538352631579,0.24402458000000002,-3.666927505263158
222,1747666177820,0.16317310906504065,-0.7529106511382113,-0.08299533674796748,2.0793853,0.27000242,-3.602883
223,1747666177830,0.08117900065789474,-1.1059968685087718,-0.3106099315789474,2.0352261429824563,0.22433757350877193,-3.513648622807018
224,1747666177840,0.07736614,-1.1404796,-0.33362624,2.0156049147540984,0.20666271590163934,-3.4783969180327867
225,1747666177850,-0.02480181983606557,-1.2557425590163933,-0.41712383803278685,1.9718829803278688,0.2953483352459017,-3.4907144065573767
226,1747666177860,-0.6184553905882353,-1.652971023529412,-0.7189352211764706,1.468956381512605,0.6193557442016806,-2.868150986554622
227,1747666177870,-0.874755371984127,-1.8521563150793652,-0.8557092542063491,1.1545062666666668,0.7488480685714285,-2.5268877428571432
228,1747666177880,-0.94051069536,-1.9220426512,-0.9228312176,0.8567409992,0.8910031792,-2.2470018176
229,1747666177890,-1.0089900670588234,-2.003293641176471,-1.0572416588235294,0.3841983194117647,1.1848629823529413,-1.8884719
230,1747666177900,-1.1395938580645162,-2.0911611193548385,-1.2646456338709677,-0.2752145118870968,1.6135217233870967,-1.6092209669354838
231,1747666177910,-1.2346857,-2.1347687,-1.3398743,-0.8240361284482759,1.8949461732758621,-1.462053298275862
232,1747666177920,-1.2346857,-2.1347687,-1.3398743,-1.0201449,1.9816469,-1.4135422
233,1747666177930,-1.6876965219298246,-2.2081743184210527,-1.2102070657894737,-1.3778976228070177,1.8852051824561404,-1.0106176157894737
234,1747666177940,-1.8532957461538462,-2.186325258119658,-0.9998483461538462,-1.9018584581196583,1.5119280034188034,-0.06670960598290601
235,1747666177950,-1.89284274015748,-2.0974471897637796,-0.7895482462992126,-1.6374988023622048,0.6993925881889763,1.1221691006299213
236,1747666177960,-1.751412282352941,-1.9903442705882355,-0.7477483223529412,-1.2754557857142859,-0.06905344731092437,2.329157400840336
237,1747666177970,-1.613764005882353,-1.9243872571428573,-0.753523648235294,-1.1632465596638655,-0.3154631386554622,2.836591381512605
238,1747666177980,-1.272326475409836,-1.7706433524590164,-0.8152671990163934,-1.2762677540983607,-0.42869722704918034,3.7004914573770495
239,1747666177990,-1.048714,-1.6686195000000001,-0.86615914,-1.4260675704347825,-0.39289260217391303,4.108833583478261
240,1747666178000,-0.7837787371900826,-1.5384804305785125,-0.9138794459504133,-1.8533652,-0.17287487,4.4556513
241,1747666178010,-0.58427304,-1.4423783,-0.946454,-2.3417446944,0.0776483044,4.6742726376
242,1747666178020,-0.45104558341463413,-1.3725203772357724,-0.9468865439024391,-2.987861170731707,0.39701771691056914,4.892037454471545
243,1747666178030,-0.09148718067768595,-1.2193624512396695,-0.6250064140495868,-4.497598969421488,0.9990978578512396,5.263250256198346
244,1747666178040,0.025148062583333335,-1.1650479291666664,-0.44833317500000003,-5.2000923,1.1822278666666668,5.436497
245,1747666178050,0.09662682317073171,-1.1272190333333334,-0.3141155826829268,-5.410686558536585,1.0425532999999998,5.542976448780488
246,1747666178060,0.29251852730434785,-0.9614922,0.11761226156521738,-5.344629903478261,0.6982296060869565,5.6582801878260875
247,1747666178070,0.42548331375000004,-0.8267363378125,0.378769245625,-4.71175625859375,-0.00776944078125,5.9265623125
248,1747666178080,0.5844187021774193,-0.7009619131451613,0.5607451690322581,-4.096196022580645,-0.41358531774193547,6.063162967741936
249,1747666178090,0.6544021937190082,-0.6457169563636365,0.6178279246280991,-3.8639496545454546,-0.508472108677686,6.076059738842976
250,1747666178100,0.7227592605,-0.5919893296666667,0.6539799,-3.51058151,-0.6220135465,6.072550455
251,1747666178110,0.9487631626153846,-0.41656442430769225,0.49878915999999995,-2.5888562800000003,-0.552936410923077,5.6902942553846145
252,1747666178120,0.9322489469026549,-0.3621895982300885,0.37588269787610623,-2.331613203539823,-0.43966619672566376,5.445674480530974
253,1747666178130,0.8622021918032787,-0.3325180016393443,0.2852909170491803,-2.3090305844262295,-0.33304172975409835,5.284169650819672
254,1747666178140,0.8366282,-0.3231318,0.255772,-2.3176227,-0.30726522,5.2503867
255,1747666178150,0.5477720681102363,-0.21261998606299212,0.24953219716535432,-2.6016895677165355,-0.488302594488189,5.470182885826771
256,1747666178160,0.46997290999999997,-0.16221671666666665,0.27236788666666667,-2.942887766666667,-0.7781274775213675,5.860776901709402
257,1747666178170,0.50837123,-0.15375607,0.27871338,-3.267133505511811,-1.024574988976378,6.266327830708661
258,1747666178180,0.6399036202542373,-0.18586614584745761,0.2960766062711864,-3.5057557,-1.0030408,6.5264845
259,1747666178190,0.9333208017094017,-0.28393870273504274,0.34084158752136756,-3.909083394871795,-0.6706361029059829,6.749392760683761
260,1747666178200,1.3042458935483874,-0.33812949645161294,0.403418764516129,-4.378435838709678,-0.18140727258064515,6.861819532258065
261,1747666178210,1.4311121126126125,-0.29565446486486485,0.4355476563963964,-4.468281340540541,-0.02950313937837838,6.747782486486487
262,1747666178220,1.4619654072000001,-0.20830578944,0.438678268,-4.5958519584,-0.182370158608,6.5050941920000005
263,1747666178230,1.3711137,-0.09225364,0.5105677,-4.856807134328358,-0.8275674405970149,6.336833462686567
264,1747666178240,1.3711137,-0.09225364,0.5105677,-4.968167,-1.1362094,6.356053
265,1747666178250,1.419981057798165,-0.09839985559633027,0.5601404678899082,-5.073078926605504,-1.3868882990825688,6.416831321100918
266,1747666178260,1.4894813000000002,-0.10714114000000001,0.63064396,-5.222287,-1.7434094,6.503271600000001
267,1747666178270,1.4894813000000002,-0.10714114000000001,0.63064396,-5.222287,-1.7434094,6.503271600000001
268,1747666178280,1.9059072736842106,-0.11710894368421053,1.2511787263157894,-4.868370821052632,-1.8453918157894735,6.740319094736842
269,1747666178290,2.0412948,-0.07150877,1.3264512,-4.4843616,-1.4770721,6.952257
270,1747666178300,2.3373363,0.020500809,1.3401184,-4.168413173831776,-1.043717586728972,6.906865024299065
271,1747666178310,2.528087484,0.146926372152,1.3076216512,-3.994448,-0.73853606,6.582684
272,1747666178320,2.4737142692913388,0.34968214299212597,1.1796189897637794,-4.294435678740157,-0.3985294357480315,5.701036881889764
273,1747666178330,2.21674835483871,0.387555025483871,1.2441527395161291,-4.9135983524193545,-0.2350698108870968,4.9205147419354835
274,1747666178340,2.1662600580645157,0.3530878477419355,1.384202219354839,-4.962097938709678,-0.3819976848387097,4.692883564516129
275,1747666178350,2.2290383307086614,0.31408821842519685,2.0021055401574803,-4.43226000472441,-0.6634092622047244,4.444727433070867
276,1747666178360,2.330274602459016,0.4176439483606557,2.182768047540984,-3.7721329344262298,-0.8644744286885246,4.229050163934426
277,1747666178370,2.4251603102362203,0.5916255349606299,2.19006405984252,-2.998458476377953,-0.9823193527559055,3.912818102362205
278,1747666178380,2.4971192491525422,0.9898486293220339,1.8529343669491527,-2.460761855932203,-0.8990072617796611,3.3061010957627115
279,1747666178390,2.4756202838709678,1.238175276612903,1.651936864516129,-2.6508545645161288,-0.7021452478225807,2.779431925
280,1747666178400,2.5008233536,1.4016735288,1.6487257944,-3.1951771008,-0.42015800568000006,2.4117643904
281,1747666178410,2.52404,1.462147,1.6727684,-3.3475416,-0.33475417,2.3127358
282,1747666178420,2.5390523874015747,1.5040364440944882,1.7668784283464567,-3.472052264566929,-0.2327877688976378,2.1617510850393704
283,1747666178430,2.5686347470588236,1.6166229268907564,2.035816905882353,-3.6685435092436975,0.04833022176470588,1.7436044857142858
284,1747666178440,2.4802448066115703,1.8966656859504132,2.786419674380165,-2.530860223140496,1.0187768425619836,0.23050318347107437
285,1747666178450,2.3291317203125,1.98210518125,2.86095345703125,-1.596229046875,1.35682715,-0.4648875859375
286,1747666178460,2.075662794262295,2.0542998942622948,2.7804841795081967,-0.5780237113114755,1.537332449180328,-1.1427386172131149
287,1747666178470,1.94748146640625,2.06950628125,2.718340071875,0.045113352656249994,1.589366340625,-1.4728390382812502
288,1747666178480,1.8940926195121952,2.03641966097561,2.6263179414634146,0.5302409679674797,1.6106778634146341,-1.6900902308943089
289,1747666178490,1.8900902975206613,2.0037746140495867,2.5927735049586773,0.8575134429752066,1.602016876859504,-1.845009856198347
290,1747666178500,1.8750303338582677,1.8339768527559055,2.5346614307086615,1.5762151102362205,1.4078712401574802,-2.221841979527559
291,1747666178510,1.8549151260504202,1.4962062697478993,2.363438201680672,2.5376574487394956,0.8682397388235294,-2.663685542857143
292,1747666178520,1.8562995,1.4184607,2.3165915,2.9248228,0.63713247,-2.8356364
293,1747666178530,1.8562995,1.4184607,2.3165915,2.9248228,0.63713247,-2.8356364
294,1747666178540,1.8626552420168068,1.4120557352941179,2.310168071428571,2.955869131932773,0.6297712842857143,-2.8614159495798317
295,1747666178550,2.1997797568,1.0407714056,1.9365766328,3.3453962535999997,0.8911497728000001,-3.685638296
296,1747666178560,2.3341415612612617,0.8001010549549549,1.778084563963964,3.3204488891891892,1.3755694675675676,-4.412164054054054
297,1747666178570,2.3346517,0.7387613,1.8062676,3.3347135,1.4489723,-4.550946
298,1747666178580,2.3088446575000003,0.4978055948333333,1.8672148766666665,3.9232564883333327,1.5041945775,-4.887492231666666
299,1747666178590,2.3464620847999997,0.37254457984,1.8384109951999998,4.3166181224,1.5264300592,-5.0553449648
300,1747666178600,2.3981723611111114,0.3132009703968254,1.7743116396825396,4.6173170714285705,1.5224410015873016,-5.195656248412699
301,1747666178610,2.477099079104478,0.2491988448507463,1.6475029470149254,4.835800686567164,1.4810017611940296,-5.35871974477612
302,1747666178620,2.5066567117647063,0.11260473610924371,1.4406699218487395,5.154896840336135,1.118627767394958,-5.877611905882353
303,1747666178630,2.3788749200000003,-0.009274176400000002,1.34021596,5.40706168,0.6415306712000001,-6.367268176
304,1747666178640,2.3132748615384617,-0.03530694994871795,1.330593853846154,5.4825783,0.51464611,-6.472931548717949
305,1747666178650,1.9989133732283464,-0.11247003086614173,1.1437694149606297,5.8960667913385825,0.3226474940944882,-6.627248009448819
306,1747666178660,1.8309802064220184,-0.13806474761467888,0.7813638339449541,5.8186091972477065,0.4462566697247706,-6.6494588201834866
307,1747666178670,1.7244578007999998,-0.11061259728,0.5599785984,5.641443166399999,0.53651070928,-6.6687914368
308,1747666178680,1.6562288333333333,-0.08690732132478633,0.4440798871794872,5.205882486324787,0.6294365739316239,-6.699635883760683
309,1747666178690,1.5164794764705882,-0.05310398617647059,0.29198271176470586,4.779810267226892,0.6539440884033613,-6.713491353781513
310,1747666178700,1.3630361451612902,-0.05927442096774193,0.3387278364516129,4.273711911290323,0.5718880973387097,-6.684284471774194
311,1747666178710,1.2857174390243904,-0.06694312085365854,0.5141274268292683,3.9231454926829272,0.15158396650406505,-6.656643268292683
312,1747666178720,1.2074868126984126,-0.060293763507936506,0.6310236047619048,3.929982046031746,-0.43808734746031747,-6.658367932539683
313,1747666178730,1.065381323089431,-0.08251516417886179,0.6171136463414634,4.11653128292683,-0.6174208829268292,-6.622717890243902
314,1747666178740,0.9931958297600001,-0.13804464528,0.47538836327999995,4.2617183679999995,-0.7192767417599999,-6.5462325488
315,1747666178750,1.0011228,-0.1461903,0.45248213,4.2540655,-0.70921457,-6.5350366
316,1747666178760,0.965794453508772,-0.14848743201754386,0.41493585096491226,4.151825942982456,-0.6597023279824562,-6.506009739473685
317,1747666178770,0.8922733,-0.15326795,0.336799,3.8417315,-0.516792,-6.4091983
318,1747666178780,0.8076454475409837,-0.22993393524590167,0.24936250098360657,3.4147867360655737,-0.45800874557377047,-6.223735372131147
319,1747666178790,0.7787503958677685,-0.25389215685950417,0.23980945462809916,3.183198530578512,-0.478140900661157,-6.139614816528926
320,1747666178800,0.7583129377777779,-0.2732898866666667,0.24440977888888887,3.045027588888889,-0.6249151444444444,-6.131661733333333
321,1747666178810,0.7544166660975609,-0.30394056707317074,0.23328896682926828,2.9102912308943094,-0.8030642731707316,-6.1546662536585375
322,1747666178820,0.5893510221774193,-0.3692487666935484,0.2916661120967742,2.6512341290322583,-1.129076,-6.151314419354839
323,1747666178830,0.5467749669421488,-0.39449937834710747,0.3101342413223141,2.612877785123967,-1.152859188429752,-6.1189258694214885
324,1747666178840,0.48504461016528927,-0.4543821738842976,0.3461296543801653,2.5463742066115698,-1.148951673553719,-6.035414279338843
325,1747666178850,0.401931785,-0.543210425,0.46239693499999995,2.5852580625,-1.111087525,-5.8329996
326,1747666178860,0.3648656,-0.58183247,0.5232587,2.6681735264462807,-1.0751480768595043,-5.697479574380165
327,1747666178870,0.27014447433070865,-0.6777335298425197,0.5479219768503937,2.933067092913386,-0.9814247496062993,-5.524338267716535
328,1747666178880,0.16818570429752067,-0.7790993239669421,0.5573581436363637,3.426873282644628,-0.9386929216528926,-5.239264998347108
329,1747666178890,0.07918657593442624,-0.8626103704918032,0.5403587262295082,3.6977276180327867,-1.0098403683606558,-5.067698119672131
330,1747666178900,-0.074315434,-1.05878135,0.26919515,4.1820836234375,-1.2355799828125,-4.49546230078125
331,1747666178910,-0.07872287656692913,-1.1612705070866143,0.018344651023622056,4.252973624409449,-1.2823937905511809,-4.11983388976378
332,1747666178920,-0.04496395894117647,-1.2931445529411765,-0.35949633294117644,3.7903264411764703,-1.0334710840336134,-3.865991507563025
333,1747666178930,-0.14795919466666668,-1.4440451017094016,-0.6308921647863248,2.943796263247863,-0.6662294829059828,-3.829425392307692
334,1747666178940,-0.2840164623728813,-1.5769367050847456,-0.7687058593220338,1.8663280457627118,-0.18624142166101695,-3.775789118644068
335,1747666178950,-0.495768144,-1.7512865119999999,-0.7764144119999999,0.9796910272,0.284975961952,-3.570375384
336,1747666178960,-0.6272589417391303,-1.8742026034782608,-0.7371016802608695,0.3298672339130435,0.6932523765217391,-3.219631747826087
337,1747666178970,-0.8680580073170733,-2.213135024390244,-0.6270902424390244,-0.15452406414634146,1.0326602284552844,-2.8263542634146344
338,1747666178980,-0.9594132239669422,-2.3286733388429752,-0.5851767021487603,-0.37856984000000005,1.1474825545454546,-2.557303936363636
339,1747666178990,-1.179384172,-2.4136069352,-0.53897993216,-0.62794503456,1.1222180568000002,-2.0414334168
340,1747666179000,-1.2532339,-2.4330065,-0.5320448,-0.6646709202702703,0.9132600535135136,-1.6045724216216217
341,1747666179010,-1.5089687084745764,-2.4760806855932205,-0.5370500730508474,-0.7214318677966102,0.6918721918644067,-1.0988223516949152
342,1747666179020,-1.5787736275590551,-2.4720808905511813,-0.5332689334645669,-1.0587449086614173,0.4090776922834646,0.002631047637795252
343,1747666179030,-1.582021320472441,-2.4545068236220473,-0.514426548031496,-1.2851738881889765,0.35777462921259845,0.560307742519685
344,1747666179040,-1.5581574606557376,-2.418483219672131,-0.47378313213114753,-1.4884082196721313,0.4150478775409836,1.0080979163934425
345,1747666179050,-1.38241,-2.2632472857142854,-0.3715597257142857,-1.8110263746031747,0.6358428432539682,1.8294056968253967
346,1747666179060,-1.2099148570247935,-2.1225900132231406,-0.3253403998347107,-2.079940676033058,0.8990017743801653,2.6043861305785123
347,1747666179070,-1.0686354837398373,-1.9951184317073172,-0.3105201903252033,-2.4187879975609756,1.1626007268292684,3.5062274097560975
348,1747666179080,-0.9657810857142857,-1.9062208095238096,-0.2903119164285714,-2.5288075880952383,1.171862573015873,3.775607746825397
349,1747666179090,-0.8026099277310925,-1.7812692512605042,-0.23019725974789917,-2.649497172268908,1.1113641016806723,4.138683896638656
350,1747666179100,-0.6463344129032258,-1.6851758935483871,-0.17129670290322582,-2.6880978209677417,0.9578761532258064,4.476607757258064
351,1747666179110,-0.3636074318965517,-1.5029718275862067,-0.054959170344827585,-2.523273748275862,0.4768540410344827,4.947650465517241
352,1747666179120,-0.06196853516393443,-1.2348376409836066,0.12064430049180327,-2.164906424590164,-0.16924973532786883,5.326965421311476
353,1747666179130,0.20121597411764705,-1.0281906292436975,0.19895998798319328,-1.667795620168067,-0.5352770705882353,5.631181848739495
354,1747666179140,0.3478041344537815,-0.9174419163865546,0.20622427689075631,-1.3571988857142856,-0.567627305882353,5.799626620168067
355,1747666179150,0.3790209,-0.89398164,0.20329969,-1.2925909,-0.5491679,5.8319306
356,1747666179160,0.49068552517241376,-0.8089150813793103,0.11603870210344827,-1.0961239724137932,-0.2492751625862069,5.932533793103448
357,1747666179170,0.5769453926829269,-0.7142721956097562,-0.03217984043902439,-0.9854845813008131,0.0471210514796748,6.016829147154471
358,1747666179180,0.5760921731707318,-0.6606946899186992,-0.16666927422764227,-1.0170907,0.22479841000000003,6.0603943
359,1747666179190,0.5210703861666667,-0.6128846849999999,-0.269520562,-1.6793755124999998,0.6219575210833334,6.322027718333333
360,1747666179200,0.48957884,-0.5852493,-0.30165476,-2.2406538,0.8594874,6.5307603
361,1747666179210,0.46827837617886175,-0.6106867987804878,-0.23344770878048782,-2.683804230894309,0.8550176520325203,6.705279007317073
362,1747666179220,0.5362732075968992,-0.7358174674418605,-0.03020256003875969,-4.363481701550388,0.6889660124031007,7.418172400775193
363,1747666179230,0.6397724317741935,-0.7948117808064515,0.03396332075806452,-4.61498861451613,0.6382950446774194,7.545910164516129
364,1747666179240,0.7472704547058824,-0.8531420970588235,0.07192100408403361,-4.8577238487394965,0.6007166552100841,7.675876173949581
365,1747666179250,1.0389498184,-0.9369826148,0.07287939569600001,-5.519753952,0.5385143613600001,8.169780408000001
366,1747666179260,1.0982802218487393,-0.9311645302521009,0.07426928287394957,-5.784991357983193,0.5283471,8.378617676470588
367,1747666179270,1.2195127185483872,-0.8991718717741936,0.10282289354032258,-6.332367125806452,0.47154856516129035,8.724278741935484
368,1747666179280,1.3130119819672132,-0.9079009688524591,0.1280980505737705,-6.842131382786886,0.33092373729508195,8.890066877049179
369,1747666179290,1.463203879661017,-0.980073918220339,0.1293172411016949,-7.562848283898305,0.1410115165254237,8.899038754237287
370,1747666179300,1.6084506811023622,-1.1620661236220473,0.3987299562992126,-9.006967330708662,-0.18633794401574802,8.392095039370078
371,1747666179310,1.6759411499999999,-1.2581151499999998,0.66371368,-9.422169784482758,-0.3974678902586207,8.03495274137931
372,1747666179320,1.7554170305785124,-1.333304917355372,1.0340423396694214,-9.359480305785125,-0.5295040425619835,7.839031923966942
373,1747666179330,1.925937135,-1.185733795,1.7541980408333333,-7.751314925,-0.96113544125,7.686777085
374,1747666179340,2.0202006827586207,-1.1058528103448275,1.872949975862069,-6.357543113793104,-1.4548230232758619,7.748572901724137
375,1747666179350,2.232034456910569,-1.0535911975609755,1.7893404585365853,-4.959202641463415,-2.1820056788617888,7.830075608130081
376,1747666179360,2.358213126229508,-1.0411802885245902,1.6877239491803278,-4.13385527295082,-2.7285998098360658,7.829139391803279
377,1747666179370,2.5061437901639345,-1.0229320295081967,1.5545167344262296,-3.6537301655737706,-3.1182366647540984,7.783760307377049
378,1747666179380,3.0077615,-0.83833665,1.2195541,-3.1991012,-3.811799,7.4733253
379,1747666179390,3.1679231295081967,-0.7434223762295082,1.1826734786885247,-3.4563657,-3.6810839344262294,7.377980436065574
380,1747666179400,3.2377472249999997,-0.499539393125,1.3607792062500002,-4.067656146875,-3.081566953125,7.36245331875
381,1747666179410,3.2377472249999997,-0.499539393125,1.3607792062500002,-4.067656146875,-3.081566953125,7.36245331875
382,1747666179420,4.137586854545455,0.16901629567272727,1.5938091818181817,-4.414478734545455,-1.3491236618181817,5.892672454545454
383,1747666179430,4.137586854545455,0.16901629567272727,1.5938091818181817,-4.414478734545455,-1.3491236618181817,5.892672454545454
384,1747666179440,4.190463,0.20964517,1.5766098,-4.488027,-1.142318,5.551543
385,1747666179450,3.5137646015625004,0.425243058828125,2.0730851046875,-5.00799249296875,-0.78647947109375,4.1204815828125
386,1747666179460,2.82403504,0.5429297799999999,2.6743791199999998,-5.2150786191666665,-0.9167153058333334,2.4197849166666665
387,1747666179470,2.4989713173228347,0.52818988503937,3.162914482677165,-4.554033946456693,-1.4556533952755906,1.995855540944882
388,1747666179480,2.3138462896000003,0.571791004,3.519491,-3.6961060160000003,-1.864355832,1.9503217127999999
389,1747666179490,2.215113526229508,0.7029488972131147,3.6943187336065573,-2.1047211147540983,-2.292657355737705,1.9862233442622952
390,1747666179500,2.4682461577235775,1.073619761300813,3.1697064252032523,-0.39879071707317076,-2.176006280487805,1.982138487804878
391,1747666179510,2.5486898,1.1526824,3.018256,0.45631635,-1.9407189,1.9358319
392,1747666179520,2.566169141322314,1.1658977983471075,2.996724509090909,0.4486982042975206,-1.8635681345454547,1.893939679338843
393,1747666179530,2.9827658191304347,1.6118708260869565,2.5287556617391305,-0.4212845097391304,0.40743116547826086,0.46941013008695653
394,1747666179540,2.9530270521008406,1.6129989361344539,2.6498504277310926,-0.8202431336134454,1.454326461344538,-0.4033610172268908
395,1747666179550,2.793602445544555,1.478404617821782,2.815876871287129,-0.6713227356435643,1.9230099257425741,-0.9100259292079208
396,1747666179560,2.6019814571428572,1.2727237214285714,2.950111742857143,-0.42861545020408165,2.1417310489795915,-1.192683218367347
397,1747666179570,2.2773041024390244,0.8909577653658537,3.1127895390243903,0.8513226812195122,2.1293570829268296,-1.8492232121951222
398,1747666179580,2.233344061061947,0.8143197026548673,3.1009093442477873,1.5198219469026548,1.9756462946902653,-2.109323161946903
399,1747666179590,2.2397435840707964,0.6042166128318583,2.965410078761062,2.7844805876106196,1.6307830823008849,-2.4118473778761063
400,1747666179600,2.356120428813559,0.39115965016949156,2.6637421169491526,3.7176325084745763,1.3249977644067796,-2.6619022593220336
401,1747666179610,2.6391840886956524,0.195209726,2.1637924539130435,4.585606,1.0325481956521738,-3.097803947826087
402,1747666179620,2.7800559155737705,0.13739623352459016,1.9849056254098363,5.083690874590164,0.8997494086065574,-3.6253751286885247
403,1747666179630,3.048502661666667,0.07619466533333334,1.68490627,5.0942397,0.9764375641666666,-4.059973143333333
404,1747666179640,3.205936,0.00707766,1.4938743,4.963891,1.1728612,-4.646241
405,1747666179650,3.1025825543307084,-0.2462038057480315,1.4229479433070866,4.664470669291338,1.6647857677165354,-5.740704814173228
406,1747666179660,3.0287504,-0.3414361,1.4489679,4.601037,1.7983873,-6.029850999999999
407,1747666179670,3.0227557203125,-0.37883024515625,1.46226139375,4.687407609375,1.816269425,-6.0555932210937495
408,1747666179680,3.0355665826771654,-0.6283686218897637,1.5116963937007875,5.322074472440945,1.9212866417322834,-6.254558028346457
409,1747666179690,3.0904968,-0.67555046,1.4816716,5.526498,1.9333885,-6.329786
410,1747666179700,3.0904968,-0.67555046,1.4816716,5.526498,1.9333885,-6.329786
411,1747666179710,3.08705526779661,-0.7559321727118644,1.1882341025423728,5.970162256779661,1.6355037211864407,-7.013488922033899
412,1747666179720,3.0505684148760333,-0.863962682644628,0.8096306636363636,6.526832919008264,1.1587508621487603,-7.9869520000000005
413,1747666179730,2.9706647,-0.8871481,0.7475473,6.5839057,0.9040805700000001,-8.303492
414,1747666179740,2.8456412423728814,-0.8925090871186441,0.7199481677966102,6.64304570338983,0.8123472425423729,-8.448360000000001
415,1747666179750,2.1876623008064517,-0.9166002968548387,0.4636083951612903,6.765081202419355,0.648290583064516,-8.793952120967742
416,1747666179760,1.9860115589285716,-0.9233688026785715,0.33726967589285717,6.7187157526785715,0.7124270397321428,-8.751244937500001
417,1747666179770,1.8545910444444444,-0.8838126111111111,0.079888072,6.218200914285714,0.9155124722222223,-8.534999634920634
418,1747666179780,1.8321378,-0.8473667,-0.0043930304,5.9088993,0.9804387,-8.439714
419,1747666179790,1.8321378000000001,-0.8473667,-0.0043930304,5.9088993,0.9804387,-8.439714
420,1747666179800,1.8321378,-0.8473667,-0.0043930304,5.9088993,0.9804387,-8.439714
421,1747666179810,1.8321378,-0.8473667,-0.0043930304,5.9088993,0.9804386999999999,-8.439714
422,1747666179820,1.1491848959504132,-0.706924900247934,0.0770071206677686,4.761341025619835,0.05189325595041324,-8.058862411570248
423,1747666179830,0.6887237210317462,-0.597678771031746,0.15426548365079365,3.9001757111111113,-0.6924593702380952,-7.694696146825397
424,1747666179840,0.723661483902439,-0.601281656097561,0.17054243479674797,3.7263078357723574,-0.7866553731707316,-7.47213837398374
425,1747666179850,0.5491365396825397,-0.6837786952380953,0.12478491325396826,3.533040933333333,-0.4914410916666666,-7.087156666666666
426,1747666179860,0.507395,-0.6994681,0.11543907,3.503923,-0.43676865,-7.021285
427,1747666179870,0.507395,-0.6994681,0.11543907,3.503923,-0.43676865,-7.021285
428,1747666179880,0.40489097007874014,-0.7629229850393701,0.13077432511811024,3.396963903149606,-0.45052514267716537,-6.609157753543307
429,1747666179890,0.2817764971186441,-0.7810845783898305,0.17201691991525425,3.3003030440677965,-0.6596826822033899,-6.140111936440678
430,1747666179900,0.35306694109375,-0.72855665625,0.16848339453125,3.0685002296875,-1.097553001953125,-5.73332356015625
431,1747666179910,0.3497461363636364,-0.7491085179338843,0.20363854694214878,2.853422323966942,-1.3251181950413222,-5.527361210743802
432,1747666179920,0.34627393193548384,-0.7951444295161291,0.23082501088709678,2.7335332919354838,-1.3984675774193547,-5.4148867919354835
433,1747666179930,0.24795807042016807,-0.8847383023529412,0.21178835605042015,2.587969060504202,-1.152959351260504,-5.181369142857143
434,1747666179940,0.19847452825688075,-0.9221692023853211,0.20004185165137617,2.5369513623853215,-1.006324823853211,-5.081137744036697
435,1747666179950,0.006703572040983608,-1.0467215807377048,0.14501400073770493,2.454201174590164,-0.5334505704918032,-4.740704968852458
436,1747666179960,-0.1847271467768595,-1.1382144685950413,0.09260257153719009,2.439301038016529,-0.4032922151239669,-4.34109626446281
437,1747666179970,-0.42587993,-1.2520137,0.027090356,2.4226916,-0.26511553,-3.825849
438,1747666179980,-0.46274083788135595,-1.433205520338983,-0.1166324786779661,2.3316984796610165,-0.2685218749152542,-3.371158220338983
439,1747666179990,-0.48054874,-1.5563531,-0.22111587,2.257147,-0.27366763000000005,-3.083037
440,1747666180000,-0.5199465483333333,-1.6827494055555556,-0.4355279168253968,2.0749056666666665,-0.26450466333333333,-2.9618819999999997
441,1747666180010,-0.83784854,-1.8807051,-0.7409578,1.295547408,-0.2820242644,-2.737678216
442,1747666180020,-0.9995108643548387,-1.9416229766129032,-0.8112994038709678,0.5987858470967742,-0.06779619048387096,-2.4575405193548385
443,1747666180030,-1.2795801155737705,-2.072390073770492,-0.8958420668852459,-0.5264206419672132,0.47045638057377054,-1.963581268852459
444,1747666180040,-1.6061387573770491,-2.1998541336065576,-0.7708128172131148,-1.4760907813114754,1.1708684901639344,-1.3412998131147542
445,1747666180050,-1.771726053125,-2.2409564093750003,-0.6526624974999999,-1.7835689984375,1.40274231796875,-0.8577741046875
446,1747666180060,-1.8362289050847458,-2.242757738983051,-0.5754373576271187,-1.8303127152542373,1.4235748915254238,-0.6150947107627118
447,1747666180070,-1.8806316,-2.221784844444444,-0.4660330968253968,-1.795478369047619,1.3342363293650794,-0.09219701658730158
448,1747666180080,-1.8417282312,-2.1490764024,-0.34451704624,-1.5016583112000002,0.9870018648000001,0.7787016936
449,1747666180090,-1.6107320046875,-1.98284875,-0.29131853515625,-0.8561276575,0.24045184079687498,2.0509229062500003
450,1747666180100,-1.3506165433070867,-1.8455801362204725,-0.34553702047244095,-0.5167006184251968,-0.20096023055905513,2.7975221850393703
451,1747666180110,-1.161633819834711,-1.749910647107438,-0.405036182231405,-0.43972201157024793,-0.31342939719008267,3.14222008677686
452,1747666180120,-0.9290878437500001,-1.6101981625,-0.4604521340625,-0.5734974700000001,-0.28373735859375,3.6379697578125
453,1747666180130,-0.7824476,-1.5209647,-0.49446,-0.792018548,-0.2072934572,4.0372376872
454,1747666180140,-0.5528423824,-1.391438676,-0.49589504160000003,-1.2383705,-0.086733091952,4.375530124
455,1747666180150,-0.47347105,-1.3481722,-0.49348375,-1.3298537,-0.065973446,4.4318275
456,1747666180160,-0.3893724402702703,-1.297953555855856,-0.4478362499099099,-1.75257790990991,0.03615661715315315,4.626588836036036
457,1747666180170,-0.12813005,-1.1314493,-0.2545517,-2.2015584,0.12095132,4.819116
458,1747666180180,-0.10532403474789916,-1.0328625478991598,-0.048446388655462184,-2.278404231932773,-0.10830281739495798,4.999449369747899
459,1747666180190,-0.05807570203642277,-0.9835149955284552,0.0912119374796748,-2.1973221455284557,-0.3918228780487805,5.141682398373983
460,1747666180200,0.07465529731834711,-0.9031348371900826,0.2791692104132232,-1.5855487661157024,-1.010174185123967,5.486963472727273
461,1747666180210,0.12422514,-0.8768977,0.3338703,-1.3054191,-1.2064588,5.6248474
462,1747666180220,0.16254212,-0.84614646,0.33411436999999994,-0.9868479904761904,-1.1944838984126984,5.8177159666666665
463,1747666180230,0.20558772083333335,-0.83266233625,0.3042071908333333,-0.5375614,-1.1728612,6.0921593
464,1747666180240,0.3773020774358974,-0.7660602559829061,0.1678216996153846,-0.2957736439316239,-0.920579155042735,6.4217285777777775
465,1747666180250,0.469078,-0.7067898,0.087616555,-0.22907446,-0.6872234,6.667594
466,1747666180260,0.469078,-0.7067898,0.087616555,-0.22907445999999998,-0.6872234,6.667594
467,1747666180270,0.5708635544,-0.63211219344,0.0112871594672,-0.5896169212,-0.40402626598400004,6.890872768
468,1747666180280,0.8046466801652893,-0.5086596672727273,-0.1319785000826446,-1.870126067768595,0.37120918148760335,7.417464033057851
469,1747666180290,0.9158467983606557,-0.5805762081967213,-0.16860754540983608,-2.625458632786885,0.9651571150819671,7.734445278688524
470,1747666180300,0.96396893984375,-0.61398318984375,-0.21029725359375,-3.073635203125,1.3466429265625,7.9292600625
471,1747666180310,0.9365604628571429,-0.5763852924369749,-0.24244113974789916,-3.742812513445378,1.8376520327731092,8.25992488235294
472,1747666180320,0.9246425760629922,-0.5628556111811024,-0.23698151677165355,-4.039700090551181,1.9932147669291338,8.419589413385827
473,1747666180330,0.9209280032786885,-0.5999607137704919,-0.0530524462295082,-6.249722131147541,2.373421698360656,9.705116327868852
474,1747666180340,0.934575224590164,-0.7334920695081967,0.1632942937704918,-7.002448549180328,2.308194459016393,10.240840065573773
475,1747666180350,1.0275953984375,-0.8581434309375,0.33877813203125,-7.53881221875,2.157690675,10.701160890625001
476,1747666180360,1.8281959403361345,-1.1625820974789915,0.6155779937815126,-8.404802084033612,1.8859566588235295,11.1425773697479
477,1747666180370,2.5469040585365854,-1.3017359,0.7434281356097561,-8.883604235772358,2.066909791869919,10.76154387804878
478,1747666180380,2.780944293442623,-1.2540981770491806,0.8885524032786885,-9.02624493442623,2.6363542213114757,9.613176672131148
479,1747666180390,2.8005649180327867,-1.1048791606557378,1.1451206147540984,-9.034086,2.8496864,9.099449
480,1747666180400,2.5798167936507936,-0.8508145444444445,1.4828415444444445,-8.104509130952382,3.0807971269841268,6.663541166666667
481,1747666180410,2.248546579831933,-0.6420777029411765,1.7625609747899162,-6.897310300840336,2.6665192462184875,4.958762857142856
482,1747666180420,2.1157951015625,-0.659620023828125,1.84876029375,-5.8229773296875,1.51240217421875,4.3427316171875
483,1747666180430,2.055694,-0.6760386,1.88461,-5.1880784,0.6780604,4.102571
484,1747666180440,1.9685657,-0.6535853,1.8877828,-4.235129,-0.788627,3.9901717
485,1747666180450,1.9685657,-0.6535853,1.8877828,-4.235129,-0.788627,3.9901717
486,1747666180460,2.1063740656250003,-0.47925978343750003,1.7270786625,-3.4496897187499997,-2.28356695625,4.2410655859375
487,1747666180470,2.6229424666666667,-0.23256682555555558,1.482487494949495,-2.3578225979797978,-3.974283193939394,5.101847828282828
488,1747666180480,2.91565436,-0.16708158799999998,1.40611138,-2.3829854,-3.8832703,5.15387
489,1747666180490,3.2313510672,-0.042163330719999996,1.3593540616,-2.7789432784,-3.2685883216000002,4.9656259344
490,1747666180500,3.08796480625,0.272901743125,1.6634331625,-4.2819648218749995,-0.754747885546875,3.49106149375
491,1747666180510,2.8678249192000003,0.35713773712,1.8354041896000002,-4.573992756799999,-0.06248907120000002,3.0577470912
492,1747666180520,2.30807805,0.5344529545312501,2.3059920625,-4.6278720875,0.9876641671874999,2.37236193984375
493,1747666180530,2.0697798142857144,0.672342853968254,2.694264303174603,-4.108941285714286,0.9528625000000001,2.083224928571429
494,1747666180540,1.911716235483871,0.8049637751612904,2.9469598516129034,-3.53678172983871,0.578799727016129,1.8740014895161292
495,1747666180550,1.7112443511627904,0.9811726148837209,3.221606734883721,-2.691103039534884,-0.07319018069767443,1.602171665116279
496,1747666180560,1.6286495292682925,1.119504489430894,3.2825045650406506,-1.6706817325203251,-0.48806643130081295,1.441125474796748
497,1747666180570,1.6727742392,1.2272213712,3.2372594184,-0.5407867812,-0.67440011104,1.3216924936
498,1747666180580,1.8855658416666665,1.3352718566666666,3.0876760641666667,0.25571837550000004,-0.37466400766666663,1.2421435583333331
499,1747666180590,2.002965652892562,1.4176075338842973,2.9807338016528924,0.6533380418181818,-0.1488542250876033,1.117156373553719
500,1747666180600,2.053811438095238,1.5050661095238096,2.872495809523809,0.9826009746031746,0.1418225423920635,0.8878344042063493
501,1747666180610,2.0299168925619835,1.6715017148760332,2.646038373553719,1.3276071247933885,0.8297266636363637,0.23702076487603307
502,1747666180620,1.99643228852459,1.671856155737705,2.601598163934426,1.4007591000000001,1.1914976795081968,-0.08291243555737705
503,1747666180630,1.9666133,1.6683753,2.5699227,1.453879805882353,1.4311648756302522,-0.28180394369747896
504,1747666180640,1.9047613822033898,1.4831420483050846,2.4760849559322033,1.7363274838983052,1.9927201322033898,-0.8747745127118645
505,1747666180650,1.9029335566929135,1.3435600921259843,2.409198607874016,1.9523637858267717,2.197527724409449,-1.2732740456692913
506,1747666180660,1.9233989266666667,1.2258263400000002,2.3619535233333333,2.054192136666667,2.2163515533333333,-1.478059710833333
507,1747666180670,1.933724204,1.118221532,2.3250065319999997,2.185236,2.212040816,-1.747270064
508,1747666180680,1.9402590508196722,0.7645793229508198,2.3380082836065577,2.527720463114754,2.010297395081967,-2.295526418852459
509,1747666180690,1.9584023382608695,0.6024860826086956,2.3874422773913047,2.843030612173913,1.7990087434782607,-2.5723748539130438
510,1747666180700,2.025431092,0.40936210800000006,2.463836152,3.1218878840000004,1.6454755,-2.70454482
511,1747666180710,2.0806116548387092,0.3054258367741935,2.5092156580645164,3.4823161048387097,1.484530641935484,-2.8292617661290325
512,1747666180720,2.193240647244094,0.1431424563464567,2.5419965456692912,4.36913422519685,1.2734953118110235,-3.0382416779527563
513,1747666180730,2.3292182721311474,-0.02744243836065574,2.478557329508197,5.492148993442623,1.0489057213114754,-3.300434808196721
514,1747666180740,2.3626868335999998,-0.06665106072,2.4152333616,6.066317088,0.84870686632,-3.4960649152
515,1747666180750,2.477317975609756,-0.1986685509756098,2.1188573219512197,6.284134741463414,0.7109279581300814,-3.6369575959349594
516,1747666180760,2.5633597425,-0.295229952,1.8826067833333333,6.540564646666667,0.43731842483333333,-4.100249711666667
517,1747666180770,2.5848103,-0.3214234,1.8184706,6.622526883582089,0.303194308358209,-4.447372595522388
518,1747666180780,2.602990524590164,-0.3604125449180328,1.7321943147540984,6.575643763934426,0.2503145432786886,-4.845022685245902
519,1747666180790,2.6042839416666665,-0.4435333866666667,1.5400825500000002,6.452813813333334,0.14416419600000002,-5.278201506666666
520,1747666180800,2.45462853125,-0.588850996875,1.39365837265625,6.4541919828125005,-0.15826181875,-5.7100345609375
521,1747666180810,2.2896166120689654,-0.6878080594827586,1.3458284241379308,6.688552867241379,-0.9169719253448275,-6.35008121724138
522,1747666180820,2.194469392682927,-0.7270068804878048,1.3054959731707316,6.815701552845528,-1.2115146263414636,-6.48888876097561
523,1747666180830,2.010249838983051,-0.7874238145762712,1.1630610220338984,7.049498677966101,-1.8539345830508474,-6.7026826949152545
524,1747666180840,1.97007075,-0.7890370736666666,1.0527938083333335,7.05169076,-2.05447727,-6.750320587499999
525,1747666180850,1.9324134837398375,-0.7577263300813009,0.6427237754471544,6.620557566666666,-2.4118996666666668,-6.896057666666666
526,1747666180860,1.8949208958677686,-0.7541409239669421,0.4364025833057851,6.1404577603305786,-2.2564049371900827,-7.0508287355371895
527,1747666180870,1.8311594928,-0.75796565552,0.3609879856,5.710871565600001,-2.0954143728000005,-7.187142464000001
528,1747666180880,1.6387363262295083,-0.7814272862295082,0.3005865036885246,5.096854220491803,-1.9028152098360656,-7.337212770491804
529,1747666180890,1.4719344896551723,-0.7866680413793103,0.32995278344827583,4.712488286206897,-1.8664145241379309,-7.389321000000001
530,1747666180900,1.0546759285714287,-0.7518009428571428,0.4629068928571428,4.151062252380952,-1.9841775428571429,-7.392283971428571
531,1747666180910,0.908722722857143,-0.7315906700952381,0.5038201836190476,4.023879803809524,-2.1629749723809524,-7.297785849523809
532,1747666180920,0.825130662519685,-0.7241562872440945,0.5390186913385827,3.9725865251968506,-2.4784727826771653,-7.15033651968504
533,1747666180930,0.7781033252499999,-0.6973996585000001,0.5341925062499999,3.9270236874999997,-2.7430904249999997,-6.9949418125000005
534,1747666180940,0.77195305,-0.6716455,0.50446635,3.9104319808,-2.7837324896,-6.9525116871999995
535,1747666180950,0.8638619126984126,-0.6505539722222221,0.3145452480952381,3.6755083666666666,-2.510932634920635,-6.909865346825397
536,1747666180960,0.9094275790399999,-0.6875795785600001,0.15941623551999998,2.9451718192000005,-1.8375706656,-7.1868540512
537,1747666180970,0.8510641251968505,-0.7022834031496064,0.17375146377952755,2.6209629102362206,-1.6086342637795275,-7.30667935433071
538,1747666180980,0.7718279609243698,-0.7180902731092437,0.21132487226890756,2.377066521008403,-1.4888582302521007,-7.3610133529411765
539,1747666180990,0.678418627355372,-0.7323855429752066,0.30936779371900824,2.2013008636363636,-1.4858665909090907,-7.330690909917356
540,1747666181000,0.52548650336,-0.77861094608,0.5323982054399999,2.287661068,-1.8078678728,-7.0658684536
541,1747666181010,0.45342006719008265,-0.8137493796694215,0.6066658123966943,2.5979997198347107,-2.120207263636364,-6.796042438016529
542,1747666181020,0.35075324032,-0.86833416568,0.6080071608,2.908256016,-2.229633688,-6.5827084000000005
543,1747666181030,0.107814733952,-1.0266395224,0.5727672368,3.39005768,-2.151223,-6.1319874
544,1747666181040,-0.09397816923966944,-1.163689173553719,0.4754255376033058,3.63832840661157,-2.023140267768595,-5.764912041322314
545,1747666181050,-0.19529851752,-1.2804727424,0.316819486,3.7091640016,-1.7933048912000003,-5.370888848000001
546,1747666181060,-0.2881361168695652,-1.3913915530434782,0.1405133007652174,3.6144631304347823,-1.5378558913043479,-5.084311234782609
547,1747666181070,-0.39317806917910453,-1.485507228358209,-0.04267905519402985,3.2996022805970147,-1.1739006507462688,-4.732856179104478
548,1747666181080,-0.57915568104,-1.5998322783999999,-0.39315866752,2.4668399456,-0.6278228488,-4.2293963248
549,1747666181090,-0.6733539,-1.811881,-0.7907455,0.397813473852459,0.24179749713114754,-3.6036994163934426
550,1747666181100,-0.7197029655284553,-1.894717681300813,-0.7279136747967478,-0.313016286097561,0.5206210829268293,-3.490096663414634
551,1747666181110,-0.9861213736065575,-2.1037835729508196,-0.46775573786885244,-1.009429786885246,0.9068544590163934,-3.3127222721311473
552,1747666181120,-1.22746158,-2.24247938,-0.28637676933333334,-1.2696172533333334,1.1877408458333332,-3.015047568333333
553,1747666181130,-1.4075513766666667,-2.31568843,-0.20914078766666666,-1.0632109583333333,1.1903217916666666,-2.629163983333333
554,1747666181140,-1.549158296,-2.3510074415999997,-0.18735592056000003,-0.7735752936,1.0779230576,-2.1706975039999996
555,1747666181150,-1.6349396,-2.3644266,-0.19890666,-0.54611355,0.9486737,-1.7965547
556,1747666181160,-1.723206159090909,-2.3346094963636363,-0.28519863272727275,-0.07022174119090907,0.3708396309090909,-0.7578060990909091
557,1747666181170,-1.7269106811023622,-2.2905655811023626,-0.41213774818897636,0.12968139692125985,-0.07414556925984253,0.23163335448818897
558,1747666181180,-1.6494063430894308,-2.2575473577235776,-0.5119666512195122,0.015246799837398371,-0.17445417569105692,0.9090072024390244
559,1747666181190,-1.5405771872,-2.1924404304,-0.5805536344000001,-0.4178122516,0.03583580024,1.7333129856
560,1747666181200,-1.4088421814516128,-2.1044111548387097,-0.6030969717741935,-0.9335991806451613,0.36783939322580644,2.593339612903226
561,1747666181210,-1.2638832707317074,-1.9976443512195123,-0.5714213463414634,-1.3174575926829268,0.6957158999999999,3.2855609756097564
562,1747666181220,-1.1694568731707318,-1.9244569097560977,-0.5620221541463415,-1.5029520170731707,0.8762042331707317,3.6628671902439023
563,1747666181230,-0.99992693675,-1.7875302375,-0.574504659,-1.8267517916666667,1.1890288138333334,4.3083207366666665
564,1747666181240,-0.8922375660162601,-1.702654517886179,-0.5897613581300813,-2.1489047146341465,1.4035895292682927,4.821946829268293
565,1747666181250,-0.6366934440944882,-1.518324331496063,-0.6222460273228346,-2.4984388,1.6187929,5.357899
566,1747666181260,-0.47371510499999997,-1.4471984999999998,-0.633633655,-2.832688945,1.7006946325,5.714125077499999
567,1747666181270,-0.15852411702439026,-1.2850448048780487,-0.5481168663414634,-3.555632987804878,1.6180628382113822,6.176026390243902
568,1747666181280,0.157167009232,-1.2267820431999998,-0.36612494399999995,-3.9316168695999996,1.0010810792,6.252611215999999
569,1747666181290,0.3965570128688525,-1.1133251278688525,-0.045784743926229506,-3.8894292106557375,-0.10285067885245901,6.202891010655738
570,1747666181300,0.44107946721311475,-1.052054746885246,0.07241298155737705,-3.6455436672131145,-0.5105331190163934,6.170319872131147
571,1747666181310,0.5302254793388429,-0.9271855677685951,0.2793023483471075,-2.7508876966942144,-1.3565600636363635,6.157683049586777
572,1747666181320,0.5793840362903225,-0.860410039516129,0.3615216197580645,-1.916195558064516,-1.8145801629032259,6.226061443548387
573,1747666181330,0.5794343695652173,-0.8273327913043478,0.28838017217391304,-1.1266214391304348,-1.7743245260869565,6.483643965217391
574,1747666181340,0.5863275524590164,-0.8104460685245901,0.15118346393442625,-0.8267760897540983,-1.4723404549180326,6.791064032786886
575,1747666181350,0.6881814088524589,-0.759234088852459,-0.042609995409836066,-0.9857411963114754,-0.8398195213114754,7.371746744262295
576,1747666181360,0.7611855762711864,-0.7276897834745762,-0.12277527241525425,-1.1521332305084746,-0.6335914823728813,7.548803708474576
577,1747666181370,0.9345413330708662,-0.6615239082677165,-0.18940763881889766,-1.9396270354330707,-0.2785208746456693,7.756891960629921
578,1747666181380,1.0876631418032787,-0.6221379463114755,-0.18444126,-2.877695974590164,0.02111490901639344,7.817337496721311
579,1747666181390,1.1884367573770491,-0.6342607855737705,-0.11171419789344263,-3.836253968852459,0.28111818852459014,7.858931413114755
580,1747666181400,1.3372973078740158,-0.7204569996850394,0.14877691250393701,-4.2537146551181095,0.43304574692913383,8.006384496062992
581,1747666181410,1.3603811338842975,-0.7269093867768595,0.19347688256198348,-4.320377427272727,0.44680502892561985,8.103697847107439
582,1747666181420,1.4792801096774193,-0.7314415459677419,0.29027261879032257,-4.4216891193548395,0.4081565235483871,8.317314556451613
583,1747666181430,1.7258030886956524,-0.7059451643478261,0.39690496434782613,-4.47530517826087,0.23799841217391304,8.424336434782608
584,1747666181440,1.7944585032258065,-0.6417327806451613,0.6008217312903226,-4.246582399999999,-0.397367825,8.09335375
585,1747666181450,1.8035831,-0.6169767,0.681896,-4.120389428225806,-0.6801984322580644,7.952411332258064
586,1747666181460,1.7597262743362831,-0.6247973814159292,0.7576487588495574,-3.817297,-1.2357804,7.7573776
587,1747666181470,1.7441748822580645,-0.6707559387096774,0.8551293834677419,-3.391440068548387,-1.8149003693548387,7.727603040322581
588,1747666181480,1.8021187,-0.7089863,0.8815348,-2.946203,-2.3628268,7.7537127
589,1747666181490,2.5307760999999998,-0.511836848,0.6632011760000001,-2.54266556,-2.4141394800000002,8.2690386
590,1747666181500,2.5307760999999998,-0.511836848,0.6632011760000001,-2.54266556,-2.4141394800000002,8.2690386
591,1747666181510,2.7300244066666663,-0.4457786826666667,0.7658353466666666,-2.5969917999999996,-2.1376210999999996,8.06729
592,1747666181520,2.931684024,-0.23550548319999998,1.049670668,-2.292797144,-1.81407426,7.584625120000001
593,1747666181530,3.2066226130081303,-0.0745207930487805,1.0130776739837397,-1.9572122,-1.5082263,7.1685038
594,1747666181540,3.2867700177419352,0.006388789193548389,0.9469618080645161,-1.9366644709677419,-1.262609158064516,6.865544012903226
595,1747666181550,3.2407593566929136,0.20965861387401577,0.8272733396062991,-2.453614754330709,-0.7380358371653544,6.355302480314961
596,1747666181560,3.190257018487395,0.3223503835294118,0.7726749621848739,-2.695917666386555,-0.5514983902521008,6.203146630252101
597,1747666181570,3.0932326279069766,0.5709179720930232,0.8716305534883722,-3.9143392674418607,-0.04331460502325581,6.2155112790697675
598,1747666181580,3.199565492307692,0.6886293948717949,1.3019327282051283,-4.684709941025641,0.01732351217948718,6.268667628205128
599,1747666181590,3.314414576,0.991653432,2.326070528,-4.118404836000001,-0.7081882751999999,5.487060552
600,1747666181600,3.2755495015625,1.1200397203124999,2.541215553125,-3.582214171875,-0.84903587109375,5.0446540617187505
601,1747666181610,3.14817571981982,1.354420938738739,2.6979209945945946,-2.5261314342342343,-0.8181962302702702,4.283959436936937
602,1747666181620,3.0272313344,1.5843688752,2.6183046792,-1.3017440552000001,-0.45162002032000004,3.4074797152
603,1747666181630,2.6656015101694917,1.8386363627118643,2.005463874576271,-0.11062873038983051,0.671413373898305,2.3445318237288135
604,1747666181640,2.5326711599999996,1.8961381504347825,1.773693444347826,-0.04227718604565218,0.9041815113043478,2.055821820869565
605,1747666181650,2.502568657480315,1.9315402181102361,1.7248543748031497,-0.1741639305511811,0.8353173559055118,1.7555786007874015
606,1747666181660,2.5212988785123964,1.9608951454545456,1.7630775892561983,-0.22153709123966941,0.6708259719008265,1.5798893545454544
607,1747666181670,2.5672383,1.986382,1.8489777,-0.21502456,0.4098906,1.3732251
608,1747666181680,2.7725183639344264,2.039738442622951,2.0367017754098358,0.0480881137704918,-0.1099457337704918,1.034024555737705
609,1747666181690,3.0956103596774196,2.1036121887096773,2.022671722580645,0.9368702108064516,-0.5870809300000001,0.026080003225806465
610,1747666181700,3.143426609448819,2.113462828346457,1.9563860157480313,1.2719801566929134,-0.5911877047244094,-0.5606347917322835
611,1747666181710,3.190265691891892,2.1185312720720724,1.852429756756757,1.3677273,-0.43066,-0.93401295
612,1747666181720,3.2110331967213117,1.9716944786885247,1.5699102631147541,1.2333469737704919,0.5727412614754098,-2.0731564032786887
613,1747666181730,3.081222775862069,1.7587648120689656,1.4998958948275862,1.0394819844827585,1.3433401189655172,-2.9779943965517237
614,1747666181740,2.963629331034483,1.6001402172413794,1.512144996551724,0.9855362620689654,1.5837208448275863,-3.36826884137931
615,1747666181750,2.7789314764705884,1.3017821980392157,1.635217074509804,1.2362355372549019,1.6117979323529412,-3.822614994117647
616,1747666181760,2.6982883210526314,1.090781703508772,1.7301218245614036,1.5922898403508772,1.5111574026315788,-4.098632411403509
617,1747666181770,2.753132518699187,0.9501010004065041,1.7255462105691055,2.1523116959349595,1.3678812097560977,-4.300570959349593
618,1747666181780,2.8987492666666665,0.8257812722222222,1.5908465222222221,2.7125079435897437,1.3289921256410258,-4.57107337948718
619,1747666181790,3.0375655152542373,0.697370813559322,1.3258512745762712,3.1751843559322035,1.395185152542373,-5.025101667796609
620,1747666181800,3.13094949453125,0.57025689625,1.0789121921875,3.4682877203125,1.488735915625,-5.58495478515625
621,1747666181810,3.1732323,0.4978768,0.9723241,3.500258,1.5137241,-5.8447585
622,1747666181820,3.1649217612068967,0.37170759336206893,0.8695192217241379,3.467571344827586,1.5311706232758622,-6.352161202586207
623,1747666181830,3.0415391816666664,0.1586656785,0.792789474,3.49689807,1.48945745,-6.859207212499999
624,1747666181840,2.901988053719008,0.00745685714876033,0.7464601754545455,3.5417967000000004,1.4538593,-7.100697499999999
625,1747666181850,2.8327725,-0.056377225,0.70971847,3.56120605546875,1.4245473312499999,-7.13634723203125
626,1747666181860,2.8327725,-0.056377225,0.7097184699999999,3.5717292,1.4086553,-7.1556754
627,1747666181870,2.6652338543307086,-0.20932039708661418,0.6013878103937008,3.4461023952755907,1.3176603818897639,-7.230003813385826
628,1747666181880,2.5460409878048775,-0.3683359642276423,0.5719650707317073,3.2992434552845533,1.182366924390244,-7.4294076235772355
629,1747666181890,2.4886758081967213,-0.4386628878688525,0.6169847360655738,3.3604148270491803,1.0243258901639345,-7.596765163114754
630,1747666181900,2.31784979921875,-0.5483985303125001,0.59998042734375,3.49931299453125,0.87543671796875,-7.7344322109375
631,1747666181910,2.1090023424999997,-0.6279776075,0.5279141325,3.8440070700000004,0.54785448875,-7.915790347500001
632,1747666181920,1.96526719453125,-0.660988985859375,0.4223410715625,4.0222709453125,0.292112913671875,-7.95563210703125
633,1747666181930,1.81330624,-0.6917168312,0.3193928304,3.9931920096,0.1297673316,-7.905436912
634,1747666181940,1.7228893390243902,-0.7070517146341464,0.2959283317073171,3.94555383495935,-0.005472953455284548,-7.869245528455284
635,1747666181950,1.4645093726562501,-0.771249516796875,0.358443840625,3.88567570625,-0.407294390625,-7.773126484375
636,1747666181960,1.4184425636363636,-0.8062784582644629,0.3855297849586777,3.9413379082644626,-0.798845114876033,-7.7242041942148765
637,1747666181970,1.3694288524193547,-0.8251182370967742,0.3999252041129032,4.066007753225807,-1.0563141153225806,-7.751042488709678
638,1747666181980,1.2903779290322581,-0.815426770967742,0.36701486,4.159893838709678,-1.261219979032258,-7.805606566129032
639,1747666181990,1.1987399925,-0.7865029275000001,0.21272843624999999,3.925929071666667,-1.3725174924999999,-7.854255908333332
640,1747666182000,1.0582802826771656,-0.7616507433858267,0.09793806511811023,3.5677752551181103,-1.3755434976377954,-7.817401455905512
641,1747666182010,1.0130817,-0.75657743,0.08102701,3.458719,-1.3591752,-7.7909756
642,1747666182020,0.9518563994915255,-0.7469103008474576,0.0840922027118644,3.2016897415254237,-1.2939471915254237,-7.662849159322034
643,1747666182030,0.7114016872222222,-0.6648487698412698,0.2761410865079365,2.7617411928571425,-1.2840629388888891,-7.063294285714285
644,1747666182040,0.6560998868852459,-0.6226300554918033,0.3925660795081967,2.626870686885246,-1.2883498295081968,-6.596408377049181
645,1747666182050,0.6720503564285714,-0.6244630696031745,0.38785345095238094,2.6499333,-1.2797627,-6.496552
646,1747666182060,0.7583326465833334,-0.6504145798333333,0.24594666066666665,2.7423369533333335,-1.2554298716666668,-6.284968433333333
647,1747666182070,0.7814850774193548,-0.6713995325000001,0.18540084403225804,2.7153896274193547,-1.247564148387097,-6.217322271774193
648,1747666182080,0.7858023704761905,-0.717233902063492,0.16644704,2.621950080952381,-1.2720832071428572,-6.2056199309523805
649,1747666182090,0.6935619479999999,-0.8194954133333333,0.2093848613333333,2.5841433299999994,-1.35074525,-6.25000665
650,1747666182100,0.6268871028688524,-0.8586434024590164,0.2417367193442623,2.6172972491803277,-1.3903142967213113,-6.229393442622951
651,1747666182110,0.13367251367741936,-1.128930164516129,0.43956285161290326,2.990362658064516,-1.6517648483870968,-5.877420322580645
652,1747666182120,-0.06324309823140495,-1.2724883247933885,0.3786800252066116,3.205275575206612,-1.5529103743801653,-5.460150780991736
653,1747666182130,-0.3018326427118644,-1.4982012677966103,0.15937765254237288,3.278917577966102,-1.1621038618644068,-4.87535173559322
654,1747666182140,-0.37675671336134453,-1.602498331092437,0.01193008907563024,2.9800624470588235,-0.876406843697479,-4.570606715966386
655,1747666182150,-0.5343453240983607,-1.8529985934426227,-0.34798962950819673,2.047329786885246,-0.3236884842622951,-4.053841931147541
656,1747666182160,-0.5912667309836066,-1.9974805475409836,-0.4853898491803279,0.8359540878688524,0.09386294754098362,-3.883355490163934
657,1747666182170,-0.6558428655,-2.227827815,-0.5385611405,0.029346987083333324,0.43491058541666666,-3.8215221083333337
658,1747666182180,-0.9119551101694915,-2.5510061542372884,-0.4889335474576271,-0.9996550716101695,1.033847986440678,-3.761646116101695
659,1747666182190,-1.3313974,-2.837495011666667,-0.40012373816666663,-2.151956045,2.077410135,-3.3110933683333332
660,1747666182200,-1.6225042952,-2.915215024,-0.32253435032,-2.5558747752000004,2.5621251088,-2.6943066624
661,1747666182210,-1.8768982007874015,-2.959862809448819,-0.21223371818897638,-2.5788181181102363,2.605999118110236,-2.321557235433071
662,1747666182220,-2.0282108658536586,-2.989082156097561,-0.06598474502439024,-2.409456233333333,2.3842070333333334,-1.5302174333333334
663,1747666182230,-2.080832112903226,-2.987969406451613,0.06706850367741934,-1.799076941935484,1.6563117967741936,-0.4508776693548387
664,1747666182240,-1.9326557224137932,-2.8558358275862075,0.06130676021551724,-0.9202000181034483,0.9483208525862069,0.6404132397413792
665,1747666182250,-1.8148377442622952,-2.768469306557377,-0.03861305824590164,-0.20624212396721311,0.4529615781967213,1.5856159327868853
666,1747666182260,-1.4518965,-2.4400845,-0.40000984,0.141784270608,0.28329976592,2.4973050608
667,1747666182270,-1.3670729145161291,-2.359732425806452,-0.45311197677419357,-0.0016552451612903204,0.2203253093548387,3.132477496774194
668,1747666182280,-1.1029801136752135,-2.169191077777778,-0.5512627623931624,-0.41772740188034185,0.2509089805982906,4.090082415384615
669,1747666182290,-0.9607257801801802,-2.0792488837837837,-0.5454173992792792,-0.6715060196396396,0.3857091252252252,4.449647001801802
670,1747666182300,-0.7514522390625,-1.8897238,-0.48174994265625,-0.7703011,0.44165558,4.586987
671,1747666182310,-0.5906339308108108,-1.7184599216216219,-0.41055044405405405,-1.1389830387387387,0.780691294054054,5.4203835
672,1747666182320,-0.38839742806451616,-1.5809083806451614,-0.3651254148387097,-1.202414402419355,0.8596253665322581,5.672401048387097
673,1747666182330,-0.03699210571428571,-1.3664416285714285,-0.3241080285714285,-1.2471250349206349,0.846087142063492,6.037850182539683
674,1747666182340,0.17401282,-1.2427394,-0.28798756,-1.2528846,0.80939645,6.1037655
675,1747666182350,0.3635303341322314,-1.0544503330578512,-0.23569477198347105,-1.167010073553719,0.5587246119834711,6.0796390140495875
676,1747666182360,0.47396121890756304,-0.9122019023529412,-0.19516787369747898,-1.0864110042016806,0.3334092212605042,6.0683612159663864
677,1747666182370,0.526407457704918,-0.7901893232786885,-0.16983183786885245,-1.0361576770491803,0.1611182098360656,6.106078983606557
678,1747666182380,0.5530499766666667,-0.6692782066666666,-0.209759059,-1.12765725,0.156381505,6.32550975
679,1747666182390,0.5865146512605042,-0.6172515386554622,-0.2899112887394958,-1.4038555285714285,0.3726277971428571,6.720215714285715
680,1747666182400,0.6182277296062992,-0.6295408470866142,-0.32799372157480317,-1.6712454874015745,0.618989258031496,6.981876931496063
681,1747666182410,0.6783266258333334,-0.6732929187500001,-0.37762775416666666,-2.003047545,0.90955287575,7.247249325833334
682,1747666182420,0.75340474,-0.75047606,-0.3568117,-2.3780985,1.1655309,7.492873
683,1747666182430,0.9712467214414415,-0.7503067327927928,-0.05910142234234234,-2.666052716216216,1.0374363154954955,7.669770981981982
684,1747666182440,1.1921055282258064,-0.6367946016129031,0.4011376383064516,-2.3344215645161293,-0.36381949387096774,7.449718483870968
685,1747666182450,1.1811716614173227,-0.5633225653543307,0.5875957078740157,-1.7498307496062993,-1.1261805937007874,7.251990318110236
686,1747666182460,1.182302427826087,-0.5269641356521739,0.692717232173913,-0.9483284634782608,-1.6587116391304346,7.200162608695652
687,1747666182470,1.2144843134453782,-0.5242308621848739,0.6674657890756303,-0.00048253109243696457,-1.910955918487395,7.3332113445378155
688,1747666182480,1.3360087903225806,-0.5621189212903227,0.39889975935483873,0.44135015677419354,-1.456898833064516,7.686591274193549
689,1747666182490,1.5149129398373984,-0.5939738170731708,0.1798245531707317,0.55543544699187,-0.8099328111382114,8.05258993495935
690,1747666182500,1.9217415333333332,-0.5394478634920635,-0.2798988033333333,-0.12848531920634923,0.3379442503968254,8.4193038015873
691,1747666182510,2.0110316,-0.52252656,-0.38097337,-0.4147775,0.73975784,8.531955
692,1747666182520,2.0684611904,-0.37521166272,-0.40531076143999994,-0.846390476,0.8373985088,8.49178428
693,1747666182530,2.1296434,-0.21843125,-0.43027294,-1.3139712,0.9431759,8.448266
694,1747666182540,2.1296434,-0.21843125,-0.43027294,-1.3139712,0.9431759,8.448266
695,1747666182550,2.1667402,-0.46004789999999995,0.25089085,-4.042706,1.0903945,7.216761999999999
696,1747666182560,2.159194766666667,-0.45978350500000004,0.25348395875,-4.0378445375,1.1075750833333333,7.222463404166667
697,1747666182570,1.934345525,-0.4260106414285714,0.32120549928571435,-3.8969384750000002,1.6477326375,7.5093664250000005
698,1747666182580,1.9118421443548386,-0.3222913756451613,0.28147280258064517,-4.128345491129032,1.9065695467741937,8.265071049193548
699,1747666182590,2.231964687096774,-0.3040953320967742,0.13018092362903225,-4.97467979032258,1.7678538870967744,8.99206408064516
700,1747666182600,2.317535116535433,-0.31924802062992125,0.12327005188976378,-5.100181409448819,1.7186188740157482,9.022565771653543
701,1747666182610,2.8288010694214876,-0.40868698925619834,0.36293733884297524,-5.836726371900827,1.1123704702479338,8.876603719008266
702,1747666182620,3.4276233317073173,-0.2213242180487805,1.117085687804878,-5.86795663902439,0.2620761029268293,8.313443804878048
703,1747666182630,3.7421296705882354,0.02351564,1.6595892352941177,-4.917686027731093,-0.9026483428571429,7.484331067226891
704,1747666182640,3.852329114782609,0.46175634034782614,1.9464732382608696,-2.628106899130435,-2.5227566660869565,6.31854012173913
705,1747666182650,3.8632529099173554,0.6394804578512396,1.9255309066115704,-1.8640275181818182,-2.7498832661157024,6.108556300826447
706,1747666182660,3.8531837033333334,1.0408309666666666,1.4926135099999998,-0.94780327,-1.6625155327499999,5.8216373925
707,1747666182670,3.8343636170731705,1.725330018699187,1.0350646666666665,-2.3876686813008132,0.7937820914634146,5.027381296747968
708,1747666182680,3.8125615190082645,1.8019513553719009,1.0593879801652892,-3.298132097520661,1.3496941785123966,4.4088519545454545
709,1747666182690,3.714795,1.9890665,1.3498806,-3.5979962,1.5131133,4.171599
710,1747666182700,3.438345,2.1543600454545455,1.9913075090909091,-3.6243342066115702,1.4548336214876034,3.2604200900826443
711,1747666182710,2.7662221066666666,2.4449207533333337,2.4040737316666667,-1.8064507179166667,0.5950998443333333,2.1812317775000003
712,1747666182720,2.752938231451613,2.6809707991935485,1.9351830403225807,0.29067330887096776,-0.2568195738709677,1.4217198709677419
713,1747666182730,2.885321458677686,2.8120295561983473,1.5830481049586775,0.3648127530578512,-0.16784658604958677,1.0096491743801652
714,1747666182740,2.998293710743802,2.9158648834710745,1.3605728082644628,-0.8322154927272727,0.6436449396033058,0.14992449892561982
715,1747666182750,3.085879448,2.849407436,1.533519096,-1.88571656,1.4263947559999999,-0.5021801224
716,1747666182760,3.1085757092436976,2.753546124369748,1.7948728722689076,-2.0625069462184875,1.6294291521008404,-0.7540951862184875
717,1747666182770,3.16613322,2.5671523056,2.437362576,-1.707813128,1.6196335096,-1.3506523768000003
718,1747666182780,3.3501102394957982,2.237888030252101,2.81148203697479,-0.16478990588235293,1.2376848764705881,-2.2874747
719,1747666182790,3.410299934426229,2.091510540983607,2.8738740950819675,0.7478893184426231,1.1165665262295084,-2.855214155737705
720,1747666182800,3.3668770097560974,1.8244767000000002,2.612061402439024,1.8267701390243904,1.2544936756097562,-3.6407718121951222
721,1747666182810,3.127207983870968,1.5019047096774194,2.0933577677419355,2.7591994096774193,1.6007230741935483,-4.4878695129032256
722,1747666182820,3.0668235,1.427979,1.9688098,3.0260826411764707,1.8577131058823528,-4.8592176470588235
723,1747666182830,2.933540566129032,1.1600336322580644,1.492043916935484,3.131822456451613,2.253969709677419,-5.259614033870968
724,1747666182840,2.864735987096774,0.9121206838709677,1.073363706451613,2.9327639604838707,2.37624599516129,-5.5127091701612905
725,1747666182850,2.9706530144000003,0.786863976,0.9509427110399999,2.787935176,2.3170314088,-5.7407941728
726,1747666182860,3.093085566964286,0.6170050142857143,0.8907828057142858,2.669906446428571,2.083508667857143,-6.321211703571429
727,1747666182870,3.1366472548387097,0.48017082258064514,0.8382736193548388,2.6357455548387096,1.9282749806451613,-6.7667514838709675
728,1747666182880,3.10376548,0.3743105841666667,0.78026319575,2.6344479966666667,1.9333834575,-6.956996891666667
729,1747666182890,3.0748773,0.3109289,0.74339837,2.6328292,1.954158,-7.041444
730,1747666182900,2.833074769047619,0.12523623166666667,0.5873818652380952,2.5570431785714285,2.202823608730159,-7.083423705555556
731,1747666182910,2.7650272352941174,0.08244007638655462,0.5596929949579832,2.491796331092437,2.331359443697479,-7.113294978151261
732,1747666182920,2.702777732,0.02476692904,0.556118614,2.4737646848,2.3947188408,-7.216776816
733,1747666182930,2.7651064696721313,-0.05252232087704918,0.5367258770491803,2.547513336065574,2.393410031967213,-7.39420344590164
734,1747666182940,2.7157111823529414,-0.2587581229411765,0.4896649529411764,2.8262117025210083,2.220849260504202,-7.982288907563025
735,1747666182950,2.561759445669291,-0.39870308992125986,0.46255188874015746,3.019136577952756,2.0819922023622044,-8.355063496062991
736,1747666182960,2.2919036525862064,-0.46778833413793103,0.4470455486206896,3.176193855172414,1.958855196551724,-8.500463689655172
737,1747666182970,2.0435622258064514,-0.5284469232258064,0.3893342870967742,3.2855880225806446,1.9259398677419355,-8.416324129032258
738,1747666182980,1.8264998924369749,-0.5991441317647059,0.281037043697479,3.2758906882352936,2.030084894117647,-8.206327888235293
739,1747666182990,1.6455974084745764,-0.6544560526271187,0.19134501957627117,3.230239924576271,2.1782419788135594,-7.937733061864406
740,1747666183000,1.4645179285714287,-0.6638705714285714,0.1677719314285714,3.113005305882353,2.2357308352941176,-7.573435382352941
741,1747666183010,1.32728104,-0.6520721559999999,0.18673633766666667,3.085969,2.16576164,-7.368134400000001
742,1747666183020,1.1762629714285715,-0.6467342709523809,0.18066046928571428,3.1099439857142857,1.6583682023809525,-6.972532104761904
743,1747666183030,1.1472902205128204,-0.6582203034188034,0.13129444880341878,3.1216622871794875,1.0379070312820513,-6.721851466666667
744,1747666183040,1.1418228731707316,-0.6563354055284553,0.125766862601626,3.1139277569105692,0.9153194900813009,-6.717382170731708
745,1747666183050,1.0649024984251967,-0.6593562033070866,0.1101197897007874,3.098048968503937,0.6514901531496062,-6.727588996062992
746,1747666183060,0.9750648803539822,-0.676273989380531,0.09641557792920354,3.0830531805309733,0.5970856061946902,-6.64719788318584
747,1747666183070,0.7952293612403101,-0.7167526026356589,0.10687626682170542,3.0413463875968993,0.5037033765891473,-6.352439644186046
748,1747666183080,0.7418140393442624,-0.7222574055737705,0.14739056590163935,3.047125918032787,0.3981138970491804,-6.104276055737705
749,1747666183090,0.72695911025,-0.72038987,0.135941917,3.05959489,0.315420269,-5.9445281450000005
750,1747666183100,0.71728426,-0.7175283,0.11373068,3.0152019874015745,0.12944090291338584,-5.742893362204725
751,1747666183110,0.8063811524590163,-0.7103786016393442,0.0022085202295082,2.644235424590164,-0.3974079105737705,-5.530278341803279
752,1747666183120,0.9057289740000001,-0.7192814233333333,-0.10806041191666667,2.3846195249999997,-0.5492289575,-5.6044902475
753,1747666183130,0.9594936209523809,-0.7537998619047619,-0.14538838571428572,1.8611901714285715,-0.7194829142857143,-5.846562333333333
754,1747666183140,0.7150282107317074,-0.8963568051219513,0.1659291780487805,1.0963740170731706,-0.4967725130081301,-6.329631434959349
755,1747666183150,0.61180661472,-0.9632002296000001,0.2791038764,1.020179194,-0.30846740776000003,-6.38695264
756,1747666183160,0.31007233598039213,-1.1917507098039215,0.5219427619607844,1.2871649176470588,0.09953510588235293,-6.2053606039215685
757,1747666183170,0.15396525714285714,-1.2934337285714286,0.5723142728571429,1.5886956174603173,0.29526608452380954,-5.970150698412698
758,1747666183180,0.10836142,-1.3218141,0.58158845,1.9682078,0.4569272,-5.648671
759,1747666183190,0.082176113,-1.5348414508333335,0.1434914309166667,2.943454143333333,0.8937162151666667,-4.5809294666666664
760,1747666183200,0.10916193303999999,-1.6202160064000002,-0.13301509664,3.2128041456000003,1.1281362016,-4.179892103999999
761,1747666183210,0.13305120508196724,-1.7082366704918033,-0.5830487442622951,2.932163173770492,1.3929230459016393,-4.059314983606557
762,1747666183220,0.060926454,-2.1184754719999996,-1.1657638279999998,1.9079226704,1.6957619704,-4.253058983999999
763,1747666183230,-0.24137261000000002,-2.3091070666666664,-1.1829454333333334,0.9965248,1.8134553,-4.419813866666666
764,1747666183240,-0.6290868118181818,-2.507684097520661,-1.1384343033057853,0.4467696626446281,1.7567727702479337,-4.305307503305785
765,1747666183250,-0.72777873,-2.5621128,-1.1260802,0.42760566,1.7446312,-4.283387
766,1747666183260,-1.3496324114285714,-2.881778650420168,-1.1715547579831933,0.31715712277310926,1.397577513445378,-3.570399628571429
767,1747666183270,-1.5963784,-2.988237,-1.1883147,0.19547687,1.0555751,-2.7574458
768,1747666183280,-1.8779713109243699,-3.020901664705882,-1.1829290630252103,0.042011101394957985,0.8840401084033613,-1.7466741966386556
769,1747666183290,-2.009079368907563,-2.962270559663865,-1.1680826075630255,-0.3788596625882353,0.5841206482352941,0.32138697058823523
770,1747666183300,-1.924674357142857,-2.890645038095238,-1.1371518555555555,-0.6202318215873016,0.4261900034920635,1.2933956253968253
771,1747666183310,-1.8489302024390244,-2.8323854764227643,-1.1099386317073172,-0.7511556556097561,0.3363334575609756,1.775815068292683
772,1747666183320,-1.701549723015873,-2.721253677777778,-1.0618116904761905,-0.9610946733333333,0.20321450666666668,2.5369234
773,1747666183330,-1.526908729032258,-2.6066415548387103,-1.0167031077419355,-1.2265090338709679,0.10279285796774193,3.4954694903225807
774,1747666183340,-1.072599806521739,-2.3264703434782605,-0.920881067826087,-1.3479617947826086,0.08561674937391305,4.012040795652174
775,1747666183350,-0.88007045,-2.1889493,-0.9020356,-1.5386180312000002,0.066325304432,4.9245611056
776,1747666183360,-0.5452551666666666,-2.020105523076923,-0.9551023823076924,-1.6642683803418803,0.08117720517948716,5.297339904273504
777,1747666183370,-0.20857691967213113,-1.7730798950819673,-0.9912184856557378,-1.9828936721311474,0.08817989681967213,5.634180262295082
778,1747666183380,0.0835944856,-1.4798265000000002,-0.9370821944000001,-2.55989194,-0.15234979799999998,5.92050604
779,1747666183390,0.30123842285714286,-1.2440069949579833,-0.8370999477310924,-2.720578188235294,-0.29770697529411766,6.010878352941177
780,1747666183400,0.4558646171875,-1.055784040625,-0.6265292734375,-2.7828013484375,-0.61372389359375,6.1640695375000005
781,1747666183410,0.5732439746031746,-0.9375672287301587,-0.404949098968254,-2.6059220492063493,-1.0274074607936508,6.299033838095238
782,1747666183420,0.6992555225806452,-0.7662216741935484,-0.15913320096774194,-1.7905987250000002,-1.8009835,6.5388543
783,1747666183430,0.7686482901639345,-0.7066797444262296,-0.09305382483606557,-1.2767684737704919,-2.1771737786885246,6.71161646885246
784,1747666183440,0.780251,-0.70337296,-0.09200958,-1.093366013559322,-2.2701926279661016,6.794094983050847
785,1747666183450,0.9439738105691057,-0.7100498284552846,-0.1889955422764228,-0.8438731284552846,-2.288604150406504,6.9788175934959344
786,1747666183460,1.2172459220338985,-0.6852754949152542,-0.3508385047457627,-1.071602645762712,-1.9457507610169493,7.050430613559322
787,1747666183470,1.2390575299212598,-0.6389322403937008,-0.3593003125984252,-1.42608661496063,-1.728166679527559,6.9636569196850395
788,1747666183480,1.2360954867768597,-0.6117224261983472,-0.33615557537190077,-1.7055358,-1.5668694,6.8972793
789,1747666183490,1.2271198,-0.58964235,-0.2848148,-2.16651063902439,-1.3135589365853657,6.8611637528455285
790,1747666183500,1.2373702000000002,-0.5930049166666667,-0.24663340222222221,-2.499777,-1.1159926142857142,6.906675000000001
791,1747666183510,1.3152141186440678,-0.6291961642372882,-0.039644827431355924,-3.446822654237288,-0.6256605905084746,7.19015302881356
792,1747666183520,1.4472790072000001,-0.69670536072,0.24211066896,-3.9377105616,-0.7983422181600001,7.534265287999999
793,1747666183530,1.5220770540983606,-0.6756464781147541,0.36654800245901636,-3.8632219426229506,-1.2949892574590165,7.590275946721311
794,1747666183540,1.6592827068376068,-0.6003515844444445,0.5321386752136752,-3.6545249076923074,-2.049593923076923,7.605319084615385
795,1747666183550,1.7370407853658536,-0.5282866813008129,0.5680065422764227,-3.4376664804878048,-2.329869895121951,7.532251585365854
796,1747666183560,1.7740684915966387,-0.49867456302521007,0.5497481911764706,-3.3075375924369745,-2.3601163672268908,7.486410408403361
797,1747666183570,1.7678943769230768,-0.5601864923076922,0.47715068846153846,-3.0515746923076925,-1.8048509205128205,7.730823576923077
798,1747666183580,1.77280135625,-0.586195025,0.4555786025,-2.9904334828125,-1.6098875859375001,7.86112965625
799,1747666183590,1.9824771,-0.7063017,0.37755656,-2.9315424,-1.2082914,8.432995
800,1747666183600,1.9824771,-0.7063016999999999,0.37755656,-2.9329779300000003,-1.207476915,8.435692983333333
801,1747666183610,1.9824771,-0.7063016999999999,0.37755656,-2.9329779300000003,-1.207476915,8.435692983333333
802,1747666183620,2.5358311507462687,-0.46633145104477614,0.49428876477611944,-3.5460999820895522,-1.6064205328358208,8.622910029850745
803,1747666183630,2.7323203312,-0.43691911296,0.53300152688,-4.0805895296,-1.6771525399999998,8.141489784000001
804,1747666183640,2.748035785,-0.409369429,0.636123031,-4.4851709,-1.6102102475,7.8110881475000005
805,1747666183650,2.7815414023437497,-0.38429865,1.11285145859375,-4.6326299101562505,-1.7315500578125,7.8212133640625
806,1747666183660,3.0319434891666663,-0.24858044775000002,1.7424488366666668,-4.036633206666667,-2.2620645508333337,8.085036135833333
807,1747666183670,3.3897459912698413,-0.02967620301587302,1.9864904412698412,-3.098264911904762,-2.531570985714286,8.093571642857142
808,1747666183680,3.618253342016807,0.12448149789915967,2.066668556302521,-2.632721396638656,-2.589226733613445,8.012231462184873
809,1747666183690,4.0434429666666665,0.5401149633333333,1.9587708933333334,-1.919796725,-2.2569179875,6.948515937500001
810,1747666183700,4.243292407317073,1.1514660772357723,1.6223854227642276,-2.2245279211382116,-1.5754214544715448,5.30459012195122
811,1747666183710,3.5646800901639346,1.593873868852459,1.5632066016393444,-3.598196699180328,-0.6735490138524589,4.429308795081967
812,1747666183720,3.251822741935484,1.7142660161290322,1.6782714096774194,-4.239710314516128,-0.24276965887096774,4.235099112903225
813,1747666183730,2.756339412605042,1.7344922596638654,2.9826093092436974,-6.201041831932773,1.561694983697479,3.696371285714286
814,1747666183740,2.702092896694215,1.7381071272727273,3.2681807198347106,-5.974595272727273,1.6601651727272728,3.4105162
815,1747666183750,2.550320212,1.7728943423999999,3.8140329944,-4.947896216,1.57548014,2.8062025024
816,1747666183760,2.374189,1.8411678,4.006688,-3.726278,1.4611896,2.307238
817,1747666183770,1.967234059055118,2.098565612598425,3.4746219370078744,-1.7369015141732285,1.1787823393700787,1.5346329475590552
818,1747666183780,1.6992865504,2.371906504,2.8430912407999998,-0.39290364,0.6800396644,0.77123935616
819,1747666183790,1.6505332991869919,2.482187261788618,2.6112060414634146,-0.6785520982113821,0.4337491017886179,0.462335601707317
820,1747666183800,1.6859822912698412,2.4939571722222222,2.70788676984127,-0.9314531044444444,0.2680534836507936,0.22885145619047617
821,1747666183810,1.8204767355932203,2.4196994372881355,2.975566691525424,-1.0305296,0.19242255,0.12095132
822,1747666183820,2.213989864,2.109786916,3.431512976,-0.17225421343999997,0.48518824912,-0.62635679456
823,1747666183830,2.2284119377952756,2.0944357417322834,3.438662571653543,0.1044339025984252,0.5905094543307088,-0.8616278433070866
824,1747666183840,2.41744712295082,1.7757105221311476,3.319650672131148,0.991884875409836,1.4365047049180328,-1.4853238131147541
825,1747666183850,2.4400845,1.7118175,3.2815938,1.1410962,1.604743,-1.6016886
826,1747666183860,2.441628788793104,1.4818987413793103,3.0998763551724138,1.549933599137931,2.0769102439655174,-1.9677549068965516
827,1747666183870,2.411936538888889,0.9889006619047619,2.752500977777778,2.5899232857142858,2.937301961904762,-2.7419705333333333
828,1747666183880,2.421455479130435,0.8193575180869566,2.6311599495652174,3.1256381895652177,2.9892664521739127,-2.9941534130434784
829,1747666183890,2.496278425,0.67872321,2.3589353250000005,3.956973327419355,2.879722273387097,-3.366616310483871
830,1747666183900,2.588645229508197,0.6034595549180328,2.1045296639344264,4.346917,2.8276952500000005,-3.59860715
831,1747666183910,2.7014865206896554,0.5389541482758621,1.781096225862069,4.581678648275862,2.790516744827586,-3.9321397931034485
832,1747666183920,2.7217264,0.5269196,1.7184072,4.6126432,2.7818804,-4.035987
833,1747666183930,2.9373146394736844,0.4233729592982456,1.4106252008771931,4.0607963789473684,2.8469963850877194,-4.640186008771931
834,1747666183940,3.0682876833333332,0.325558815,1.3863807222222222,3.7012777370370373,2.926225453703704,-5.023608759259259
835,1747666183950,3.0992634300884956,0.28595951265486724,1.4224757654867257,3.6033804920353982,3.0082734115044247,-5.257576746017699
836,1747666183960,3.1031752315789474,0.19427599802631582,1.4861095315789474,3.6711287017543857,3.133985085964912,-5.478957636842106
837,1747666183970,2.92412135862069,-0.04322338267241378,1.443329348275862,4.281849410344828,3.3491950517241382,-5.823051965517241
838,1747666183980,2.6975925921052633,-0.3013164934210526,1.2175224070175439,5.163209894736841,3.353457139473684,-6.124808157894736
839,1747666183990,2.4951991545454546,-0.4315797420909091,0.9738904303636363,5.495682436363636,3.1975129327272724,-6.216031393636364
840,1747666184000,2.3765900548387098,-0.4762580461290323,0.8401080019354839,5.628472964516129,3.036354929032258,-6.259910587096774
841,1747666184010,2.3056087,-0.4988530299999999,0.7609705,5.6908207,2.928488,-6.28336
842,1747666184020,2.0286119633333333,-0.5325979996666667,0.49288988333333333,5.589508410833333,2.2607256733333334,-6.444633294166667
843,1747666184030,1.884044123275862,-0.533206178362069,0.370392645,5.406336325862069,1.6448599844827587,-6.609846212068966
844,1747666184040,1.72730773539823,-0.4898423504424779,0.2616336919469026,5.123948725663717,1.3291670743362831,-6.678357284070795
845,1747666184050,1.7230443,-0.48909074,0.25821257,5.119051,1.3249667,-6.6792006
846,1747666184060,1.61334049,-0.5358033213333333,0.09990889733333333,5.106283899999999,1.32484453,-6.679424586666666
847,1747666184070,1.5283639492063492,-0.6041152898412698,-0.032227179126984126,4.3847424126984125,1.4044567682539681,-6.662629828571428
848,1747666184080,1.24289204375,-0.6656203409375,-0.018411069546875,3.920514,1.2601959999999999,-6.671316684374999
849,1747666184090,1.098944340677966,-0.666487262881356,0.06820779519491525,3.5947968983050846,0.5555301593220339,-6.711788525423729
850,1747666184100,0.9855445420338983,-0.6583423627118645,0.13878171033898307,3.5682709203389833,0.28713771781355935,-6.6760323177966105
851,1747666184110,0.8913231971428571,-0.656252515,0.1910619592857143,3.563046142857143,-0.11122110500000001,-6.580109678571428
852,1747666184120,0.8383250983464567,-0.6621292450393701,0.20052473527559053,3.57487482992126,-0.34809218157480315,-6.471703582677165
853,1747666184130,0.7531249719512195,-0.6854020536585366,0.11645102375609756,3.481768004878049,-0.5339707175609756,-6.169157702439024
854,1747666184140,0.7273201520161291,-0.6923609040322581,0.08855144966935484,3.396026501612903,-0.5357682258064516,-6.013150358064515
855,1747666184150,0.6506774333333334,-0.702241611627907,0.0763464087984496,3.231770655813954,-0.4553882007751938,-5.776881271317829
856,1747666184160,0.615958114876033,-0.7144220996694216,0.13381195396694215,3.089180834710744,-0.3827752268595041,-5.4819146115702475
857,1747666184170,0.5939615395348837,-0.7524909111627907,0.18824192069767443,3.136589465116279,-0.18192419480620156,-5.164794594573643
858,1747666184180,0.59513360125,-0.78516265,0.18546519225000002,3.2352746916666666,-0.011402817499999999,-4.9445773850000005
859,1747666184190,0.5977202180327869,-0.8006717918032787,0.1678033486885246,3.2753041721311473,0.03435365991803279,-4.880472745901639
860,1747666184200,0.5862196241935484,-0.8708041508064517,0.0873646169032258,3.3605667338709675,0.07247620625806452,-4.78161685483871
861,1747666184210,0.40565097666666666,-1.1099638280701756,-0.0263474769122807,3.403762587719298,0.046591870324561406,-4.792875561403509
862,1747666184220,0.085480561824,-1.281306488,-0.09936058408,3.5730240687999997,-0.141622992344,-4.717335824
863,1747666184230,-0.1998323951551724,-1.3878105103448275,-0.19995020448275863,3.7267677767241376,-0.25250853120689654,-4.4186830775862065
864,1747666184240,-0.3639139557983193,-1.6858345865546218,-0.5991523400000001,3.733500581512605,-0.21565083722689077,-4.115943228571429
865,1747666184250,-0.4419647715625,-1.8890565,-0.8958808,3.10759080703125,0.139730655703125,-3.59225516328125
866,1747666184260,-0.48736999075630255,-1.99684362605042,-1.0622807344537815,2.492150552941176,0.4311630576470588,-3.362058594117647
867,1747666184270,-0.5884101035772358,-2.113353093495935,-1.2303977219512197,1.6352515040650406,0.7782323593495934,-3.3202163821138213
868,1747666184280,-0.9963726614634145,-2.2946361650406506,-1.2833819463414633,-0.2154963780487805,1.5000020219512193,-3.036318056910569
869,1747666184290,-1.2912720521008403,-2.4158694210084035,-1.2606787142857143,-0.8523264142857143,1.7168034714285714,-2.8170434663865547
870,1747666184300,-1.5584531475806451,-2.488512001612903,-1.1525191056451614,-1.637468591935484,1.9472019411290322,-2.2877986338709677
871,1747666184310,-1.6380610758064518,-2.498555706451613,-1.0991768637096775,-1.895761135483871,2.000406330645161,-2.0058301346774194
872,1747666184320,-1.8045976905511811,-2.4895547952755903,-0.7930899838582677,-2.279051697637795,1.863581540944882,-1.0891679161417323
873,1747666184330,-1.8506800841666666,-2.4704714,-0.6177983429166667,-2.2782982874999997,1.5216653125000001,-0.42737660625
874,1747666184340,-1.8384833009174313,-2.441369458715596,-0.5955444508256881,-2.1369747688073395,1.1727884102752293,0.273096004587156
875,1747666184350,-1.8109977642857145,-2.3821420039682537,-0.5847224479365078,-1.911596161904762,0.7660007833333333,1.2824194587301587
876,1747666184360,-1.7982138,-2.3512475,-0.58110034,-1.8411829286885246,0.6989800594262295,1.573233324590164
877,1747666184370,-1.6178850766129032,-2.142763564516129,-0.650999107983871,-1.6308525451612903,0.5299157241935484,2.947818841935484
878,1747666184380,-1.3085128870967742,-1.8696300387096776,-0.7794440632258065,-1.6377642072580645,0.5595870935483871,4.085471872580645
879,1747666184390,-1.2848685719008264,-1.8477230942148761,-0.7859551071900827,-1.6629064652892562,0.5760661728099173,4.229641272727273
880,1747666184400,-1.0746784436290322,-1.6837154580645164,-0.8196052675,-1.8057867112903225,0.6395266674193547,4.813913896774193
881,1747666184410,-0.5353100408870968,-1.3829405604838712,-0.8607131110483871,-2.279113596774194,0.6825335092741935,5.65708002016129
882,1747666184420,-0.11588618984,-1.164922308,-0.83569103296,-2.731911512,0.5892943472,6.0370002208
883,1747666184430,0.1038289281512605,-1.0243513403361346,-0.7565364655462186,-3.011421950420168,0.4025294046218487,6.127532973109243
884,1747666184440,0.3113357097560976,-0.9230781044715448,-0.6443408991869919,-3.1490848609756097,0.16871800650406504,6.09278981300813
885,1747666184450,0.6225708502362205,-0.7568177210236221,-0.44322909889763784,-3.315882318897638,-0.30093530377952754,5.9621408228346455
886,1747666184460,0.6997390532203391,-0.680961125762712,-0.34111345118644065,-3.317075894915254,-0.5487485327118644,5.867106900847458
887,1747666184470,0.742290143114754,-0.6126517180327868,-0.22647713491803279,-3.2595769,-0.80450952,5.793446
888,1747666184480,0.7689186451666666,-0.5488644025,-0.08628644426666666,-3.0933197283333334,-1.0650944673333334,5.786472033333334
889,1747666184490,0.7976009289430894,-0.4625936579674797,0.09996624336585365,-2.653881785365854,-1.3722864585365855,5.91374156097561
890,1747666184500,0.8260756485714286,-0.4310050828571429,0.11689180166666666,-2.3943493412698413,-1.4056106412698413,6.015393523809523
891,1747666184510,0.84150934,-0.41733786,0.119588055,-2.3011293,-1.409877,6.051231
892,1747666184520,0.9349153388524589,-0.39635097573770495,0.07663197319672131,-2.1686967827868853,-1.3493412327868852,6.033606147540983
893,1747666184530,1.040101699661017,-0.3798110006779661,0.0009183144067796586,-2.1278404169491525,-1.3610284322033899,6.072248991525423
894,1747666184540,1.194301185123967,-0.3731857166942149,-0.11905959884297522,-2.4208336975206612,-1.256590205785124,5.542092628099174
895,1747666184550,1.186718680952381,-0.39871786865079367,-0.10655229984126985,-2.5323757531746027,-1.3160850007936507,5.4336028531746035
896,1747666184560,1.1421878,-0.46785772,-0.05686534,-2.793659127350427,-1.626326952136752,5.2699347
897,1747666184570,0.905891285483871,-0.4984101380645161,0.12454595588709678,-3.0415375483870966,-2.0838977806451613,5.386747867741936
898,1747666184580,0.8581250804878048,-0.5283779921951219,0.37105630317073174,-3.230409300813008,-2.811539588617886,6.3362073154471545
899,1747666184590,0.9620656837398374,-0.5404518931707317,0.4425670642276423,-3.1824737642276424,-2.8414123642276423,6.556680022764228
900,1747666184600,1.262039572,-0.5661445088,0.5452629496,-2.9926288,-2.7269023500000005,7.00815155
901,1747666184610,1.79479704,-0.58168606,0.42114518,-2.778476885714286,-1.8858282428571427,7.1075917142857135
902,1747666184620,2.0151192588235296,-0.5397705546218488,0.2721135740336134,-2.8608050773109244,-1.3476303403361345,6.98397111764706
903,1747666184630,2.1216904826446283,-0.41744076628099175,0.14980677082644628,-3.305331288429752,-0.8841845033057851,6.684314818181818
904,1747666184640,2.1499002,-0.37975308,0.12764193,-3.4568865,-0.7690793,6.591846999999999
905,1747666184650,2.2792506,-0.13057062,0.4639528,-4.3994517,-0.7733554,5.8820214
906,1747666184660,2.2792506,-0.13057062,0.4639528,-4.3994517,-0.7733554,5.8820214
907,1747666184670,2.55733814516129,0.25382741822580646,1.7297400112903225,-2.727739820967742,-2.169507564516129,4.75908355483871
908,1747666184680,2.422227031460674,0.6967231084269663,1.7328256101123596,-1.3758606859550562,-2.4627959303370788,5.052905848314607
909,1747666184690,2.371788647107438,0.8305812661157025,1.5799518925619835,-0.9430951718181818,-2.494263826446281,5.225245569421488
910,1747666184700,2.500926848,0.9337981998399999,0.836878108,-1.7873330544000001,-1.770404808,5.731680168
911,1747666184710,2.5687025,0.99087244,0.6208816,-2.3579838,-1.4781766952,5.835923091200001
912,1747666184720,2.8483959992125985,1.1233475039370078,0.6787788976377953,-5.357937543307087,-0.1514849763779528,5.249318908661417
913,1747666184730,2.818089690322581,1.031441035483871,1.7825546838709678,-7.229826516129032,0.4925938535483871,4.1417255096774195
914,1747666184740,2.7761512,1.0091767,1.9900427,-6.952585068292683,0.05026976341463412,3.710768
915,1747666184750,2.272262092063492,1.1696966015873018,3.143116522222222,-5.605735885714286,-0.9997245857142857,3.257831614285714
916,1747666184760,1.8860681974358975,1.3560383435897434,3.5070088102564103,-3.1631073846153845,-1.8237616384615383,3.0682351000000003
917,1747666184770,1.8455093894308945,1.4042736203252033,3.397536773170732,-2.1235017856910567,-1.804019113821138,2.9395927520325205
918,1747666184780,1.8738776355371902,1.857612503305785,2.3570625024793386,-0.4507074838016529,-1.410023361983471,2.5622363330578515
919,1747666184790,1.8620279162601625,2.020522181300813,2.152035250406504,-0.4469994035772358,-0.8560456414634147,2.3059417593495937
920,1747666184800,1.8260365,2.2316594,1.9414753,-0.7067808744,-0.22987103343999998,2.1234458208
921,1747666184810,1.7975755188034188,2.493989793162393,2.1101335307692306,-1.152029194871795,0.7312056923076924,1.7679536512820513
922,1747666184820,1.7564722777777777,2.8943098476190476,2.5496195238095236,-0.31605003949206345,0.6800675615873015,1.1979649333333333
923,1747666184830,1.8107723627118644,3.0129073864406783,2.5152580983050847,0.49366197752542373,0.32379999355932204,0.7215457355932203
924,1747666184840,1.8979637862068965,3.0202820491379314,2.149639449137931,0.8208870775862069,0.1401935703448276,-0.04138085000000001
925,1747666184850,1.9387627295081968,2.9684942278688524,1.8507081967213113,0.6511573540983606,0.27886498262295084,-0.839438953442623
926,1747666184860,1.9329415142857145,2.922884867226891,1.814348300840336,0.413853531512605,0.47565868151260504,-1.1510292134453781
927,1747666184870,1.9129207,2.8142240666666667,1.8924198333333333,-0.032018273414634146,0.9243880999999999,-1.676527131707317
928,1747666184880,1.903111293548387,2.379802225806452,2.1975701903225806,-0.1655099881451613,1.756178410483871,-2.381261043548387
929,1747666184890,1.9022137403225807,2.180807083870968,2.292931681451613,0.00393614661290322,2.1465065338709675,-2.7031674217741934
930,1747666184900,1.900426558064516,2.0090675870967742,2.3482874112903227,0.15088372,2.2724187,-2.820365
931,1747666184910,1.8799587308333334,1.7933773425000001,2.3950395775,0.269198136,2.28623443,-2.872614308333333
932,1747666184920,1.8124793387096774,1.4670753580645164,2.310797067741935,2.051645013709677,2.208849188709677,-3.4695963217741936
933,1747666184930,1.8205276142857143,1.2043876714285713,2.1046451428571427,2.470949888235294,2.1226847764705883,-3.5806764823529416
934,1747666184940,1.85309618,1.1389114900000001,2.01263639,2.6910243466666666,2.0898514333333336,-3.664825
935,1747666184950,1.9498425598425198,1.0129586968503939,1.7854767086614172,2.8821344338582673,2.085214991338583,-3.7826363818897635
936,1747666184960,2.0597859504347826,0.9300279069565217,1.640465787826087,2.982961337391304,2.056044864347826,-4.087325721739131
937,1747666184970,2.1712592738095235,0.8515699634920635,1.5231438166666667,2.9851822095238094,2.044885842857143,-4.295982304761904
938,1747666184980,2.3617855528455283,0.7265584617886179,1.4393881617886177,2.935202649593496,2.1072218569105687,-4.5463273479674795
939,1747666184990,2.4281564661016946,0.6805929728813559,1.4087129627118644,2.9523376440677964,2.2473524991525426,-4.794463838983051
940,1747666185000,2.529389911111111,0.5304255203174603,1.290408149206349,3.039151650793651,2.443635458730159,-5.110091349206349
941,1747666185010,2.5355108,0.49641246,1.2610438,3.069598,2.4959953,-5.199685
942,1747666185020,2.484502787096774,0.37180941193548384,1.158579129032258,3.348758364516129,2.3785467104838713,-5.6342319443548385
943,1747666185030,2.4134801628099174,0.17095302004132232,1.0319325256198346,3.401979237190082,2.2517603685950416,-5.698580190082645
944,1747666185040,2.2938941461538462,0.057466092692307694,0.9747646769230769,3.591240217094017,1.821078029059829,-5.859884046153846
945,1747666185050,2.1221433560975607,-0.029536880829268294,0.9141670265853659,3.8142426,1.3988814,-6.0090814
946,1747666185060,1.9591269008130083,-0.09367234964227641,0.8193994005691057,4.108878099186992,1.2585512634146343,-6.088002148780488
947,1747666185070,1.8965688,-0.12178457,0.77195305,4.1850376,1.2394456,-6.101322
948,1747666185080,1.829274945945946,-0.19993565054054055,0.6178012467567566,4.305642332432432,1.3579039054054056,-6.144907978378377
949,1747666185090,1.9169476,-0.263093705,0.440767415,4.266568344354839,1.6204777064516127,-6.311735457258065
950,1747666185100,2.0174063799999997,-0.3213843528,0.320154296,4.08794932,1.9073167904,-6.5804262344
951,1747666185110,1.998769679032258,-0.3766472679032258,0.20839340225806452,3.8771420838709676,2.233599103225807,-6.856666983870968
952,1747666185120,1.553827056097561,-0.439580840406504,0.13120755642276422,3.383001556097561,2.862246224390244,-7.097136668292682
953,1747666185130,1.2825066570247934,-0.4733056838842975,0.1391529629752066,3.198328874380165,3.0054772165289254,-7.023905099173554
954,1747666185140,1.0999229294117647,-0.5039351458823529,0.19869131294117648,3.122240067226891,2.9861558344537813,-6.819006436974789
955,1747666185150,0.9233383045238095,-0.5352349690476191,0.293019785952381,3.1326333317460318,2.870009847619048,-6.5466911492063495
956,1747666185160,0.7259246978991597,-0.5732782008403362,0.41225165201680675,3.372869306722689,2.438173622689076,-6.070162535294117
957,1747666185170,0.6729425515322581,-0.6236981530645161,0.416861565,3.7055085,1.8997909,-5.6553903
958,1747666185180,0.6642366785714285,-0.6681938892857142,0.381025655,4.168675207142857,1.0617710642857143,-5.332853564285714
959,1747666185190,0.6742425794871795,-0.6874320937606837,0.344996821965812,4.330371423931624,0.7553009480341879,-5.218721037606838
960,1747666185200,0.7487981,-0.76414324375,0.1591558375,4.44801525,0.44287731,-5.096754300000001
961,1747666185210,0.7840745800000001,-0.9314851999999999,-0.07077659333333335,4.182960670000001,0.5598579840000001,-5.08618627
962,1747666185220,0.7114977298387096,-1.0431499193548388,-0.19333072943548388,3.9918269451612907,0.6991943806451613,-5.120213393548387
963,1747666185230,0.3391057329032258,-1.1230097016129033,-0.27088780725806455,3.606942641935484,0.8915726072580645,-5.0416629088709675
964,1747666185240,0.062808135675,-1.16079723,-0.288024174,3.3838168066666667,0.8827104583333333,-4.866305258333332
965,1747666185250,-0.10317323383870967,-1.209917693548387,-0.24345104709677418,3.2074366258064515,0.48833749548387095,-4.469385809677419
966,1747666185260,-0.16245112762711864,-1.3052843169491526,-0.1471334252542373,3.1549222855932206,-0.12814710881355934,-4.094023929661017
967,1747666185270,-0.007016649999999998,-1.49973175,-0.2757846975,3.2196538387096774,-0.42713273483870967,-3.9580323806451614
968,1747666185280,0.04199438979661017,-1.5866781898305085,-0.36474977305084744,3.211370240677966,-0.4166307939661017,-3.9629727593220343
969,1747666185290,-0.03455931226446281,-1.8312059041322315,-0.770894149338843,2.792254909090909,0.23413807563636363,-4.191449285123967
970,1747666185300,-0.16541892456692914,-1.9689058118110236,-1.015180127559055,2.2091340125984256,0.744288796062992,-4.255479716535433
