id,timestamp,acc_x,acc_y,acc_z,gyro_x,gyro_y,gyro_z
0,1747666245360,0.52252656,-0.29067218,0.8847075,7.515397904761905,0.33684854380952384,-2.5970982809523813
1,1747666245370,0.368231012631579,-0.2336655505263158,0.6316843947368421,7.641495596491228,-0.5960008754385965,-2.3172153578947365
2,1747666245380,0.32698869606557374,-0.22324836950819674,0.4878264459016393,7.5729965,-1.0284767524590164,-2.1338624721311477
3,1747666245390,0.3910782185321101,-0.21163793155963304,0.4277763633027523,7.360752320183487,-1.198046808256881,-2.0150371082568808
4,1747666245400,0.47635136016528923,-0.1909092503305785,0.4292684799173554,7.174011876033058,-1.2369213520661158,-2.046691256198347
5,1747666245410,0.48827523292682923,-0.2123258348780488,0.4119051539837399,7.090253534146341,-1.259455180487805,-2.223802687804878
6,1747666245420,0.45775881594827583,-0.2945644631896551,0.32478337913793104,6.941451118103449,-1.294855325,-2.5639595379310345
7,1747666245430,0.4318719696,-0.34453268504,0.22087766944,6.8014125504,-1.2540086583999999,-2.6855200664
8,1747666245440,0.39937245223140494,-0.3863244785123967,0.053942705338842975,6.512206991735537,-1.1467253380165288,-2.8254183545454548
9,1747666245450,0.26484785921875,-0.54635458375,-0.222828070828125,6.11170690625,-0.9720297765625,-2.9111262187499998
10,1747666245460,0.23160204694915254,-0.5630318132203389,-0.2879213611864407,5.692249427118644,-0.8539378516949152,-2.894227898305085
11,1747666245470,0.13354732721311474,-0.6324203360655738,-0.3809373537704918,4.809582201639344,-0.6201484147540983,-2.8060446524590166
12,1747666245480,0.021191312121951213,-0.7236058968292683,-0.4159271331707317,4.403816902439025,-0.49825249609756095,-2.69499846504065
13,1747666245490,-0.06265069576229508,-0.8890245268032787,-0.4166857540983607,4.058578819672132,-0.3351446986885246,-2.5196288852459015
14,1747666245500,-0.0261064989609375,-1.01923070859375,-0.421938726953125,3.9866402015625,-0.38977019171875,-2.3352613875
15,1747666245510,-0.025609464915254235,-1.0585010898305085,-0.4359441305084746,4.0067117779661015,-0.4488151100847458,-2.324072941525424
16,1747666245520,-0.03653379637903226,-1.1531626717741934,-0.49205483862903227,4.082964367741935,-0.6492906303225807,-2.308853806451613
17,1747666245530,-0.050722903304,-1.3626497808,-0.74417933536,4.092137492,-0.9511904743999999,-2.169182512
18,1747666245540,-0.07596281780172415,-1.4183766232758621,-0.8740825793103448,4.013990353448276,-1.0193813801724139,-2.0694429844827584
19,1747666245550,-0.13176785125984253,-1.4645952496062993,-0.9858298480314962,3.808182161417323,-1.2233226062992124,-1.9518780062992125
20,1747666245560,-0.1847744769827586,-1.4105645594827585,-1.1570859103448277,3.5192578758620687,-1.3725720999999997,-1.8743873379310345
21,1747666245570,-0.3444817474380165,-1.263044697520661,-1.3864408280991736,2.461771752892562,-1.025733618429752,-1.682817619834711
22,1747666245580,-0.48079277200000003,-1.2602628399999998,-1.41250576,1.5715559088,-0.60629596224,-1.3837661944000001
23,1747666245590,-0.569389611570248,-1.3245692438016528,-1.2744609272727272,1.0976743565289258,-0.42240068611570253,-1.0457457809917357
24,1747666245600,-0.627955321147541,-1.330143981967213,-1.150553886885246,0.5862103229508197,-0.26272212557377045,-0.5842174980327869
25,1747666245610,-0.6271295079999999,-1.40528168,-0.9749598899999999,0.09346238666666667,-0.09890926583333333,0.05920302416666665
26,1747666245620,-0.6050850299999999,-1.46491098,-0.8534865217500001,-0.16519323675,-0.04401284175,0.50982815275
27,1747666245630,-0.5720067622047245,-1.4567488637795276,-0.8612223485826771,-0.35485499614173227,-0.056993246346456694,0.8373904496062993
28,1747666245640,-0.5605213788800001,-1.4429366872,-0.93245881512,-0.5213319317599999,-0.028241521614399998,0.9283832376
29,1747666245650,-0.5891138074803149,-1.4068132511811025,-1.0293297196850395,-1.3006138472440947,0.14853163501732286,1.179931931496063
30,1747666245660,-0.6375312864406779,-1.3573058559322033,-1.060048206779661,-2.158937554237288,0.30792784067796614,1.4535227703389832
31,1747666245670,-0.6878783487804877,-1.2786695341463414,-0.9644130468292682,-2.8123192455284554,0.3062272461788618,1.7041450951219514
32,1747666245680,-0.7012225073770492,-1.2281540959016393,-0.8821469131967212,-3.141609739344262,0.28090288393442625,1.8458093647540985
33,1747666245690,-0.6036475992622952,-1.1612404163934427,-0.6751623998360655,-3.8566575655737707,0.16040720032786887,2.2355414254098362
34,1747666245700,-0.39317623,-1.0848345,-0.4249037,-4.796514,0.15332718,2.7525587
35,1747666245710,-0.2897710484615385,-1.0327939153846155,-0.37286317076923076,-5.107814772649572,0.24962459982905982,2.8755046213675217
36,1747666245720,-0.21865902466666665,-1.0050683466666668,-0.34682162066666666,-5.3669602833333325,0.3842851316666666,2.9683978166666667
37,1747666245730,-0.066102906825,-0.94933993075,-0.26380148200000003,-5.84513545,0.5790086176666667,3.0953865250000003
38,1747666245740,-0.009576726553719007,-0.9147184832231405,-0.21185380033057852,-6.147974920661158,0.6590074724793389,3.1635750925619837
39,1747666245750,0.03177780419047619,-0.8504038619047619,-0.09644910158730159,-6.500168323015873,0.6016101504761905,3.234129003968254
40,1747666245760,0.04769863857798165,-0.8315679311926606,-0.05488825153211009,-6.604999863302753,0.5298891720183487,3.2696701935779817
41,1747666245770,0.15160677362903224,-0.7687606591935484,0.0845815835,-7.174676237903226,0.18389507314516132,3.4350085580645158
42,1747666245780,0.1713045601612903,-0.7394423020967742,0.1499653058064516,-7.4168695096774195,0.10278300348387097,3.527372351612903
43,1747666245790,0.2027170893548387,-0.696626011935484,0.3306031090322581,-7.672624977419355,-0.026513521854838705,3.7488997064516125
44,1747666245800,0.24283697,-0.68604493,0.5127643,-7.714805055384615,-0.1955144649076923,4.013938846153846
45,1747666245810,0.42007301137931036,-0.6552432265517242,0.6871389896551724,-7.351278755172414,-0.6192909520689655,4.447583448275862
46,1747666245820,0.563894265,-0.61380398,0.79440635,-7.085278537931035,-0.947072824137931,4.6385315
47,1747666245830,0.7096640107438016,-0.5598592785123967,0.8245847198347108,-6.787323771900826,-1.379263058677686,4.730631314049587
48,1747666245840,0.8355456667326733,-0.5313537257425742,0.8164318712871288,-6.598487841584158,-1.6778956841584158,4.721165837623763
49,1747666245850,0.9343056542718445,-0.4984075495145631,0.8852501504854369,-6.4113865805825245,-1.9420058184466018,4.558798185436894
50,1747666245860,0.9660828951456311,-0.4587494301941747,0.9446887480582524,-6.345887572815535,-2.007878467961165,4.525028529126214
51,1747666245870,1.0530527555555556,-0.3886476111111112,0.9709953,-6.367377461538461,-1.950774730769231,4.635997215384616
52,1747666245880,1.1185627513513512,-0.3553099913513514,1.0420606936936938,-6.430858992792793,-1.8459632711711713,4.820354306306307
53,1747666245890,1.3035522347826085,-0.3195261165217392,1.3038110904347826,-6.473912759130435,-1.8508526573913044,4.994800966956522
54,1747666245900,1.4225502168067226,-0.30435988403361347,1.467959243697479,-6.476295966386554,-1.8991440991596638,5.1217304142857145
55,1747666245910,1.4908917759615385,-0.30755905019230767,1.519190758653846,-6.459900107692308,-1.8234327538461537,5.144284046153846
56,1747666245920,1.5669952815789474,-0.33236100078947367,1.4849727921052631,-6.504214642105263,-1.6589278105263157,5.055852892982457
57,1747666245930,1.5871330062992126,-0.45608725078740153,1.4456432220472442,-6.971155849606299,-1.1052572456692913,4.694056944094489
58,1747666245940,1.5462970170731707,-0.46397860894308945,1.5036227333333334,-7.027314543902439,-1.0943774975609757,4.684228893495935
59,1747666245950,1.4744671201550388,-0.4132002703875969,1.7458172162790697,-6.883286488372094,-1.2955835992248061,4.802040050387597
60,1747666245960,1.5521904336,-0.32079080544,2.0088821327999997,-6.28358924,-1.8033328415999998,5.081836932
61,1747666245970,1.9241273409836066,-0.2647221059016393,2.118948993442623,-5.492429426229509,-2.3198459081967218,5.142213614754098
62,1747666245980,2.447587566666667,-0.23525867,2.1458514897435896,-4.557602887179487,-2.928253002564103,4.659132051282052
63,1747666245990,2.488310415625,-0.196519460625,2.16748586875,-4.495910803125,-2.982931346875,4.23415535625
64,1747666246000,2.3745232787401576,-0.06530932896062992,2.2592360692913385,-4.648270653543308,-2.7977292,3.841644961417323
65,1747666246010,1.9420205516666667,0.5145255791083333,2.784567040833333,-5.074208311666666,-1.3496813625,3.977643920833333
66,1747666246020,1.9427098958677684,0.6227655486776859,2.888492117355372,-4.999598990082645,-1.1165758909090908,4.06281424876033
67,1747666246030,1.9427098958677684,0.6227655486776859,2.888492117355372,-4.999598990082645,-1.1165758909090908,4.06281424876033
68,1747666246040,2.97730322,1.5342414999999998,2.8344809399999997,-2.0940461,0.585086734,1.19216462
69,1747666246050,2.97730322,1.5342414999999998,2.8344809399999997,-2.0940461,0.585086734,1.19216462
70,1747666246060,2.7799612944444445,1.6524167,2.694554761111111,-2.156863458333333,0.694825285,-0.3545054305555555
71,1747666246070,2.17470022704918,1.9091698155737704,2.6092281278688527,-2.357509236065574,0.860233463442623,-0.8793204295081967
72,1747666246080,2.0089866782945736,1.965911399224806,2.6362346170542637,-2.4196372,0.91690874,-1.0146471
73,1747666246090,1.3171769407079648,2.198124296460177,3.0968554477876107,-2.075482238938053,1.3924105536283187,-0.8334201765486724
74,1747666246100,1.1906577,2.29867762,3.24093392,-0.6566801456,1.7851926,0.062186074000000015
75,1747666246110,1.2779186333333332,2.3558807555555554,3.1636792444444444,0.16970419261904762,1.7666804603174604,0.3597899208730159
76,1747666246120,1.3991802,2.378094,3.0653589,0.8881981,1.6975945,0.47769663
77,1747666246130,1.5131926650406504,2.2157343195121952,2.828470623577236,1.6372430422764228,1.516187388617886,0.15648579773333335
78,1747666246140,1.659650375,1.9041346,2.3788869000000004,2.9649819232758623,1.1591010181034485,-0.4886079433620689
79,1747666246150,1.5697877188976377,1.759948798425197,2.15947037007874,3.2716258362204726,0.997874879527559,-0.8706705299212598
80,1747666246160,1.5626807685483872,1.602694445967742,1.9692527508064517,3.2179296298387094,1.1211889733870968,-1.3287796870967743
81,1747666246170,1.5897061206611571,1.4087286752066115,1.8315709512396696,2.9463747297520664,1.4835998545454545,-1.8429653595041322
82,1747666246180,1.5968665,1.334261,1.8345783,2.8130345,1.6811012,-2.0103576
83,1747666246190,1.6090159097560974,1.0286893487804878,1.9834116829268293,2.586150154471545,2.30144718699187,-2.513790003252032
84,1747666246200,1.5772428890625,0.7675371421875,2.112708309375,2.6567961453125,2.6488357625,-2.848331059375
85,1747666246210,1.5402453,0.5749989,2.208474,2.7940977,2.9003882,-3.1135802
86,1747666246220,1.448971926446281,0.4192782692561984,2.2578986545454542,3.1149178685950414,3.011707023140496,-3.299394319008264
87,1747666246230,1.357805716,0.30967350024,2.26841256,3.4517453312,3.0455200416,-3.3966551648
88,1747666246240,1.286348265079365,0.18555517690476192,2.239151657142857,3.816070396031746,2.9458490746031747,-3.412661895238095
89,1747666246250,1.2706732928,0.12295213824,2.1863546487999996,4.2171497879999995,2.7422718351999995,-3.4341965232
90,1747666246260,1.2340858254237288,-0.034714040508474577,1.9884253661016948,4.688318266101694,2.3831821525423726,-3.535843391525424
91,1747666246270,1.159783851219512,-0.09235681268292682,1.8909179154471545,5.0666056,1.923510387804878,-3.671344863414634
92,1747666246280,1.0644614428571426,-0.11733342761904761,1.8435097833333334,5.161675384126984,1.7463958809523807,-3.670378904761905
93,1747666246290,0.8834091399999999,-0.1409772388,1.783140844,5.415149288,1.3998588080000003,-3.402494932
94,1747666246300,0.7850033787401575,-0.15758604181102362,1.7646376858267718,5.527214612598425,1.251427198425197,-3.225902367716535
95,1747666246310,0.7708332899159664,-0.16711972722689075,1.7456491823529412,5.79347714117647,0.9676362521008404,-2.789025845378151
96,1747666246320,0.87668291984,-0.15288136144,1.6807187912,6.1919501,0.7197654008,-2.4349186088
97,1747666246330,0.9764692812500001,-0.118501231328125,1.5921341234375002,6.40035023828125,0.533872347265625,-2.37662841171875
98,1747666246340,1.0204411195121952,-0.0962756213902439,1.5413087853658536,6.440580829268293,0.46383046959349594,-2.4131460959349593
99,1747666246350,1.1181417325581395,-0.028955785226356587,1.3805334775193798,6.361280813953488,0.32341763534883716,-2.649848227906977
100,1747666246360,1.186421422580645,0.018131091896774195,1.2496676161290323,6.205346653225806,0.28690960790322584,-2.844296919354839
101,1747666246370,1.326869318852459,0.06065622698360656,1.1123069065573772,5.485579885245902,0.6086220463934426,-3.3891305311475413
102,1747666246380,1.4030185636363637,0.05216168836363636,1.076048418181818,4.664329776033059,1.3748354983471074,-3.966433879338843
103,1747666246390,1.2196857619047619,-0.04599317045238095,1.2168365087301587,4.152662,2.3768766,-4.401284
104,1747666246400,1.030339981746032,-0.06683294455555555,1.4081831738095236,4.383927862698412,2.5271107404761906,-4.4178452579365075
105,1747666246410,0.8628871513559321,-0.0956476925,1.456062104237288,4.947785893220339,2.467471169491525,-4.275730639830509
106,1747666246420,0.779791608235294,-0.14399378117647058,1.3895758705882353,5.309158240336135,2.1779707596638653,-4.087833357142857
107,1747666246430,0.6969163682926829,-0.2071728587804878,1.3106053195121952,5.628095292682927,1.882632044715447,-3.9284447292682927
108,1747666246440,0.57524291,-0.29120910299999997,1.1512669,6.148643646666667,1.3297925683333334,-3.7065063
109,1747666246450,0.3997267136,-0.2985112884,0.8665399344,6.597491143999999,0.7389759280000001,-3.4214073239999996
110,1747666246460,0.2255638015,-0.28344807625,0.6124128719999999,6.8261593725,0.269437399,-3.0991179724999998
111,1747666246470,0.17466626580645161,-0.31259009096774193,0.46664535661290324,6.792821290322581,-0.001872009354838712,-2.866573851612903
112,1747666246480,0.2702547107317073,-0.3794990752845529,0.28255876983739836,6.635337300813008,-0.19969334398373983,-2.7125992845528453
113,1747666246490,0.351845756779661,-0.41053943135593224,0.21300405771186443,6.37566273559322,-0.4159474610169492,-2.8038507440677964
114,1747666246500,0.35998445737704915,-0.40257043360655737,0.24208477901639344,5.9959627319672135,-0.8010746446721312,-3.1502920901639344
115,1747666246510,0.35022215,-0.41095172166666666,0.25605672166666665,5.862982888095239,-0.9697679599206349,-3.2789306746031746
116,1747666246520,0.3417173708474577,-0.4665299044067796,0.2766368340677966,5.728311344067797,-1.1201819016949153,-3.382598922033899
117,1747666246530,0.2179121384126984,-0.6392711857142858,0.37303568888888894,5.718018685714286,-1.293056276190476,-3.5440946714285713
118,1747666246540,0.10909359,-0.686289,0.38658667,5.889352,-1.3206905999999998,-3.5253034
119,1747666246550,0.038932940444444446,-0.7945516309523809,0.2117293562698413,6.096774522222223,-1.292939873015873,-3.372965231746032
120,1747666246560,0.004862372076923078,-0.9031244743589742,-0.02147704076923076,6.03777653076923,-1.1783747025641025,-3.2488007384615383
121,1747666246570,-0.040255325520661155,-1.105309044628099,-0.39103014049586776,5.629274487603306,-0.8930446077685951,-3.0893576363636366
122,1747666246580,-0.04333759407142858,-1.1551055071428573,-0.4666548892857143,5.478685398412699,-0.8255310666666665,-3.072448565079365
123,1747666246590,-0.01572338825,-1.3093915824999998,-0.6931775075,5.1348927133333335,-0.6845356066666667,-3.0904894333333335
124,1747666246600,-0.11261886271428571,-1.5580304777777778,-1.0128259666666666,4.40995258968254,-0.3364413171507936,-3.071789285714286
125,1747666246610,-0.31385177047999996,-1.803477648,-1.3030509296,3.5649704216,0.059102440608,-2.9053826544
126,1747666246620,-0.516881,-2.0050936537190083,-1.424029691735537,2.64403683553719,0.4883993771074381,-2.321520123966942
127,1747666246630,-0.5478434666666667,-2.0544576666666665,-1.4321767933333334,2.4405288533333334,0.5902739866666666,-2.137992674166667
128,1747666246640,-0.5884794882352941,-2.198238023529412,-1.4246769941176471,2.0017129815126053,0.8379736571428571,-1.5203307025210084
129,1747666246650,-0.62686984768,-2.2627504544,-1.455030236,1.8715591999999999,0.83225257408,-1.1049966
130,1747666246660,-0.7107009476923077,-2.3118166923076924,-1.5503204692307693,1.7169072923076922,0.6291911815384617,-0.50199025
131,1747666246670,-0.7299752,-2.3080494000000003,-1.5812469,1.6627752,0.5338962,-0.36468655
132,1747666246680,-0.7928944141463414,-2.2834948780487805,-1.6658037585365855,1.2911357146341464,0.2853187501626016,0.07343792113821138
133,1747666246690,-0.8417535,-2.2121348,-1.6683753,0.6017023,-0.030543262000000005,0.6994407
134,1747666246700,-0.8820732333333333,-2.084047526984127,-1.5326098206349206,-0.13659141111111112,-0.3064022555714286,1.4470476706349207
135,1747666246710,-0.865162605,-2.002217255,-1.3931723625,-0.498954725,-0.4405967366666667,1.9201632450000001
136,1747666246720,-0.7913936528688524,-1.8245140065573773,-1.1479733475409837,-0.9315694999999999,-0.574213335,2.7171285000000003
137,1747666246730,-0.74364245,-1.7154784,-1.0130817,-1.2074576095238094,-0.6426787301587301,3.3248909650793648
138,1747666246740,-0.619555093951613,-1.572830833064516,-0.8754806216129033,-1.3881026677419352,-0.6628380483870968,3.7954239919354835
139,1747666246750,-0.41640266280000005,-1.3769748224,-0.73795098816,-1.6381060304,-0.61519506648,4.2945196800000005
140,1747666246760,-0.2087704756,-1.1585650272,-0.6196867398400001,-2.030271656,-0.39931037960000004,4.67942328
141,1747666246770,-0.08044563487804877,-1.0110894739837397,-0.5393923125203253,-2.329830167479675,-0.2179547274796748,4.875345325203252
142,1747666246780,-0.05588911,-0.9808661,-0.52252656,-2.4013114,-0.17348573,4.909524
143,1747666246790,-0.055889110000000006,-0.9808661,-0.52252656,-2.4013114,-0.17348573,4.909524
144,1747666246800,-0.05588911,-0.9808661,-0.52252656,-2.4013114,-0.17348573,4.909524
145,1747666246810,0.16229595139130434,-0.6965797088695651,-0.28437550695652175,-3.5180048939130435,0.4972124367826087,5.1816350460869565
146,1747666246820,0.26907604016,-0.5511359471999999,-0.09454582632,-4.1976217256,0.8399885864000001,5.3360202272
147,1747666246830,0.2896471232,-0.521433228,-0.005964759600000001,-4.3267146383999995,0.8333863584,5.363753711999999
148,1747666246840,0.3241610586956522,-0.48548293565217393,0.13223658347826087,-4.435508566956521,0.7153816205217391,5.391427453913043
149,1747666246850,0.45338475960317465,-0.38607532603174605,0.42348193690476194,-4.3978710436507935,0.38124293761904765,5.397232333333333
150,1747666246860,0.49245307867768595,-0.3545244185950413,0.4691607100826446,-4.249804702479339,0.038938875371900813,5.386206016528925
151,1747666246870,0.5702923528455284,-0.29275163292682926,0.5216594656910569,-3.9104167154471545,-0.5696740698373984,5.355500268292683
152,1747666246880,0.6496429904032258,-0.2148117043548387,0.49485954612903227,-3.5770888951612902,-0.8485509473387096,5.31731083467742
153,1747666246890,0.65285313,-0.21135357,0.4927516,-3.55829,-0.86132,5.3151383
154,1747666246900,0.66074497144,-0.20456291976,0.46375366784,-3.569637528,-0.8388352656,5.315978932799999
155,1747666246910,0.6521575816666666,-0.20722086833333334,0.43766379366666663,-3.68858765,-0.7061703841666667,5.349835740833333
156,1747666246920,0.713205910909091,-0.23286893710743803,0.423663220661157,-4.152202426446281,-0.3976480294214876,5.478809952892562
157,1747666246930,0.9317757342857144,-0.24729972428571428,0.4825011714285714,-4.729658044444444,-0.10846252,5.522832744444444
158,1747666246940,1.0324093663865546,-0.23998415840336135,0.5315382098319328,-4.957992669747899,-0.040517306008403364,5.428569399159664
159,1747666246950,1.083746801574803,-0.17084391818897637,0.6219212955118111,-5.310588295275591,-0.18445725531496063,5.2346535503937
160,1747666246960,1.0430561321739131,-0.15950945043478262,0.6995635773913044,-5.669142965217392,-0.4870879932173913,5.19229075652174
161,1747666246970,1.025836852631579,-0.16026854157894735,0.737052887368421,-5.717377263157895,-0.5297487515789474,5.194251368421053
162,1747666246980,1.0453877153225808,-0.21522699741935483,0.8345065193548388,-5.815604459677419,-0.6331766072580646,5.301394064516129
163,1747666246990,1.048043886885246,-0.29505519844262296,0.9967418327868853,-5.806885114754099,-0.7015537016393442,5.584019114754098
164,1747666247000,1.2424506240000002,-0.27929520112,1.1693700976,-5.515331332,-0.64568946712,5.852088912
165,1747666247010,1.461903,-0.24991462,1.2734908,-5.222287,-0.5137377,6.015801
166,1747666247020,1.461903,-0.24991462,1.2734908,-5.222287,-0.5137377,6.015801
167,1747666247030,1.9468447,0.11397473500000001,1.2883781,-4.183205,-0.172264,5.4867916
168,1747666247040,1.9468447,0.11397473500000001,1.2883781,-4.183205,-0.172264,5.4867916
169,1747666247050,1.9361062,0.22502077999999998,1.134134,-4.1035108461538465,-0.23278664615384617,5.114257692307692
170,1747666247060,1.8476075073394496,0.29000942220183484,0.9700670963302752,-4.367899357798166,-0.22151991596330275,4.8077841449541285
171,1747666247070,1.8074881,0.31947094,0.8956901,-4.522846,-0.19730948,4.7714686
172,1747666247080,2.1049625128000002,0.47236598744,1.4116154271999999,-5.2266754959999995,0.12093666008000001,4.825952604799999
173,1747666247090,2.1736565467741937,0.5189247584677419,1.5542175911290321,-5.155677983870968,0.060554482500000006,4.751753272580646
174,1747666247100,2.2205343696,0.6046079019999999,1.6883763912,-4.818925243200001,-0.09883799791999999,4.48490428
175,1747666247110,2.18807897,0.6788249045000001,1.7109756133333331,-4.616766891666667,-0.15253814541666666,4.276158550000001
176,1747666247120,2.090809276,0.7578758456000001,1.71127084,-4.4714115655999995,-0.16998181208000002,4.0393246095999995
177,1747666247130,1.7767716714285715,0.8714354380952382,1.6843087952380953,-4.594666585714285,-0.12266756257142858,3.7363426952380956
178,1747666247140,1.756039524390244,0.8790286731707316,1.8830445731707317,-4.802905914634146,0.04131534853658537,3.6332178292682924
179,1747666247150,1.899884992063492,0.9105194650793651,2.136051126984127,-4.603383833333333,0.1686085,3.4805453333333336
180,1747666247160,2.169365374789916,1.0033152151260505,2.55811596302521,-3.7972411302521007,0.3109714665546218,2.9885735159663867
181,1747666247170,2.2464488820512822,1.065943947008547,2.711211217094017,-3.347646017094017,0.3045189294017094,2.726839753846154
182,1747666247180,2.261536741935484,1.1860079483870967,2.82106564516129,-2.451638774193549,0.26838660387096774,2.2588811161290323
183,1747666247190,2.1773172201612905,1.372806266935484,2.7608129322580646,-1.4521646193548388,0.255617534516129,1.8020327838709678
184,1747666247200,2.074557314516129,1.6259507548387098,2.45977815483871,-0.4160139946209678,0.3458876630645161,1.2167302519354837
185,1747666247210,2.0202758719298246,1.7960472719298246,2.2059520771929826,0.06453737671929824,0.4951866663157895,0.7611166449122807
186,1747666247220,1.9726239247933883,1.885800120661157,2.047602070247934,0.19687530826446278,0.7446851276859504,0.3932710033057852
187,1747666247230,1.9209745,1.9403423499999999,1.9578796428571428,0.2260637788095238,0.9869206880952381,0.12617761596825397
188,1747666247240,1.83268978852459,1.9823250114754098,1.8793848590163935,0.2107034485245902,1.3219524631147541,-0.17638984114754097
189,1747666247250,1.7804575777777778,1.9594581285714285,1.901386119047619,0.31351932476190475,1.585311680952381,-0.45262205333333333
190,1747666247260,1.7583206375,1.8653092166666667,2.0040253833333335,0.6872030379999999,1.73442966,-0.8110661493333333
191,1747666247270,1.7644078733333333,1.8265488483333334,2.0340993233333333,0.8399397,1.7177529999999999,-0.9053023
192,1747666247280,1.8099930545454546,1.5533760231404958,2.0984587074380165,1.7049249495867769,1.348406856198347,-1.4438329429752066
193,1747666247290,1.825416272972973,1.374088445945946,2.0911683027027026,2.266139445045045,1.0832181621621622,-1.8268282918918919
194,1747666247300,1.8084036672,1.2046489488,2.0611552728,2.7752292904,0.919752924,-2.1697396159999998
195,1747666247310,1.78438392,1.081710502,2.018508,3.058907736666667,0.898012652,-2.35869331
196,1747666247320,1.7344497866666666,0.882201872,1.9001646333333333,3.41355568,1.0655118853333334,-2.65380224
197,1747666247330,1.6884192768,0.71938510992,1.792918832,3.639745304,1.296344008,-2.8874426912
198,1747666247340,1.6511928567307694,0.6376277159615386,1.7594321721153845,3.7120401009615382,1.4575361846153845,-2.9788785701923075
199,1747666247350,1.5740393709677418,0.49780593064516127,1.7820351782258064,3.8405295483870967,1.610358987096774,-3.0526315322580646
200,1747666247360,1.5406708017094017,0.40242955376068373,1.8191339837606837,4.114569103418803,1.6377610632478632,-3.056028237606838
201,1747666247370,1.551250420168067,0.32257600983193274,1.8022068983193276,4.617248056302522,1.556448692436975,-3.037488981512605
202,1747666247380,1.5530343147540984,0.28407264360655743,1.7825000901639345,4.7840261770491805,1.4873166327868852,-3.0405767852459014
203,1747666247390,1.5494562462962962,0.2195769387962963,1.7363521425925925,5.031697,1.3213016,-3.0476067
204,1747666247400,1.5351993849999999,0.13353999229166666,1.6120814958333332,5.493643491666666,0.8311279766666666,-3.052666760833333
205,1747666247410,1.5196179648148147,0.11393179453703703,1.5648363,5.608399012962963,0.6738691898148148,-3.0535399935185183
206,1747666247420,1.550556224,0.09926686556,1.4673268056,5.65079676,0.5129557467999999,-3.132883496
207,1747666247430,1.5997952251968504,0.09202303228346456,1.4015535212598424,5.621360070078739,0.43572007251968503,-3.3542081811023623
208,1747666247440,1.6134624,0.09030118,1.3828284,5.598658343589744,0.40348432692307695,-3.658393723076923
209,1747666247450,1.4618810951219512,0.12359614455284552,1.1575892642276422,5.5092845528455285,0.4684889352845529,-4.068610869105691
210,1747666247460,1.4248964857142858,0.12315251294117646,1.0593068487394957,5.423959828571429,0.5535311771428572,-4.133550642857143
211,1747666247470,1.3718457,0.14497001,0.8712844,5.014113054545454,0.9179587880991736,-4.357180938016529
212,1747666247480,1.3267052702479338,0.1512630579338843,0.8894373950413224,4.778829154545455,1.1131125991735538,-4.496715446280992
213,1747666247490,1.2405725403225807,0.1516481245967742,0.9279666627419354,4.694888849193548,1.1679645588709677,-4.573464176612903
214,1747666247500,1.1299490573770492,0.13473960524590164,0.9798698581967213,4.734356026229508,1.086729293442623,-4.600556414754099
215,1747666247510,0.9737523234782609,0.10804095652173915,0.9752400869565219,4.935031772173912,0.8376131206956522,-4.54136896173913
216,1747666247520,0.9547088453781514,0.10128990638655462,0.9548812142857143,5.024212865546218,0.7421088810084033,-4.508252447058823
217,1747666247530,0.9797598204918032,0.08294945868852459,0.864438781147541,5.2664597459016385,0.47995981901639345,-4.431597029508198
218,1747666247540,0.990823632,0.076829224,0.820910972,5.2847786349999994,0.442342792,-4.45336025
219,1747666247550,0.9925808,0.0707766,0.7551131,5.2827625,0.4196644,-4.528955
220,1747666247560,0.912892892920354,0.028550377911504422,0.6427992649557522,5.191024826548673,0.5970099561946902,-4.702570463716815
221,1747666247570,0.8324793,-0.010982576,0.5476644599999999,5.119662,0.73975784,-4.8209486
222,1747666247580,0.7490039984251968,-0.06533624053543308,0.4967352911811024,5.069132887401574,0.800175772440945,-4.825460337795275
223,1747666247590,0.652443613559322,-0.12720346152542372,0.47668931220338984,5.054542287288135,0.6131896420338984,-4.801266241525424
224,1747666247600,0.5258084207317073,-0.22491164138211384,0.44335877382113825,5.093513736585366,0.09189797029268293,-4.7631098829268295
225,1747666247610,0.49960603914529916,-0.2707178921367521,0.4175485835897436,5.09944038974359,-0.10118434164102565,-4.738387553846153
226,1747666247620,0.48713827,-0.2945771,0.40391475,5.1019464,-0.21746802,-4.722599
227,1747666247630,0.45504571800000004,-0.38267199,0.33960274712,5.0368284359999995,-0.48294516295999995,-4.615805528
228,1747666247640,0.37484995336065574,-0.4770138968852459,0.2052901480327869,4.761534394262295,-0.49772499475409837,-4.4256888000000005
229,1747666247650,0.3626229705511811,-0.49553998842519686,0.17642647976377954,4.7354274,-0.49541172,-4.4086146
230,1747666247660,0.34107000655172415,-0.5481462579310344,0.09330561215517243,4.3065363982758615,-0.34243210241379307,-4.154052315517242
231,1747666247670,0.3147018114754099,-0.6568981081967212,0.060570207377049184,3.9128020295081964,-0.14540595918032787,-3.8984119098360654
232,1747666247680,0.34048387,-0.7636631262295082,0.0605822093442623,3.724745906557377,0.016893927540983608,-3.807442952459016
233,1747666247690,0.382899214,-0.8648057590909091,0.04569639032727273,3.6939023,0.06536258,-3.8026361
234,1747666247700,0.4437546624,-1.105598892,-0.08842682671999999,3.6930323072,0.26064885776,-3.9500794096
235,1747666247710,0.15925345212500003,-1.5479331049999998,-0.56073373475,3.696386341666667,1.0735090950833335,-4.846391124166668
236,1747666247720,-0.32450011463114753,-1.8495437983606557,-1.0344406577868852,3.4749920147540987,1.1707081639344261,-4.799037596721312
237,1747666247730,-0.6597733616129032,-1.9525208838709678,-1.3017699032258063,3.010398091935484,1.1463477233870967,-4.317053700806452
238,1747666247740,-0.95678645656,-2.0416384175999998,-1.5233662799999999,2.3543871232,1.1293432736,-3.5207730904
239,1747666247750,-0.8748352221311475,-2.1613249860655737,-1.5366164180327868,1.535755286885246,1.0893229606557377,-2.317242203278689
240,1747666247760,-0.6410743639344262,-2.3157111803278685,-1.521985024590164,0.9360558167213116,1.0794689885245903,-1.3399378983606558
241,1747666247770,-0.5832948300813008,-2.348919991869919,-1.549557179674797,0.83016586,1.1203269,-1.1410962
242,1747666247780,-0.5859893390322581,-2.367166376612903,-1.6943970193548388,0.476937974516129,1.3766192806451611,-0.7385262116935485
243,1747666247790,-0.6794249058333334,-2.3321399833333336,-1.8083320041666666,-0.08058331291666668,1.6087899458333335,-0.19700404208333333
244,1747666247800,-0.7059762733333333,-2.2679427333333337,-1.7928445333333334,-0.4268855543902439,1.4926764943089432,0.2061943388617886
245,1747666247810,-0.702884866101695,-2.104791074576271,-1.6468486677966103,-0.9270035830508474,0.9550308552542374,0.9350068949152541
246,1747666247820,-0.6897058,-2.0525215,-1.5751455,-1.0030408,0.72021013,1.1172725
247,1747666247830,-0.6726505075630251,-1.9182818210084034,-1.4213463983193277,-1.0383836260504202,0.08539794260504201,1.583152274789916
248,1747666247840,-0.5789156407258065,-1.6747326741935484,-1.2097347137096774,-1.0645903500000002,-0.7702813677419355,2.462486520967742
249,1747666247850,-0.5348108138888888,-1.5827015706349206,-1.1398248190476192,-1.0861184253968255,-1.0539849595238093,2.835544372222222
250,1747666247860,-0.4163782016949152,-1.3769047728813557,-1.0001920644067797,-1.2403774389830509,-1.2337718542372882,3.5337000966101697
251,1747666247870,-0.356807407631579,-1.2836618684210526,-0.9465160440350877,-1.3763812421052632,-1.2142715842105263,3.8238770263157895
252,1747666247880,-0.14762487097560975,-1.0105934707317075,-0.7853285970731707,-1.7750203991869917,-1.067246168292683,4.384716178048781
253,1747666247890,-0.10494461,-0.96353805,-0.75291663,-1.8686367,-1.0250319,4.4733663
254,1747666247900,-0.10494460999999998,-0.96353805,-0.75291663,-1.8686367,-1.0250319,4.4733663
255,1747666247910,-0.10494461,-0.96353805,-0.75291663,-1.8686367,-1.0250319,4.4733663
256,1747666247920,0.03790461793103449,-0.7936447439655173,-0.6509322487931034,-2.193622346551724,-0.8664544208620689,4.571763057758621
257,1747666247930,0.3727061779527559,-0.31625399007874017,-0.3120896562992126,-3.444221740944882,-0.32918420787401576,4.739217648818897
258,1747666247940,0.4439196230252101,-0.2063780863865546,-0.0875652806722689,-3.791922905042017,-0.21373097378151262,4.793577798319328
259,1747666247950,0.46836184459016394,-0.1803542986885246,0.04753514931147541,-4.133089313114754,-0.09789365655737704,4.904031143442623
260,1747666247960,0.46579414625,-0.17938207,0.1476807915892857,-4.235128714285715,-0.08168141142857142,5.013894542857143
261,1747666247970,0.46323691683333335,-0.17682354158333335,0.20612465375,-4.253877065,-0.09419542241666666,5.096504600833333
262,1747666247980,0.471091475,-0.166935165,0.2909772425,-4.262233145161291,-0.11470473016129032,5.207202435483872
263,1747666247990,0.637296444516129,-0.08658521387096775,0.4232661070967742,-4.229631,-0.088270025,5.327203
264,1747666248000,0.7294633099186992,-0.03301320702439024,0.49515642666666665,-4.175040512195122,-0.08434410081300814,5.288930998373984
265,1747666248010,0.816722346875,0.0302783525625,0.54543743125,-4.1084067482142865,-0.14054263357142857,5.195605267857142
266,1747666248020,0.8628055013793103,0.061136340482758615,0.547757024137931,-4.090253385344828,-0.1747653823275862,5.137803168965518
267,1747666248030,0.9874721847457626,0.09118640576271186,0.4440145915254237,-4.326572098305085,-0.24026159118644067,4.783520062711864
268,1747666248040,0.9965849725274726,0.07388229824175825,0.3913471439560439,-4.557712589010989,-0.23059156538461537,4.61830912967033
269,1747666248050,0.9393138009090909,0.051330686611570246,0.38155627512396695,-4.839572238842975,-0.1901255009090909,4.497714909090909
270,1747666248060,0.8841130271794873,0.03653349369230769,0.3897093548717949,-5.049490217948718,-0.13393612592307694,4.471705774358974
271,1747666248070,0.7409578,0.005857374,0.5640163,-5.3151383,-0.020158553,4.5674396
272,1747666248080,0.7409578,0.005857374,0.5640163,-5.3151383,-0.020158553,4.5674396
273,1747666248090,0.8228209055555555,0.05588007357407407,0.8207735485185185,-5.2064047,-0.10934488,4.7983465
274,1747666248100,1.0418571476190477,0.05809724652380953,0.9222691266666667,-4.994405176190476,-0.2635156380952381,4.793925071428571
275,1747666248110,1.0926550955752212,0.05282651483185841,0.9186552762831859,-4.929920398230088,-0.30222693663716815,4.751580260176992
276,1747666248120,1.1865873457364342,0.025156815488372095,0.7566361085271318,-5.136581293023256,-0.18730832604651163,4.409140120930233
277,1747666248130,1.1502553158730158,0.03885546201587302,0.744969251031746,-5.461406744444444,-0.045204029222222226,4.215513066666667
278,1747666248140,1.0833982950413223,0.07611762685950414,0.8289192762809917,-5.643516450413223,0.027504079892561987,4.136749150413223
279,1747666248150,1.0988282951612902,0.06859582754838708,0.8871677333870968,-5.9873465999999995,-0.10431016962903224,4.174761537096774
280,1747666248160,1.1485912983050848,0.0462633227118644,0.8916569027118644,-6.159551033898304,-0.19020169355932204,4.201712366101695
281,1747666248170,1.2271435241935484,0.015119739936370969,0.9003960404838709,-6.381645029032258,-0.2775495765322581,4.21754666451613
282,1747666248180,1.359261575,-0.0023814647919531253,0.991985971875,-6.72497724375,-0.3502548546875,4.15115375
283,1747666248190,1.4309076,-0.0036608586,1.0543274,-6.8526864000000005,-0.38117989999999996,4.105625
284,1747666248200,1.8619126984375,0.207177923815625,1.5982470546875,-6.7291772015625,-0.41928263890625,3.2855100562499997
285,1747666248210,1.9453337888888889,0.34002211746031746,1.8151351095238095,-6.377467133333333,-0.3733065472222222,2.8660439333333336
286,1747666248220,1.9197851075630255,0.61342866302521,2.0766441638655464,-5.7785542831932775,-0.30948793126050417,2.4148887882352947
287,1747666248230,1.871358386259542,0.7334162526717558,2.137505541221374,-4.944049728244275,-0.4456191920610687,2.0129594916030533
288,1747666248240,1.8085694517241377,0.8191865637931034,2.1322650568965518,-4.6950999517241385,-0.5408895713793104,1.9007072206896554
289,1747666248250,1.7555133609375,0.90345989140625,2.13207467109375,-4.5185704,-0.6554584,1.8216002
290,1747666248260,1.7481658266666666,1.1887865666666668,2.307789,-4.24960643,-1.1648283799999999,1.67050267
291,1747666248270,1.7500531904761905,1.2408335285714287,2.349515790476191,-4.089742961904762,-1.3254612190476192,1.5748396952380952
292,1747666248280,1.7306694975609755,1.4132164170731707,2.5403918682926827,-3.486585398373984,-1.612108168292683,1.2137146699186991
293,1747666248290,1.6730981081081082,1.5255820054054055,2.651161013513514,-2.594906176576577,-1.2856897783783783,0.8518708689189189
294,1747666248300,1.6534095921875,1.5664699546875,2.6468886796875,-2.3580162953125,-1.098760493125,0.8123744367187501
295,1747666248310,1.5458097475,1.7321657975,2.5360293775,-1.9101756,-0.73975784,0.74097955
296,1747666248320,1.4035733,1.7955291000000002,2.431054,-1.1693424725619836,0.07147122297520658,0.725894711570248
297,1747666248330,1.3606048908333332,1.8745711558333333,2.3515220441666664,-0.4986594773333334,0.7038796375,0.7591426171666666
298,1747666248340,1.439028025619835,2.037178144628099,2.203340794214876,0.27897357305785125,0.9684940085950413,0.6681704854545454
299,1747666248350,1.557934456910569,2.1345583227642275,2.1340960829268294,0.8134241829268293,0.7548904017886179,0.3390451196747967
300,1747666248360,1.5846248575221238,2.1564682725663715,2.0896462654867256,1.1273653017699117,0.4075930778761062,-0.08372637769911505
301,1747666248370,1.5810976553719007,2.1315194363636363,2.0331158595041323,1.3082915933884298,0.1876668867768595,-0.41916463446280994
302,1747666248380,1.55764960625,2.0790207390625,1.9896575796875002,1.5086080890625,0.026524914375,-0.86531925390625
303,1747666248390,1.4394066600000002,1.8540150872,1.9607969824000002,1.7569950784,0.11539977812800001,-1.3332500608
304,1747666248400,1.3642898780487807,1.6806199195121951,1.9672720471544716,2.0938523593495932,0.3703283783739837,-1.6263616902439024
305,1747666248410,1.31213445,1.5155955225806452,1.986346458064516,2.4910394709677424,0.561897481935484,-1.8491777548387096
306,1747666248420,1.322443618487395,1.4149988235294115,1.9855389563025208,2.769365144537815,0.5703993011764705,-1.9386655252100842
307,1747666248430,1.3830059968000001,1.246607356,1.918737128,3.2652944696,0.49904759719999997,-2.2063475312
308,1747666248440,1.4432225803278689,1.0796572606557377,1.8156219278688526,3.555240653278689,0.43439026926229507,-2.4547169090163936
309,1747666248450,1.458476412,1.018323976,1.7700788520000001,3.642736064,0.4088398776,-2.589579908
310,1747666248460,1.4714762582608696,0.9005840123478261,1.7028680817391306,3.720982097391304,0.40419624608695653,-2.8246941086956525
311,1747666248470,1.4576726666666666,0.6803502633333333,1.6672363333333333,3.8698312666666665,0.4290310133333333,-3.14168
312,1747666248480,1.4810634333333335,0.5685797614285715,1.6397122222222225,4.0640187333333335,0.5738400105555556,-3.2416583222222224
313,1747666248490,1.5062377882882882,0.5131776298198198,1.6468829216216216,4.198983171171172,0.66763166009009,-3.274105701801802
314,1747666248500,1.4972777716535435,0.4900189223622047,1.62085332992126,4.506660791338583,0.7988578299212598,-3.273809723622047
315,1747666248510,1.5064391517241378,0.4748933220689655,1.5817012931034482,4.725169272413793,0.8827213593103449,-3.283569279310345
316,1747666248520,1.5280424,0.46688148,1.5470788,4.849725173553718,0.9206698447933885,-3.309667914049587
317,1747666248530,1.5602441195121952,0.4383069746341463,1.467051919512195,5.001655170731707,0.9203106967479675,-3.40253928699187
318,1747666248540,1.5447826739130435,0.41279416678260866,1.361888307826087,5.156319013043478,0.8738082113043478,-3.5481868104347822
319,1747666248550,1.503681584,0.35297707552,1.175180536,5.2688349,0.75368556,-3.74692516
320,1747666248560,1.5086217860869564,0.29223624521739133,1.1338432747826086,5.289641608695652,0.5253440847826087,-3.9516075695652173
321,1747666248570,1.5107143,0.2806658,1.1321816,5.290703999999999,0.5180137,-3.9577959
322,1747666248580,1.5107143,0.2806658,1.1321816,5.290704,0.5180137,-3.9577959
323,1747666248590,1.470777729752066,0.2632389214876033,1.1554174429752064,5.368884689256198,0.37782772578512397,-4.038672700826446
324,1747666248600,1.4570218,0.25723633,1.1634209,5.3969946,0.32742378,-4.067752
325,1747666248610,1.416476517886179,0.24005708146341462,1.134870158699187,5.561386836585366,0.17865574051219513,-4.1049401739837394
326,1747666248620,1.2541211634920635,0.1871202338888889,0.4005424771428571,5.128417196825397,0.43902789857142854,-4.184359380952381
327,1747666248630,1.2111970484374999,0.1616326290625,0.20886723398437498,4.683742486718749,0.70386472796875,-4.27946921328125
328,1747666248640,1.1551069081967211,0.13364334672131148,0.14817474770491804,4.13260346557377,0.9965015272131147,-4.452066136065574
329,1747666248650,1.0818581414634145,0.11616529682926828,0.15288103536585365,3.786396034146341,1.1516002097560976,-4.590250036585366
330,1747666248660,0.7921835975206613,0.03671750654545455,0.28751960983471075,3.51694310661157,1.177839076859504,-4.715041541322314
331,1747666248670,0.7444559508333334,0.024415894763333335,0.3039224570833333,3.4113312033333334,1.1031717033333335,-4.749253136666667
332,1747666248680,0.5997438848780487,-0.0038394370907317075,0.3356779305691057,3.4969253886178864,0.9383883024390245,-4.640519733333333
333,1747666248690,0.4984125402439024,-0.021268696195121953,0.31555412731707316,3.6535701430894307,0.7304756552845528,-4.397032775609756
334,1747666248700,0.443492378503937,-0.05621195910236221,0.22577793236220473,3.836796440944882,0.5021841362204724,-4.007280598425196
335,1747666248710,0.4189552572881356,-0.054073162169491526,0.13790889186440677,3.8205531169491525,0.4532361245762712,-3.9276357440677963
336,1747666248720,0.4170938,-0.04098177765853658,0.0821004637398374,3.716176437398374,0.3838121089430895,-3.8374605284552845
337,1747666248730,0.4201038557142857,-0.033325437619047625,0.043215566619047616,3.5017704571428574,0.32058789857142855,-3.779161466666667
338,1747666248740,0.45613108829268295,-0.050626999756097565,0.07849119234146341,3.325163068292683,0.21682736414634146,-3.829886687804878
339,1747666248750,0.47894770336,-0.090457383712,0.1498667638,3.1620780264,0.036749654215999995,-3.9617102176
340,1747666248760,0.4476552455555555,-0.15099008844444445,0.19511021555555558,3.1532862923076923,-0.13100709953846154,-4.08640666923077
341,1747666248770,0.4319652114049587,-0.17159039892561984,0.20400967628099173,3.1700168925619834,-0.21708435057851241,-4.122744718181818
342,1747666248780,0.387593421875,-0.217805833046875,0.220988115625,3.1838295,-0.27550024,-4.142888
343,1747666248790,0.32787827310344825,-0.26213430758620687,0.22387623344827587,3.2253685,-0.31031954,-4.0683627
344,1747666248800,0.18944795512195123,-0.41247460487804877,0.14574384463414633,3.288228012195122,-0.052504614390243905,-3.5450000341463417
345,1747666248810,0.1916558652991453,-0.4730976905982906,0.12741874487179486,3.34119264957265,0.10294384555555557,-3.168589334188034
346,1747666248820,0.315804083852459,-0.6506846364754098,0.11574915204918033,3.629360639344262,-0.021330208688524588,-2.702387793442623
347,1747666248830,0.5993966167213115,-0.8727686868852459,0.021312999426229506,4.106466631147541,-0.4147374547540984,-2.6634325770491802
348,1747666248840,0.740891586440678,-1.0497811966101696,-0.12267806503389829,4.376849672881356,-0.6419365305084747,-2.9915624949152537
349,1747666248850,0.740519287804878,-1.3148137780487803,-0.34899392105691057,4.7187404341463415,-0.9435931048780488,-3.808163673170732
350,1747666248860,0.21365022025641026,-1.8806363666666668,-0.9623803315384616,4.59960657008547,-1.0916892504273503,-5.005831842735043
351,1747666248870,-0.07979071311475408,-2.1178888229508197,-1.2490650459016395,4.579046,-1.0995574,-5.1062226
352,1747666248880,-0.60989904,-2.4024994,-1.683263,3.900689951612903,-0.7556994161290322,-4.918529132258065
353,1747666248890,-1.1842199971428573,-2.5707885095238097,-2.022322226984127,2.437832285714286,0.021103940079365082,-4.05812321984127
354,1747666248900,-1.5506655704,-2.5825354984,-2.074228968,0.7187098115199999,0.9507457908800001,-2.5925805440000005
355,1747666248910,-1.5160656926829268,-2.571654895121951,-1.8422393756097561,-0.8615285800000001,1.7279590195121952,-0.9315546414634147
356,1747666248920,-1.475712425,-2.577407116666667,-1.78202465,-1.1295916583333332,1.779399575,-0.6151922083333333
357,1747666248930,-1.4459053290322579,-2.547367087096774,-1.6797830677419356,-1.3904819750000001,1.6557503,-0.17898351750000002
358,1747666248940,-1.4667033720338984,-2.3313464847457626,-1.5057546279661016,-1.5419998525423728,1.2141723949152543,0.4311362832203389
359,1747666248950,-1.435496297520661,-2.1386917958677687,-1.3988474694214876,-1.6341957661157025,0.693523938016529,1.171750625619835
360,1747666248960,-1.3735542,-2.0603313,-1.3545178,-1.7232509,0.2180789,1.9034561
361,1747666248970,-0.9736945511111111,-1.731068817948718,-1.1519981863247863,-1.938724476923077,-0.06632325907692307,2.7257590333333335
362,1747666248980,-0.81197846,-1.5980868,-1.070191,-2.0735259056,-0.17528900848,3.1419047352
363,1747666248990,-0.626130940338983,-1.460529481355932,-0.9831825420338983,-2.4943284118644065,-0.08613200250847458,3.6583165762711864
364,1747666249000,-0.2730308860629921,-1.1872846685039369,-0.8043281344094487,-3.0348506724409448,0.07462176184251969,3.9995125637795272
365,1747666249010,-0.10928801033898305,-1.058269472881356,-0.7206100772881356,-3.3304372576271186,0.1334844124576271,4.0346147152542375
366,1747666249020,0.043140704705882355,-0.9365338210084034,-0.6212692815966387,-3.6962274142857146,0.1530345756302521,4.002276137815126
367,1747666249030,0.28690002112,-0.72888186416,-0.41286088728,-4.3061600792,0.10103222192000001,3.8800009952
368,1747666249040,0.34720995947368427,-0.6544908986842105,-0.32291341736842105,-4.566490673684211,-0.022387676929824553,3.8123081798245617
369,1747666249050,0.3850357204032258,-0.4586701649193548,-0.09042714318548388,-4.815194540322581,-0.2683077806451613,3.835770681451613
370,1747666249060,0.37276011743801657,-0.3301771783471074,0.05477370389256198,-4.937401659504132,-0.4786608702479339,3.9266872661157026
371,1747666249070,0.36559775,-0.2928687,0.09518232,-4.9596148,-0.5516113,3.9749002
372,1747666249080,0.3871318683870968,-0.24572432758064516,0.17386716661290322,-4.962324443548387,-0.6838931962903226,4.11222674516129
373,1747666249090,0.44758340207999997,-0.20264367688,0.2397833144,-4.9656651584,-0.72949526552,4.237582091999999
374,1747666249100,0.5980437204800001,-0.14460488519999998,0.32767124112000007,-4.9964815736,-0.41563760431999996,4.213709464000001
375,1747666249110,0.627708887826087,-0.12105239243478261,0.3782378008695652,-4.9871516,-0.3411177802608696,4.153798565217391
376,1747666249120,0.6522391369047619,-0.0884145805079365,0.4372305119047619,-4.945943190476191,-0.30150563333333336,4.057192238095237
377,1747666249130,0.6667076162790698,-0.03357773603875969,0.5278201519379845,-4.844175595348838,-0.3677408781395349,3.9307047279069764
378,1747666249140,0.6449070029166666,0.018525979008333335,0.5900755091666666,-4.730907045833334,-0.48537317575,3.8438847716666666
379,1747666249150,0.59916055,0.07541369,0.6321083,-4.601421287096774,-0.6311125129032258,3.7849011645161292
380,1747666249160,0.577647531147541,0.11045990959016394,0.576697296557377,-4.24009581147541,-1.2306230852459015,3.8339454098360655
381,1747666249170,0.5791479,0.12471326,0.53033644,-4.226577,-1.3793337,3.893655
382,1747666249180,0.59437704768,0.15553084912,0.51017144096,-4.2795901999999995,-1.5009789928,3.9711225295999997
383,1747666249190,0.7413963113821138,0.23644980731707316,0.6715205229268293,-4.380350902439024,-1.8891827170731705,4.256851853658536
384,1747666249200,0.8134624516129032,0.23309829161290324,0.7488384866129033,-4.325177373387097,-1.9389404935483872,4.354459473387097
385,1747666249210,0.9547681899999999,0.18591467733333333,0.810628029,-4.194506116666667,-1.8385008,4.438954383333334
386,1747666249220,1.0163938285714287,0.17310632285714286,0.8282257,-4.151640273109243,-1.7532243462184873,4.439984352941177
387,1747666249230,1.0887394,0.17084008,0.8468786,-4.0726385,-1.5467108,4.414112
388,1747666249240,1.1534958666666666,0.28570969333333335,0.90642856,-4.0547199,-1.4302391333333333,4.214562666666667
389,1747666249250,1.1835311599999998,0.38482948,0.9562162319999998,-4.03867448,-1.37175898,4.0903534399999995
390,1747666249260,1.2007988576271187,0.5667919423728813,1.0531442203389831,-4.0028755593220335,-1.4915466288135595,3.9232871322033898
391,1747666249270,1.2544237281250001,0.5515287248958334,1.0730103239583333,-3.998113,-1.568702,3.8789941999999997
392,1747666249280,1.3195092879032257,0.49331055935483875,1.0753379362903226,-4.019453983870968,-1.4962553677419357,3.823395664516129
393,1747666249290,1.396073431967213,0.377672581147541,1.0336944221311475,-4.171448581967214,-1.0144168655737704,3.667254336065574
394,1747666249300,1.400642603937008,0.3702252277165355,1.0582207023622048,-4.344608244094489,-0.7648898618110237,3.553610075590551
395,1747666249310,1.335411587394958,0.45027944243697476,1.1317200579831934,-4.488227197478992,-0.584659656302521,3.4633081999999997
396,1747666249320,1.2912694846774193,0.5515792007258065,1.2160053258064516,-4.495781104838709,-0.469371114516129,3.4251114806451612
397,1747666249330,1.2793965373015872,0.6466722644444445,1.2999767007936507,-4.414316066666667,-0.41253766000000003,3.3974288
398,1747666249340,1.3698913362204723,0.750846905511811,1.3459257543307086,-4.259741141732284,-0.626867957480315,3.2035649393700787
399,1747666249350,1.40862396015625,0.78615033984375,1.36384528046875,-4.256365628125001,-0.8184830578125,3.0377946468749997
400,1747666249360,1.4221097848,0.8166585276,1.4108207584,-4.332935425600001,-1.0527456119999998,2.7922258872
401,1747666249370,1.4105830888888888,0.9368137638888888,1.6425459500000001,-4.2991095476190475,-1.2082332738095238,2.572411680952381
402,1747666249380,1.41797255,1.1349882,1.99284945,-4.0216315,-1.2311988999999999,2.4190264
403,1747666249390,1.5586059537190082,1.3305275132231404,2.2082804694214877,-3.35793639338843,-0.8428829885950413,2.498757002479339
404,1747666249400,1.5910091,1.3679409,2.242154,-2.95808415503876,-0.539621326511628,2.503638369767442
405,1747666249410,1.7952378387096772,1.6265943483870968,2.1983850387096773,-2.231574483870968,0.11774428080645159,2.3983504782258067
406,1747666249420,1.8168741647540982,1.8010444704918034,2.0749086778688524,-1.8048564262295081,0.7009929050819672,1.9978496950819673
407,1747666249430,1.7388923396825395,2.1091350650793648,1.901976861904762,-1.6631630730158729,1.1753823650793653,1.209367746031746
408,1747666249440,1.6543533226890756,2.228111463865546,1.9694619613445379,-1.769312131092437,1.0557702151260504,0.881920018487395
409,1747666249450,1.5814338766129032,2.318835169354839,2.194283262096774,-1.4300847580645162,0.9189039258064515,0.5745680264516129
410,1747666249460,1.5420557188524588,2.349581066393443,2.345530231967213,-0.7609878727868852,0.881017937704918,0.31859126524590164
411,1747666249470,1.5329236,2.3466103,2.3758974,-0.4819971168,0.9054733639999999,0.24884207200000003
412,1747666249480,1.5065911577235773,2.319127219512195,2.3484994951219513,0.4421770400813008,1.0024397857723577,-0.004320753658536591
413,1747666249490,1.4690995371900826,2.292903740495868,2.254723899173554,1.356418705785124,1.040040991735537,-0.3125711708264463
414,1747666249500,1.4243805855999998,2.2466329456,2.0880191256,1.8705426752,0.9884434904,-0.54446664448
415,1747666249510,1.3325075243697477,2.098551782352941,1.7664145899159664,2.8524788134453782,0.46602857899159666,-1.3596269512605041
416,1747666249520,1.3104148617886178,2.0401240943089434,1.7182622406504062,2.9269235113821135,0.3466436723577236,-1.5315981203252031
417,1747666249530,1.2716142622950821,1.8913836918032787,1.6486007540983605,2.9874815860655732,0.16791784418032787,-1.8591433549180327
418,1747666249540,1.2746397591666667,1.7631265166666668,1.6438923566666666,2.9827735958333332,0.12227486241666667,-2.0314884025
419,1747666249550,1.2984395741935484,1.5860414258064515,1.6711779967741935,2.960336738709677,0.14027732177419353,-2.2334514419354843
420,1747666249560,1.3361001535714288,1.4155363446428573,1.7577134321428571,3.051479116071429,0.448855075,-2.6170339214285714
421,1747666249570,1.3613372809917355,1.3145145140495869,1.7942947809917356,3.1917759454545456,0.6171001111570248,-2.741366257851239
422,1747666249580,1.4404878857142858,1.0691954682539682,1.8966889571428571,3.5569228293650794,0.8124895388095238,-3.021000111111111
423,1747666249590,1.4575099,1.0174747,1.9197543,3.8594465,0.93034774,-3.250414
424,1747666249600,1.3608887500000002,0.8356559574193548,1.8799199516129033,4.4719524024193555,0.9500777193548386,-3.5924984806451614
425,1747666249610,1.2576556983193279,0.7229406226890757,1.7037882462184875,4.859689786554622,1.0461297924369748,-3.6885737462184873
426,1747666249620,1.1810990598360656,0.6341687466393443,1.5410154024590164,4.9869285532786884,1.092757768032787,-3.6894407704918035
427,1747666249630,1.1660786275590551,0.5824166824409449,1.4629041078740157,5.000562244094488,1.0589613118110237,-3.6563700102362207
428,1747666249640,1.1577349570247935,0.5616987644628099,1.4709935132231404,5.001154,1.03786,-3.6480873
429,1747666249650,1.1532778559999999,0.529213728,1.523590796,5.06046152,0.86005425984,-3.6299860776
430,1747666249660,1.1960655629032257,0.44810089822580645,1.6622661370967742,5.236923080645162,0.5426995822580645,-3.6137604750000003
431,1747666249670,1.2218026647540983,0.37034687770491803,1.6885321114754097,6.187434049180329,-0.7129698606557378,-3.609432403278689
432,1747666249680,1.2339137902439024,0.34400762211382113,1.627625762601626,6.342003,-0.8576548,-3.6212091
433,1747666249690,1.3015573,0.32410803,1.1241276,6.74271956875,-1.0959358946428572,-3.725525358035714
434,1747666249700,1.334522225,0.33337266164062496,0.963827786328125,6.8272592375,-1.0574078125,-4.0498841625
435,1747666249710,1.3648379100840335,0.3504333854621849,0.8282995268907564,6.528219512605042,-0.9743455025210084,-4.17719443697479
436,1747666249720,1.3853609999999998,0.3458051057377049,0.743770471147541,6.191870396721312,-0.8722554918032788,-4.244562229508197
437,1747666249730,1.40454369140625,0.312408533203125,0.65647013140625,5.7408208601562505,-0.699421640625,-4.3412236328125
438,1747666249740,1.3876233672268907,0.23783276453781513,0.5486652993277311,5.214550924369748,-0.44952496008403364,-4.550293990756303
439,1747666249750,1.37192214609375,0.176983447265625,0.433781259140625,4.7343297812500005,-0.18823240078125,-4.831466840625
440,1747666249760,1.3596242692307694,0.14403131846153847,0.3790584415384615,4.5300982820512825,-0.03865680787179488,-5.043068358974359
441,1747666249770,1.2410496495798318,0.037135667294117644,0.2692607705042017,4.217192946218487,0.21197537491596638,-5.495759428571429
442,1747666249780,1.1729392,-0.018792408,0.21379416,4.062010656097561,0.3351961650406504,-5.727954260162601
443,1747666249790,1.0405629437288135,-0.08531662165254236,0.15180154155932202,3.8440092898305083,0.45946384983050853,-5.918776942372881
444,1747666249800,0.7854218359349594,-0.20270045756097563,0.09682128104065041,3.6683054227642278,0.490524783495935,-5.995602704878049
445,1747666249810,0.5965204602608696,-0.2816463100869565,0.13609056826086957,3.6515133695652175,0.28944388426086953,-5.91743586
446,1747666249820,0.35632357,-0.37658033,0.24918245,3.844175,-0.32559118000000004,-5.6462274
447,1747666249830,0.2649183165873016,-0.39392388420634916,0.26980723611111107,4.06540526984127,-0.8636374346031747,-5.340833704761905
448,1747666249840,0.244301295,-0.40830775999999996,0.24674189,4.077595721311475,-0.8915728704918033,-5.319204344262294
449,1747666249850,0.22597319634146343,-0.4338801941463415,0.20597837512195122,4.259787048780487,-1.299002400813008,-4.936868964227642
450,1747666249860,0.1376052175798319,-0.5831306764705882,0.09927592697478992,4.314274207563026,-1.4766307142857142,-4.465686538655462
451,1747666249870,0.0042303270427350445,-0.7360703724786325,0.0198103555982906,4.241853307692308,-1.5645250769230767,-3.924412418803419
452,1747666249880,-0.11610206677165354,-0.8196614779527559,-0.01433019575590551,4.111243370078741,-1.5947623716535433,-3.536895412598425
453,1747666249890,-0.03366452590551181,-1.2096591787401576,-0.11622697887401576,3.8400287787401575,-1.6716303086614173,-2.828031788976378
454,1747666249900,0.05531297475409837,-1.376042808196721,-0.25099288635245903,3.6982682852459012,-1.5202633180327867,-2.8155779672131147
455,1747666249910,0.16814929033613446,-1.6330875974789916,-0.5187139596638656,3.3710880235294116,-1.1882561100840336,-2.992377242016807
456,1747666249920,0.2020137712605042,-1.7330485226890755,-0.6321493047058824,3.1991012,-1.0268645,-3.095865
457,1747666249930,-0.006051827642276414,-2.261686525203252,-0.9063076219512195,2.4020711024390247,-0.6050694512195122,-3.4477084756097565
458,1747666249940,-0.33414838852459017,-2.6805887901639345,-1.034250693442623,1.9236146,-0.3707952,-3.5882225
459,1747666249950,-0.5605995,-2.840094,-1.0160104,0.9745352434375,0.27413532890625003,-3.24985080078125
460,1747666249960,-0.7191737296774193,-2.892586129032258,-1.0013826693548387,0.5828738053225806,0.8313679096774194,-2.692960029032258
461,1747666249970,-1.1602853881355932,-2.949187806779661,-1.1130706898305085,0.40506060466101695,1.6221526762711866,-1.4376921292372882
462,1747666249980,-1.3584931890625,-2.874803690625,-1.3518712937500001,0.289545360484375,1.8878695484375,-0.45540960242187495
463,1747666249990,-1.452244964102564,-2.7363155854700856,-1.5582096188034187,-0.06714818635897435,1.7466830564102565,0.26292266256410257
464,1747666250000,-1.4936304,-2.6148295,-1.6466542,-0.605391319375,1.4257881749999999,0.9635444515625
465,1747666250010,-1.3530153786885246,-2.296136631147541,-1.5283744827868853,-1.8640353565573768,0.7623298072950819,2.274757063114754
466,1747666250020,-1.1946602,-2.033241,-1.3779472,-2.081218,0.65668017,2.4929411000000004
467,1747666250030,-1.1544157370078738,-1.9735142307086615,-1.3252596661417322,-2.1924435748031494,0.6176328773228347,2.6063359944881888
468,1747666250040,-1.0005275736585366,-1.7128176097560974,-1.1093413268292682,-2.549110875609756,0.5021461185365854,2.9946253048780487
469,1747666250050,-0.788304917398374,-1.385272892520325,-0.8706176341463414,-2.713220017886179,0.4750147694308943,3.254560787804878
470,1747666250060,-0.3197050526829268,-0.8141729413821138,-0.48935065447154474,-3.2078520650406506,0.5685814796747967,4.1710475121951225
471,1747666250070,-0.2767609,-0.77414954,-0.46712556,-3.2561459183333334,0.6082487358333333,4.2079910583333335
472,1747666250080,-0.06536348656249999,-0.556214126875,-0.35404126750000003,-3.4671089171875002,0.7801990059375,4.2690793609375
473,1747666250090,-0.015545775504587153,-0.501143599174312,-0.3205971862568808,-3.6133520100917433,0.8838323339449541,4.265632722018348
474,1747666250100,0.25529975886178863,-0.0038572991056910577,0.08155877325203252,-3.8222434975609754,0.9702476865853659,4.301787529268292
475,1747666250110,0.2774050705737705,0.07297911741803279,0.1656468580327869,-3.7895977016393445,0.8904011799180328,4.328661121311476
476,1747666250120,0.2959256128813559,0.15253164542372882,0.3038926372881356,-3.6448568559322037,0.7105915771186441,4.334285593220339
477,1747666250130,0.3328740757377049,0.18886830360655738,0.421902977704918,-3.253418144262295,0.3795676262295082,4.275275803278688
478,1747666250140,0.35044180227272725,0.19896656027272727,0.450278979,-2.894079561818182,0.13499010272727271,4.2201515090909085
479,1747666250150,0.3597843937704918,0.22228813344262294,0.36718213688524587,-1.9424663754098361,-0.429568455,4.12625962295082
480,1747666250160,0.3879112636752137,0.2614875288888889,0.12023261343589743,-1.7860342358974362,-0.46259207547008546,4.136351521367521
481,1747666250170,0.419371719047619,0.3095285116666667,-0.03581831038095238,-1.9533433714285715,-0.24931059625396826,4.179724365079365
482,1747666250180,0.43320164,0.33313814,-0.08639627,-2.1245892,-0.065973446,4.2137485
483,1747666250190,0.45246197322314047,0.4032632640495868,-0.13609318057851238,-2.667507158677686,0.26977526161983467,4.210376082644628
484,1747666250200,0.47812722984375,0.44567142296875,-0.09957535718749999,-3.3969786734375003,0.622094673046875,4.125979703125
485,1747666250210,0.5039041877868852,0.3729374883606557,0.04493253864754098,-4.135727819672131,0.8735273144262294,3.861800068852459
486,1747666250220,0.5126596714285714,0.34464370714285714,0.08841845428571428,-4.28163073125,0.9182068425,3.79278605625
487,1747666250230,0.5706578950819673,0.24680590327868854,0.2195074837704918,-4.638269635245901,1.0623848204918034,3.510402166393443
488,1747666250240,0.5855869193333334,0.2560018178333333,0.33765320499999996,-4.6885130075,1.1231979058333332,3.3950871641666667
489,1747666250250,0.585838768898305,0.2863515376271187,0.42915811737288134,-4.568164377966101,1.0904773169491526,3.260746872881356
490,1747666250260,0.5930786498,0.32421052279999996,0.4892322744,-4.4567079000000005,0.9987341430000001,3.267884618
491,1747666250270,0.6121336618348624,0.3320477144036697,0.4969117582568807,-4.323782449541285,0.8548638559633027,3.294609194495413
492,1747666250280,0.6620000722222222,0.29815034692307696,0.3574687605982906,-4.234376944444444,0.6150578017094017,3.291744082051282
493,1747666250290,0.6872489383333333,0.2609602394166667,0.286081873,-4.451196879166667,0.36032397575,3.2345417408333335
494,1747666250300,0.7027340776422765,0.23522156991869916,0.24708515845528456,-4.681244033333333,0.17546234292601626,3.190797560162602
495,1747666250310,0.7145996,0.21696689999999996,0.19939478,-5.1324897,0.0061086523000000005,3.1722233000000006
496,1747666250320,0.7145996,0.21696689999999996,0.19939478,-5.1324897,0.0061086523000000005,3.1722233000000006
497,1747666250330,0.8510276775,0.1820667175,1.1047861187499999,-6.2152484375000006,-0.49831334624999996,3.2927163375
498,1747666250340,0.8510276775,0.1820667175,1.1047861187499999,-6.2152484375000006,-0.49831334624999996,3.2927163375
499,1747666250350,0.85859346,0.18548352,1.1392592,-6.20578,-0.53023106,3.3102787
500,1747666250360,1.0680369373913043,0.20481283643478262,1.2247279686956523,-5.530609182608696,-0.5264383820869565,3.32336717826087
501,1747666250370,1.2068533571428572,0.20177916468253967,1.1340719801587302,-5.1097811222222225,-0.43225988984126984,3.231855319047619
502,1747666250380,1.20788700390625,0.23651625898437498,0.98572433203125,-5.248859775,-0.2342668175,3.0541736375
503,1747666250390,1.1632979256,0.29739839448,0.9339133855999999,-5.448830148,-0.2052604968,3.0154117104
504,1747666250400,1.1584092418604652,0.42983022767441864,1.2004154139534884,-5.830822497674419,-0.6120443379069768,3.135997520930233
505,1747666250410,1.2115372655999999,0.48066783184,1.3669939168,-5.787508416800001,-0.83073272608,3.1700240744
506,1747666250420,1.335249675213675,0.5715007271794872,1.6921344085470087,-5.175532083760684,-1.5702160247863248,3.2098411213675213
507,1747666250430,1.5074882125,0.6985070903125,2.1082352,-4.56143086484375,-1.9346246062499999,3.190167475
508,1747666250440,1.5759119371900827,0.8022847430578512,2.1608607768595043,-3.9263337867768593,-2.002259817355372,3.1424474049586775
509,1747666250450,1.6448041677419356,1.090077788387097,2.037917370967742,-2.639607812903226,-1.7330049806451613,3.027270829032258
510,1747666250460,1.646544827586207,1.1596759206896552,1.996169451724138,-2.4869903379310343,-1.601425375862069,3.0071421482758622
511,1747666250470,1.7283632615384614,1.3895638675213675,1.8756008803418802,-2.1817026547008544,-1.2731736923076922,2.845039635042735
512,1747666250480,1.7370541142857143,1.795552373809524,1.9688796404761906,-2.016960734920635,-1.207108419047619,2.518122336507936
513,1747666250490,1.6822637745762712,1.9658066559322034,2.0876037144067796,-1.814135227118644,-1.3848935491525423,2.3200662796610168
514,1747666250500,1.5848922952380953,2.152507507936508,2.2738814555555558,-1.19057638,-1.9022343999999998,1.9961040333333335
515,1747666250510,1.5780742,2.169669,2.2885249,-0.82527894,-2.058616,1.9712621
516,1747666250520,1.6321959158333335,2.228677928333333,2.299747355,-0.44277548333333333,-2.007557775,1.9613100875
517,1747666250530,2.1516167338842975,2.4930065272727275,2.096294561983471,0.7241024921487602,-0.9268391065289255,1.1112092827272726
518,1747666250540,2.3436938799999996,2.6836473675,1.74521685,1.32352099,0.5799147201666666,-0.3148399571666667
519,1747666250550,2.336604,2.7000053,1.704984,1.30341538,0.723240004,-0.48241251439999994
520,1747666250560,2.070498821186441,2.683130281355932,1.5021764991525424,0.9871116495762712,1.3408492762711863,-1.4025569576271186
521,1747666250570,1.8493669338842975,2.5488048305785127,1.5684712280991735,0.966656427107438,1.5125528115702478,-1.8595696900826446
522,1747666250580,1.598369065625,2.299553203125,1.785995653125,1.3235064421875,1.42929098125,-2.1830604828125
523,1747666250590,1.5531803,2.21604,1.8663057,1.4953982,1.3524556,-2.238821
524,1747666250600,1.5531803,2.21604,1.8663057,1.4953982,1.3524556,-2.238821
525,1747666250610,1.55084796,2.0125534843478263,1.869520931304348,1.857609347826087,1.1387590765217392,-2.352059522608696
526,1747666250620,1.5755776098360657,1.475226024590164,1.8237518032786884,3.308596381967213,0.19367432986885247,-3.1294926721311476
527,1747666250630,1.5878441448818899,1.3195580118110235,1.8378798236220473,3.579636736220473,0.06609850678740158,-3.385569116535433
528,1747666250640,1.6374953112000001,1.01229874896,1.90130562,4.0330054,0.29524338888,-3.7657154520000002
529,1747666250650,1.6456607551181102,0.8742207467716535,1.8867758480314962,4.306085031496063,0.5574217421259842,-3.9205908448818896
530,1747666250660,1.6459220999999997,0.8390688,1.8780205,4.382347,0.6395759,-3.9577959
531,1747666250670,1.6032342041322314,0.7188454016528926,1.741172959504132,4.671867046280991,1.0898795152066116,-4.049011843801653
532,1747666250680,1.5883925770491805,0.5926870285245901,1.5032205983606557,4.7522913901639345,1.506714144262295,-4.192758672131148
533,1747666250690,1.6186152373913043,0.5189378463478261,1.3738598713043477,4.604165590434782,1.6550145652173913,-4.401352986086956
534,1747666250700,1.6392454503875968,0.47148643565891474,1.3408088775193798,4.477836253488372,1.7281283178294573,-4.568647003100775
535,1747666250710,1.6510428369369368,0.4500129818018018,1.3541175315315317,4.414723,1.7647897,-4.653571600000001
536,1747666250720,1.6846464702479338,0.41747100603305787,1.446509214876033,4.205438632231405,1.8159105570247935,-5.029773626446282
537,1747666250730,1.72479484488189,0.4041222741732283,1.6986019401574803,4.259861592125984,2.01266150472441,-5.41344428031496
538,1747666250740,1.7065733780487804,0.3851461390243902,1.7886003536585366,4.465722812195121,2.2099465951219512,-5.48723831707317
539,1747666250750,1.629134600826446,0.31702430842975204,1.7601872570247934,4.82204385123967,2.507576611570248,-5.393813814049587
540,1747666250760,1.6207842,0.30897647,1.7547716,4.913189,2.5839600000000003,-5.3603425
541,1747666250770,1.5674527178861788,0.22952492520325202,1.6088015796747968,5.2185223170731705,2.8185819170731707,-5.213963353658536
542,1747666250780,1.4021999785714288,0.006920767500000001,1.1212454674603174,5.984472428571428,3.2465742857142854,-4.830024142857143
543,1747666250790,1.3090993390243901,-0.07212784463414634,0.8974996682926828,6.098208048780488,3.0366707512195124,-4.811487680487805
544,1747666250800,1.153509818699187,-0.13806298219512195,0.6757925167479675,6.056967268292683,2.588384975609756,-4.934435241463414
545,1747666250810,0.9760154249999999,-0.2150449425,0.6225900525,6.0588057325,1.8132466025,-5.0777562725
546,1747666250820,0.84188335,-0.2616766025806451,0.5757231903225807,6.132269192741936,1.4852695669354838,-5.0598018806451615
547,1747666250830,0.7790498140625001,-0.2811463171875,0.50638446921875,6.18669045625,1.29281988125,-5.0149365
548,1747666250840,0.5454344967741936,-0.4198985262096774,0.23981772524193548,6.234392325806452,0.9839758285483872,-4.802415588709677
549,1747666250850,0.3406701253846154,-0.4418975585384616,0.24531320546153848,6.175758290769231,0.7063059062307693,-4.450440124615384
550,1747666250860,0.24455130536585365,-0.45133922097560975,0.2871006178048781,6.200162959349593,0.4724620666666667,-4.203160268292683
551,1747666250870,0.2514179260504202,-0.4933237974789916,0.24682391605042017,6.304576018487395,0.184876575907563,-4.01693688907563
552,1747666250880,0.25864920703125,-0.5550109859375,0.0937961590234375,6.3893451,-0.17363844225,-3.9493965
553,1747666250890,0.20215542147540982,-0.571846134262295,-0.09560041746721312,6.197007672131147,-0.3936575769672131,-4.024795773770492
554,1747666250900,0.17032371694214876,-0.5605954876033058,-0.23670527454545456,5.904956727272728,-0.5094616172727273,-4.088132181818182
555,1747666250910,0.20888151387096773,-0.5295963548387097,-0.41167734387096777,5.5253944274193545,-0.5742182649193548,-4.1227194516129035
556,1747666250920,0.22153312983870968,-0.5362016125806451,-0.5317377709677419,4.641669483870968,-0.6129539903225806,-4.140937096774194
557,1747666250930,0.1845322611023622,-0.5722565733858268,-0.5672947545669291,3.6779907645669287,-0.5221887653543307,-4.123407496062992
558,1747666250940,0.07409892614225808,-0.6685830419354839,-0.4815564206451613,3.03916795,-0.28055464596774193,-3.9740233161290326
559,1747666250950,-0.06995672338960937,-0.821338485703125,-0.27508873359375,2.77470273125,-0.054214292206249994,-3.5315647625
560,1747666250960,0.04314181487179487,-1.2262625507692306,-0.2692827474358974,2.966518341025641,0.2037783684051282,-2.7257903410256406
561,1747666250970,0.23352110848780488,-1.6310345536585367,-0.38812839682926825,3.2034668024390243,0.4006977926829268,-2.2041955048780486
562,1747666250980,0.39889249531250004,-1.99051568125,-0.6260907075,3.341738303125,0.48218266625,-2.0153399125
563,1747666250990,0.44253090451612903,-2.190712987096774,-0.8488311387096774,3.2885929467741937,0.4093388269354839,-1.9700797862903225
564,1747666251000,0.25256411256,-2.3783613544,-1.2819643312,2.6113463336,0.32478971472,-1.7575814568
565,1747666251010,0.09081618601694916,-2.5070635694915255,-1.5098704559322034,2.109773277966102,0.4132140883050847,-1.565626913559322
566,1747666251020,-0.01724540109677419,-2.5768842758064516,-1.5930403379032259,1.8295414000000003,0.49235737,-1.4520267
567,1747666251030,-0.118855886,-2.6057992,-1.6342072,1.2948852582677166,0.7120091018110236,-1.2340776338582677
568,1747666251040,-0.2525697935862069,-2.58371204137931,-1.6483900137931036,0.6961862945689654,0.9973744206896552,-0.9780531719827587
569,1747666251050,-0.4544346,-2.570899,-1.6830187,-0.21319197,1.4477507,-0.5858198
570,1747666251060,-0.8393876903225806,-2.4750948088709674,-1.4140184717741935,-1.634842874032258,1.8826078709677418,0.39699837153225803
571,1747666251070,-0.9314985049180328,-2.3587053229508195,-1.2955518540983606,-1.9425063950819672,1.710793206557377,0.8713441827868852
572,1747666251080,-0.9330502174603175,-2.061137079365079,-1.0504301323809524,-2.0826626904761905,1.1671210777777778,1.5147809444444444
573,1747666251090,-0.9093573,-1.9431838,-0.95719254,-2.079437101694915,0.6852147993220339,1.9444876372881357
574,1747666251100,-0.6508686540983606,-1.6028440393442622,-0.8074854470491803,-2.013031331147541,0.025976799180327872,2.4662732704918033
575,1747666251110,-0.48873182,-1.4003287529411763,-0.7568645735294117,-1.962566376470588,-0.704974411764706,3.0647827235294116
576,1747666251120,-0.48103684,-1.3908823,-0.7551131,-1.9578232000000002,-0.852157,3.1905491
577,1747666251130,-0.26275814125,-1.054815409375,-0.7172232153125,-2.5210887328125,-0.68911802921875,3.56528636640625
578,1747666251140,-0.07323141195,-0.8060397241666667,-0.65602587475,-2.9066140099999997,-0.49026516333333336,3.7293475283333333
579,1747666251150,0.054987074367999995,-0.6550652439200001,-0.6029307504,-3.2394037488,-0.29264354230399997,3.8184550031999995
580,1747666251160,0.2341114132231405,-0.4063573219834711,-0.4480770188429752,-3.90426707768595,0.10425097682644627,3.902878667768595
581,1747666251170,0.3494803718897637,-0.17968763141732283,-0.2502893548031496,-4.581479925984252,0.5112028248031496,3.8878494692913383
582,1747666251180,0.3825164338709678,-0.11425029167741936,-0.17103689587096774,-4.7555761016129035,0.5975542758064516,3.812070058064516
583,1747666251190,0.3920010635294118,0.015365351714285713,0.06637126339495798,-4.9069777563025205,0.6111989042016807,3.6404231084033616
584,1747666251200,0.35282480597014926,0.06592459503731343,0.20762168783582086,-4.852695353731343,0.22663101725373136,3.3711646492537315
585,1747666251210,0.33265,0.077122085,0.25308737,-4.7904053,-0.029932396,3.2333097
586,1747666251220,0.29149328372881356,0.10107899432203389,0.3325341988135593,-4.621791268644068,-0.3630610230847458,3.192821804237288
587,1747666251230,0.26795741142857143,0.12746180178571428,0.3913516145238095,-4.18630817936508,-1.0163779424603177,3.3181860753968255
588,1747666251240,0.29074248652542367,0.19765327754237288,0.3808699575423729,-3.879636261016949,-1.3627989677966101,3.609209279661017
589,1747666251250,0.383989898,0.263513488,0.2780983648,-3.9868485680000005,-1.2357706616,3.8510851064
590,1747666251260,0.40982588254237284,0.27063466508474576,0.2566365522033898,-4.093066152542373,-1.1304838355932203,3.97328497118644
591,1747666251270,0.5140003225806451,0.2863263935483871,0.20363821838709678,-4.740984150806451,-0.5145899234677419,4.279692297580645
592,1747666251280,0.6579468564516129,0.2826734096774194,0.2795557587096774,-5.626728937903226,0.6397089108870968,4.2008070161290325
593,1747666251290,0.7095975000854702,0.3003343406837607,0.4051287974358974,-5.723368571794873,0.8457664512820512,4.001355328205128
594,1747666251300,0.6974848781889764,0.32513999196850396,0.4852761502362204,-5.6909120535433075,0.8895208205511811,3.7965419897637798
595,1747666251310,0.6635680508064515,0.35701247096774197,0.5766797298387096,-5.592333580645162,0.8075244470967742,3.564319958064516
596,1747666251320,0.5692322545454546,0.337168107768595,0.5989023809917355,-5.254036785123967,-0.10026268545454546,3.035904377685951
597,1747666251330,0.5768956314960629,0.2666508044094489,0.5352521062992126,-5.255105560629921,-0.5747279954330707,2.8120001653543305
598,1747666251340,0.579636,0.16584185666666668,0.44110273967479674,-5.449945975609756,-0.7612523077235772,2.6799749975609757
599,1747666251350,0.5655470420800001,0.04278420984,0.43031980576,-5.649716712,-0.77191374696,2.6585978776
600,1747666251360,0.55815893,-0.017328065,0.4288086,-5.739079,-0.77091193,2.6529877
601,1747666251370,0.5352176,0.0741934,1.04066,-6.160576,-0.643852,3.462995
602,1747666251380,0.5352176,0.0741934,1.04066,-6.160576,-0.643852,3.462995
603,1747666251390,0.6411596289855073,0.15410269623188405,1.1951589217391305,-5.815295347826087,-0.7237956369565218,3.6518144188405794
604,1747666251400,0.8405626329670329,0.29106105142857147,1.3587043043956044,-4.613214037362638,-1.111506193956044,3.8404159087912086
605,1747666251410,0.8960387285714286,0.3171698135714286,1.3137602000000002,-4.160897733035714,-1.2676217017857143,3.841148033035714
606,1747666251420,1.0364993354838712,0.37437594822580644,1.0262882225806451,-3.789985258064516,-1.3686189637096775,3.5633247717741936
607,1747666251430,1.06152705,0.47835219749999996,0.663286575,-4.567912199999999,-0.9600239903225806,3.147394451612903
608,1747666251440,1.0398166039999999,0.537718672,0.638527948,-5.252067808,-0.7165253624,2.998630024
609,1747666251450,1.04311972421875,0.54865216875,0.744130564453125,-5.625935312499999,-0.6175942765625,2.9571700234375
610,1747666251460,1.0928232666666668,0.5535869533333333,1.0335011033333334,-5.937935893333333,-0.5547674300000001,2.9193860666666667
611,1747666251470,1.1349581786885248,0.5580709327868852,1.2362779836065574,-5.944690009836066,-0.5678643270491803,2.903993322131148
612,1747666251480,1.1824573,0.5930591,1.6251773,-5.486368511811024,-0.8109741267716536,2.8875408251968504
613,1747666251490,1.1901776119266054,0.8039693055045871,1.9581384394495411,-3.8575410697247703,-1.6390635458715597,3.0849255559633026
614,1747666251500,1.2143156208,0.8988452024,1.8740648504,-2.84152036,-2.052130804,3.2801118463999996
615,1747666251510,1.3026461675213676,1.1933522846153846,1.5507251376068376,-2.719890479487179,-2.0362277777777775,3.2872487179487178
616,1747666251520,1.3570574902439025,1.365797930894309,1.4445470983739837,-2.7861512951219516,-1.7380556601626016,3.1577015642276427
617,1747666251530,1.405491353125,1.51857760625,1.4419016703125,-2.8678976781250003,-1.435036975,2.9676024375
618,1747666251540,1.426643953846154,1.6486109085470086,1.6113285213675215,-2.74146938974359,-1.3311380410256413,2.8474622051282052
619,1747666251550,1.5761377147540985,1.8034430065573772,2.1343005590163937,-1.8247947262295083,-1.7355282327868853,2.8054035737704917
620,1747666251560,1.6246890999999999,1.8499539,2.2965786,-1.3811663,-1.9346102,2.787378
621,1747666251570,1.884442646280992,1.9032309578512396,2.4319094140495867,0.179584283553719,-2.394384749586777,2.202951700826446
622,1747666251580,2.100419612903226,2.081772937096774,2.17451459516129,0.9764089732258064,-2.376718875,1.5680862104838709
623,1747666251590,2.1381855,2.1125596,2.1284232,1.0720685,-2.360994,1.4740179
624,1747666251600,2.1361445935483867,2.444300143548387,1.5986202435483872,0.8421072822580646,-1.403393965483871,0.4976383885483871
625,1747666251610,2.1642997,2.498414,1.5029045,0.3043228825,-0.6245282633333333,-0.017043150166666656
626,1747666251620,2.2070036466666667,2.4932277208333335,1.6221630775,-0.11409944083333333,0.1542129403333333,-0.5856975845
627,1747666251630,2.2103561968000003,2.4796898080000003,1.6692363479999999,-0.1966986,0.34513888,-0.73426
628,1747666251640,2.1411142,2.3671112,1.8365307,-0.053927191039999975,1.1943148263999999,-1.5110851544
629,1747666251650,1.7699924243902438,2.1037913268292683,2.0292943536585364,0.7989521282926829,1.645760292682927,-2.177227953658537
630,1747666251660,1.4498997636363637,1.8923976454545457,2.139539109090909,1.3683159436363637,1.5706789090909092,-2.323209289090909
631,1747666251670,1.2458082786885245,1.7502865852459017,2.0612194098360654,2.264046868852459,1.2478475360655739,-2.3856892229508193
632,1747666251680,1.160707004,1.593937908,1.868433928,3.4051876,0.55319957712,-2.3888203416000002
633,1747666251690,1.2010259148760332,1.4620703628099174,1.6608781223140496,4.118781512396694,0.0006260106611570185,-2.439230467768595
634,1747666251700,1.323129150413223,1.3703431487603306,1.5053491,4.399436150413224,-0.28669269628099175,-2.627619234710744
635,1747666251710,1.4246821885245902,1.2948557475409836,1.4182526393442623,4.388095295081967,-0.29701069573770494,-2.8871294098360654
636,1747666251720,1.584962829032258,1.1244111419354839,1.2888426516129032,4.0962061935483876,-0.002541980322580645,-3.5720640806451613
637,1747666251730,1.5909091229508197,1.0885353540983607,1.2815205639344263,3.9605097868852464,0.18434111344262294,-3.7309346508196723
638,1747666251740,1.5797301388429752,1.002228160247934,1.2844490628099174,3.691620211570248,0.720094012892562,-3.9796760190082647
639,1747666251750,1.5075416,0.8878802566666667,1.3521584666666668,3.648698233333333,1.278541,-4.0964624
640,1747666251760,1.4369986940677966,0.8148492351694915,1.389506866101695,3.760931762711864,1.4683130423728814,-4.113680469491525
641,1747666251770,1.3652148440677965,0.7458513959322034,1.3845491627118642,3.9779441694915256,1.4152195033898303,-4.085849737288136
642,1747666251780,1.343287145967742,0.6987142720967742,1.3601015274193546,4.198614846774194,1.2755703911290321,-4.059702116129032
643,1747666251790,1.3829335307692305,0.6430608646153846,1.2745983923076922,4.409263022307692,1.0263241127692309,-4.090452554615385
644,1747666251800,1.412264736936937,0.6173791081081081,1.2253807270270272,4.541579533333333,0.8273151533333333,-4.195015433333333
645,1747666251810,1.4268658,0.5990295843902439,1.193267363414634,4.549173117073171,0.8397758195121952,-4.269337414634146
646,1747666251820,1.4359323974789915,0.5597873453781512,1.1332869781512604,4.538056239495798,0.9318107991596638,-4.350012699159664
647,1747666251830,1.27867695,0.3605640671875,0.97527569375,4.493257125,1.39506350625,-4.47206809375
648,1747666251840,1.1725069016949152,0.2751042149152542,0.9554489761016949,4.548812915254237,1.5503552627118644,-4.477517908474576
649,1747666251850,1.00854178359375,0.18436427749999998,0.956414592890625,4.76890073125,1.5083837578125,-4.423652217968749
650,1747666251860,0.9794017,0.17059602,0.95597225,4.8563786,1.4691309,-4.401895
651,1747666251870,0.9171871098360657,0.14579018393442622,0.9143624959016393,4.893501147540984,1.440820813114754,-4.3886763
652,1747666251880,0.9034999,0.1403329,0.90520835,5.06224,1.3121386,-4.3285913
653,1747666251890,0.8654910842372882,0.11649595921186441,0.7670677995762712,5.099057597457627,1.1761020008474576,-4.279297551694915
654,1747666251900,0.7537533467226891,0.04709484670588235,0.37724686092436976,5.18646133697479,0.7824773094117647,-4.148180583193278
655,1747666251910,0.6816971656451613,0.019991044677419353,0.2606432958870967,5.003202967741935,0.7068351183064516,-4.195939828225806
656,1747666251920,0.5385855199999999,-0.030580373400000003,0.09469420499999999,4.6254663375,0.575078713,-4.212867918333333
657,1747666251930,0.48539962479338844,-0.039462645173553725,0.056530514925619835,4.306190884297521,0.48053386859504127,-4.229923864462809
658,1747666251940,0.41761654000000004,-0.044426553275,0.05515490201666667,4.2485676,0.4642576,-4.234518
659,1747666251950,0.36234764146341464,-0.054067608317073176,0.05274612697560976,3.894062349593496,0.36319168195121954,-4.249461817886179
660,1747666251960,0.32628235454545457,-0.07949610181818181,0.046304317,3.4019640198347108,0.2526003631404959,-4.236552509917355
661,1747666251970,0.29822623744,-0.11619272688,0.055197941912,3.157875152,0.22852224464000004,-4.21219446
662,1747666251980,0.27814580139534884,-0.14644002790697674,0.08559598720930232,2.9849859674418604,0.1839698734883721,-4.198093304651163
663,1747666251990,0.2630937,-0.17108414,0.11983211,2.8759537,0.13744467,-4.1899247
664,1747666252000,0.23972278079999998,-0.21274763552,0.29866359391999997,2.8679928976,-0.24679933248,-4.1062850719999995
665,1747666252010,0.2362474,-0.2323425,0.37291947,2.91566,-0.44959682000000006,-4.047593
666,1747666252020,0.284363295,-0.3161720883333333,0.32275350841666667,3.0904793733333333,-0.5564625876666667,-3.8460890974999997
667,1747666252030,0.3154091088095238,-0.4522496778571428,0.15409890833333334,3.174143119047619,-0.5241514819047618,-3.6553013333333335
668,1747666252040,0.29210504701612905,-0.5024075816935484,0.005526715967741935,2.9746773483870963,-0.03452374158064516,-3.3789321677419353
669,1747666252050,0.26791628512,-0.56085136976,-0.11344755712000001,2.82464088,0.23713788759999999,-3.23905188
670,1747666252060,0.25081496336134457,-0.6091504843697478,-0.1640208130252101,2.7476717999999996,0.36468655,-3.1740558
671,1747666252070,0.2326475778333333,-0.8933186750000001,-0.33065282166666665,2.5550813108333332,0.8853219041666667,-2.7450909625
672,1747666252080,0.24994646,-1.2009207652173912,-0.5587637521739129,2.5932610773913045,1.3155700391304348,-2.382018605217391
673,1747666252090,0.25211114,-1.2400548,-0.5930591,2.6083946,1.3292428,-2.3701572
674,1747666252100,0.25101930157894736,-1.4643178157894736,-0.8817402694736842,2.6863281491228066,1.3487262315789474,-2.392346545614035
675,1747666252110,-0.10505502849206348,-1.9183655587301587,-1.6896587415873017,2.1779381619047617,1.2785991476190475,-2.5236879523809526
676,1747666252120,-0.3518329193333333,-2.0433530633333334,-1.9411784683333333,1.6714901616666669,1.21340233,-2.3430245716666667
677,1747666252130,-0.5945407628346456,-2.120632431496063,-2.041437004724409,1.1833277157480313,1.1191484496062991,-1.9523494338582679
678,1747666252140,-0.6870655277685951,-2.1357206132231403,-2.0397558429752065,0.943352632231405,1.0489515586776859,-1.6502348016528927
679,1747666252150,-0.9715418378688524,-2.1078342770491805,-1.9940237606557376,0.4156287262295082,0.7860784203278688,-0.5753799794262295
680,1747666252160,-1.03746288,-2.0783995066666665,-1.9806466233333333,0.27765862933333335,0.6760038486666667,-0.2532647318666667
681,1747666252170,-1.096857612,-1.9920186008,-1.9475005928,-0.08853147072,0.39640268271999995,0.47476447702400004
682,1747666252180,-1.029540228125,-1.780122975,-1.694847925,-0.39187004625,0.26374107062499996,0.945008525
683,1747666252190,-0.8930154632786885,-1.6563525163934427,-1.5624805475409838,-0.6868779049180328,0.21285649647540983,1.3776212549180327
684,1747666252200,-0.7194040100000001,-1.4320531298387096,-1.3740719,-1.146357570967742,0.21817742516129032,2.067719809677419
685,1747666252210,-0.6312900813934426,-1.2680113909836066,-1.2751490975409836,-1.3023496524590163,0.22296582,2.2748622040983606
686,1747666252220,-0.47804103675,-0.957747795,-1.1131878475,-1.5628986900000001,0.21355849200000002,2.5336246
687,1747666252230,-0.40872561152000003,-0.74141861392,-0.99881112048,-1.8620443232,0.14966198256,2.792069628
688,1747666252240,-0.35667611682539685,-0.6355289679365079,-0.9253294739682539,-2.2154240920634924,-0.023755870476190488,3.1280374301587304
689,1747666252250,-0.22975549480000002,-0.4848441324,-0.782798994,-2.6000917136,-0.27191810616,3.508052596
690,1747666252260,-0.13948071778688526,-0.41462525770491804,-0.6924624503278689,-2.727483168852459,-0.38421420852459015,3.6389743967213115
691,1747666252270,0.0003306585483870992,-0.32795783467741935,-0.5630755046774193,-2.9088023612903227,-0.6084415303225806,3.835406135483871
692,1747666252280,0.3254910117054264,-0.11729504496124031,-0.3104654141860465,-3.0205202658914727,-0.7317123863565892,3.847797580620155
693,1747666252290,0.4498565505645161,0.0017851613064516106,-0.21164881395161292,-3.075465152419355,-0.6621089282258065,3.715218287903226
694,1747666252300,0.4585520690322581,0.14193897787096774,-0.13392445096774191,-3.300834909677419,-0.3036147970967742,3.3222201911290323
695,1747666252310,0.4087751992372881,0.20419112220338984,-0.0866175720338983,-3.5297864084745765,-0.022539890000000003,3.073977444915254
696,1747666252320,0.31784588195121954,0.21193097487804877,-0.04047183185365853,-3.800137975609756,0.26143047203252034,2.9096008276422762
697,1747666252330,0.2774833392,0.20381708399999998,-0.018021185119999998,-3.946922424,0.41318926,2.848904456
698,1747666252340,0.17763300833333334,0.18759867,0.07012578500000001,-4.197000583333334,0.6720535941666667,2.7750080416666667
699,1747666252350,0.14858206,0.196807758,0.13906382199999998,-4.360121472,0.64175547232,2.7861758688
700,1747666252360,0.1578127557983193,0.20644371487394955,0.17080110722689076,-4.428162,0.5742133,2.8038714
701,1747666252370,0.18353106,0.21599068,0.22184804,-4.46407393495935,0.28072981691056914,2.8475359772357725
702,1747666252380,0.229291785,0.22399878625,0.269439205625,-4.471534,-0.16982053,2.878397
703,1747666252390,0.2594404853125,0.2721162015625,0.31151237859375003,-4.4309971796875,-0.55779629921875,2.7979060125
704,1747666252400,0.26471424848,0.30044422895999995,0.3373730224,-4.3700272920000005,-1.0856394512000003,2.618965176
705,1747666252410,0.24807348701754386,0.3066472210526316,0.34411215087719305,-4.359852375438597,-1.1602796052631579,2.508416285964912
706,1747666252420,0.23198454766666668,0.3065440283333334,0.34922150933333335,-4.3585234,-1.1496484,2.4642303
707,1747666252430,0.200371,0.2997023,0.36266908,-4.359134,-1.0323622,2.4416285
708,1747666252440,0.18792409,0.25748038,0.35193056,-4.536896,-0.5833763,2.71102
709,1747666252450,0.2998777265625,0.24355006968749998,0.37201187625000004,-4.6406286875,-0.537714125,2.7914251625
710,1747666252460,0.34344745896551726,0.324394155862069,0.46911168275862064,-4.7176489896551725,-0.5355813562068965,2.851561068965517
711,1747666252470,0.35576891429752067,0.41662991487603307,0.5848216900826446,-4.6328475,-0.6760662714049587,2.9519936752066114
712,1747666252480,0.38761803,0.4671649387096774,0.6756134677419355,-4.490903991935484,-0.8695469432258065,3.0295467887096774
713,1747666252490,0.4345157876923077,0.47972270846153847,0.7089299961538462,-4.3054385538461535,-1.1484132252747252,3.0827414813186813
714,1747666252500,0.48998911077586205,0.4198605234482759,0.6299201900862069,-4.163194086206897,-1.4031364637931034,3.132559098275862
715,1747666252510,0.5188657,0.38170552,0.5784157,-4.103182,-1.5473217,3.1606169
716,1747666252520,0.5188657,0.38170552,0.5784157,-4.1346851875,-1.5545757303571428,3.1848660571428566
717,1747666252530,0.5883740222222222,0.24481652923076921,0.5047729610256411,-4.7356312076923075,-1.3695024350427352,3.5684502205128203
718,1747666252540,0.6390726743999999,0.26458342656,0.6266550416,-4.9252356520000005,-1.23595136,3.7024298
719,1747666252550,0.7890986226890756,0.39363767596638655,1.033824506722689,-4.699047512605042,-1.07705813697479,3.8753086630252103
720,1747666252560,0.8069220897435898,0.4196783538461538,1.0948971923076922,-4.486413692307692,-1.1042094410256411,3.8958793384615387
721,1747666252570,0.817043695338983,0.42158820211864406,1.0857549135593219,-4.0546129830508475,-1.2348899355932201,3.922593522033898
722,1747666252580,0.8786635529411765,0.31829371588235295,0.9108360329411764,-3.819776305042017,-1.2894851487394958,3.982292201680672
723,1747666252590,0.9211114532258063,0.2577047772580645,0.8255629987096774,-3.763639305645161,-1.2798808612903225,4.035676487903226
724,1747666252600,0.9942758796875,0.22503221445312502,0.82559224921875,-3.8863246796875,-1.2259970132812499,4.086216058593751
725,1747666252610,1.075294038842975,0.23485770537190082,0.8874143723140495,-4.125450818181818,-1.3602858181818183,4.102626618181818
726,1747666252620,1.189417006451613,0.2939275869354838,1.0741432459677418,-4.239670919354839,-1.6395129887096773,4.151430420967741
727,1747666252630,1.3715980592307693,0.41979535107692306,1.4425998892307694,-4.10026376923077,-2.3562152753846153,4.1758371315384615
728,1747666252640,1.7929171531531531,0.7176448302702704,2.3047556198198196,-3.866166,-3.286455,4.191757
729,1747666252650,1.9745101472868216,0.8755393045736434,2.634520353488372,-2.598180306976744,-4.196502344186047,3.8473003116279068
730,1747666252660,2.0471137204724412,0.9616028622047245,2.754495418897638,-2.0646956744094487,-4.2493182740157485,3.681352845669291
731,1747666252670,2.077104312389381,1.1731140398230087,2.688495902654867,-0.8676340572566372,-3.6612938690265486,3.29015270619469
732,1747666252680,2.0281580771653545,1.5654754417322834,1.9237149732283465,0.893296623464567,-0.44171329527559056,2.796974034645669
733,1747666252690,1.9716080697674416,1.8845419558139536,1.4616815953488371,0.9904825027906976,0.3760325294573643,2.7606469364341084
734,1747666252700,1.9995416,2.271431008,1.05578188,0.6896473356799999,1.29024998832,2.5696901728
735,1747666252710,2.0380341,2.434763096721311,0.8999270614754098,0.2665575657377049,1.3716678663934425,2.2218220147540984
736,1747666252720,2.14556166446281,2.6828064429752065,0.7874375768595042,-0.12541416727272728,1.1514810710743801,1.67218042892562
737,1747666252730,2.153073,2.7178216,0.7819594,-0.2003638,1.1038336,1.5522085
738,1747666252740,2.1664235531914895,2.7921602808510637,0.8030002697872339,-0.2905899017021277,1.0419931863829786,1.2362482574468086
739,1747666252750,2.1257852696629214,2.869912940449438,0.8125323988764045,-0.2625691006741573,1.2140157325842695,-0.04875939550561798
740,1747666252760,2.0554026854368934,2.8885809194174756,0.7922856519417477,-0.17320697980582522,1.4443226466019417,-0.9985452368932038
741,1747666252770,1.9246354,2.8159325,0.68580085,-0.1441642,1.6481144,-1.4514158
742,1747666252780,1.7700358416,2.7058294520000006,0.6338537692,-0.1850872808,1.7532712336,-1.8637546976
743,1747666252790,1.4087066394957983,2.335076251260504,0.947093868067227,-0.016293161663865546,1.1709876647058823,-2.547626327731092
744,1747666252800,1.2569893508064516,2.1138311499999998,1.2350753161290324,0.39156463350000004,0.6918049000000001,-2.7517952
745,1747666252810,1.2278096304347825,2.0167937304347827,1.356045739130435,0.7483630504347826,0.4241157622608695,-2.7869371973913046
746,1747666252820,1.227521244628099,1.8329003132231405,1.4545670479338841,1.1006478988429753,0.20943085004132234,-2.809843770247934
747,1747666252830,1.2525478732283464,1.5586629897637796,1.4747898566929134,2.0157206078740155,-0.07193779841732284,-2.9055781023622047
748,1747666252840,1.2962640245901638,1.34972451147541,1.496402995081967,2.569855012295082,-0.09762327715573771,-3.019902468852459
749,1747666252850,1.326929231967213,1.2389465672131148,1.5345379885245902,2.779056345901639,-0.08049401481967214,-3.082125644262295
750,1747666252860,1.3453625951219512,1.006859175203252,1.5949061699186993,3.6947415170731706,-0.08043059082926829,-3.317475154471545
751,1747666252870,1.3421142533898303,0.9193967548305084,1.5922976822033899,4.157988822033898,-0.1284577155084746,-3.4384258881355936
752,1747666252880,1.3348894692913384,0.8362055062204724,1.5345761559055118,4.319428,-0.15454891,-3.4831536
753,1747666252890,1.2286605786259541,0.7216679633587787,1.4087357465648855,4.724432145038168,-0.3389696007633588,-3.60772820610687
754,1747666252900,1.1785524377952756,0.7111097988976378,1.2117116031496065,4.799236620472441,-0.39936158346456696,-3.6110794409448816
755,1747666252910,1.169317612903226,0.7027667903225806,1.0197026567741936,4.685173914516129,-0.3508632708064516,-3.574640597580645
756,1747666252920,1.202226,0.6919023,0.93278676,4.48943196,-0.20315341786666666,-3.569916956666667
757,1747666252930,1.2482008679245282,0.6648441490566038,0.841794873962264,4.1404448,0.08796459399999998,-3.6236527
758,1747666252940,1.2635408776859505,0.6205911789256198,0.8885237096694215,3.6174379438016526,0.5179177976528926,-3.873168323140496
759,1747666252950,1.244447983064516,0.5932933278225806,0.9768155088709677,3.43123,0.66523224,-3.9822304
760,1747666252960,1.1935868991525422,0.5798924288135594,1.079676109322034,3.4903700576271186,0.6169635620338982,-4.068331538983052
761,1747666252970,1.0949018,0.5357666625,1.162566675,3.819669185,0.393448128,-4.139956316666667
762,1747666252980,1.0329583090163934,0.4326474823770492,1.0039194377049179,4.521213841803278,0.026903106352459016,-4.123575614754098
763,1747666252990,1.0076528552845527,0.41110550902439025,0.913680871707317,4.7266715121951215,-0.06307804528455285,-4.091947902439024
764,1747666253000,0.9640909243362832,0.4116662704424779,0.7343423550442478,4.77223604778761,-0.09718163345132744,-4.052128785840708
765,1747666253010,0.9448850742857143,0.42615882857142856,0.6345139814285714,4.685642,-0.101709065,-4.0042217
766,1747666253020,0.9067815912396695,0.4541945636363636,0.5147611162809917,4.473366318181818,-0.06508491654545454,-3.9940034545454544
767,1747666253030,0.8284188844354838,0.45113391419354837,0.4984633080645161,4.07560422983871,-0.06085005571774193,-4.054490169354839
768,1747666253040,0.7428015682352941,0.4498754524369748,0.575868461512605,4.050472966386555,-0.10047963235294118,-4.070133700840336
769,1747666253050,0.6799923010400001,0.46169382752,0.64740580832,4.195887,-0.208867046,-4.085882208
770,1747666253060,0.6057860811475411,0.4554988360655738,0.5970400714754098,4.442532625409836,-0.33061829467213116,-4.10041806557377
771,1747666253070,0.5240626705882353,0.4440119188235294,0.43335953470588234,4.77541091092437,-0.515919323697479,-4.12199016722689
772,1747666253080,0.48839456393442626,0.42152687114754095,0.2926966532786885,4.661763127049181,-0.5340714303278689,-4.1261293090163935
773,1747666253090,0.46787590776859506,0.3828209294214876,0.1979546317355372,4.457857351239669,-0.5248341793388429,-4.138667517355372
774,1747666253100,0.4407674,0.3116611,0.06613952,3.9327505,-0.48808134,-4.174042
775,1747666253110,0.4358449247580645,0.27954986814516125,0.05527896512096774,3.4821388846774197,-0.45883369572580646,-4.21904409032258
776,1747666253120,0.41224640747967484,0.23416201008130083,0.05723638178861789,3.0965703983739834,-0.41748914154471545,-4.307930798373984
777,1747666253130,0.3925660696031746,0.19145321920634922,0.07608774936507937,2.7975107444444447,-0.3821495361904762,-4.448378944444445
778,1747666253140,0.3310606912195122,0.1036231347804878,0.12844554365853658,2.4677763959349592,-0.34376317967479675,-4.758431885365853
779,1747666253150,0.2748738154330708,0.03382210779527559,0.13767518401574805,2.2406585275590554,-0.2595888716535433,-4.919903874015748
780,1747666253160,0.24284948051282051,-0.010544524205128206,0.13572086051282053,2.145254336752137,-0.18665849350427352,-4.92090055982906
781,1747666253170,0.15530916,-0.17017446345454545,0.12963876545454545,1.968833849586777,-0.018633915471074382,-4.857206698347108
782,1747666253180,0.10374721218750001,-0.3035290290625,0.153885708984375,1.826181678125,0.33874386293750003,-4.5790457671875
783,1747666253190,0.06108265032000001,-0.45192178448,0.21494413952000002,1.84285832,0.49761082799999995,-4.368297180000001
784,1747666253200,0.04315201377165354,-0.5476049043307086,0.247406781496063,2.034445916535433,0.5733042503937008,-4.0608059527559055
785,1747666253210,0.019116484721311475,-0.7246460046721311,0.2560140529508197,2.432245033606557,0.5874370368852458,-3.6878986598360655
786,1747666253220,-0.07489043047999999,-1.14037405536,-0.07230145952,3.2202079439999998,0.5463090119999999,-3.326801468
787,1747666253230,-0.22148879774400002,-1.4185680592,-0.41553576704,3.6362804688,0.44239348944,-3.1346867287999998
788,1747666253240,-0.3143618872727273,-1.5548080388429752,-0.6187254740495868,3.7528179355371902,0.2766563294214876,-2.963958567768595
789,1747666253250,-0.41060080046511627,-1.725865023255814,-0.9044421372093022,3.6975532255813954,0.07203948218604651,-2.7205949209302323
790,1747666253260,-0.5696562924369748,-1.9417646638655464,-1.4051667756302522,3.1793329361344536,0.09553624257142858,-2.2193504705882354
791,1747666253270,-0.6676430266666666,-2.0717450499999996,-1.7162838166666667,2.611199550833333,0.24175500625000002,-1.7859307375
792,1747666253280,-0.74066228046875,-2.174937,-1.9173900640625,1.734609165625,0.540219616015625,-1.2458930484375002
793,1747666253290,-0.7664484714285714,-2.2025592773109244,-1.8895753109243698,1.155669785714286,0.7150613971428571,-0.9133308000000001
794,1747666253300,-0.790158645038168,-2.2158814488549616,-1.799258893129771,0.37048744484732826,0.7832458212213741,-0.4327304194656489
795,1747666253310,-0.8437957239999999,-2.1954472496,-1.6548702032,-0.21904649748,0.57383703952,0.04785762456
796,1747666253320,-0.8682044867256637,-2.1598958309734515,-1.5833873123893807,-0.3644919362831858,0.3728656673451327,0.2876634653982301
797,1747666253330,-0.9048470598425198,-1.9582710401574803,-1.3760370385826772,-0.5104572716535434,-0.18666983157480316,1.0752767028346457
798,1747666253340,-0.9034511712,-1.803299892,-1.2518184920000002,-0.54291261,-0.43801481360000005,1.5426790160000001
799,1747666253350,-0.896118236885246,-1.7475558450819673,-1.216311375409836,-0.5618257959016394,-0.5099623206557377,1.7416769081967214
800,1747666253360,-0.8500748357600001,-1.5635361104,-1.1043219904,-0.6234734935999999,-0.6402014299200001,2.2025846311999997
801,1747666253370,-0.6921815472033899,-1.2989078762711865,-0.9452254535593221,-0.7296008677966102,-0.6967280477966101,2.6611153932203386
802,1747666253380,-0.5349696656692914,-1.105348813385827,-0.8415554851181102,-1.0519772047244094,-0.4983938874015748,3.292198242519685
803,1747666253390,-0.3888761695238095,-0.926301880952381,-0.7612610142857142,-1.316986623809524,-0.21228051936507936,3.557572434920635
804,1747666253400,-0.2939160507086614,-0.8079620818897638,-0.7162657139370079,-1.468332457480315,-0.03465578157480314,3.6477985566929134
805,1747666253410,-0.18323005416666666,-0.6577098266666667,-0.6650722578333333,-1.7945694325000001,0.3468798151666667,3.7683259325
806,1747666253420,-0.04619104513157894,-0.427960787368421,-0.5218329194736843,-2.0858477263157895,0.6640105084210526,3.823244768421053
807,1747666253430,0.053692599939024394,-0.27169525170731706,-0.3864140529268293,-2.4945453463414635,1.005186137398374,3.8832157512195127
808,1747666253440,0.08758346508474575,-0.20047028288135593,-0.30164235,-2.617112457627119,1.082825859322034,3.9082123491525422
809,1747666253450,0.10719714983606557,0.027874540557377047,-0.03417201563934426,-2.5762490032786887,0.8959891065573771,3.991774185245902
810,1747666253460,0.10980508245762712,0.11538323850847457,0.05919836106779661,-2.3909679559322035,0.636573363220339,4.076065762711865
811,1747666253470,0.1439857706557377,0.23316670049180327,0.15869322754098358,-1.8084616032786884,-0.06752565032786885,4.315512393442623
812,1747666253480,0.1695154639516129,0.2537053870967742,0.17052319862903226,-1.6403407016129032,-0.2271433502419355,4.372090338709678
813,1747666253490,0.29330799371428573,0.224748832,0.13437094645714287,-1.34055252,-0.45106289142857137,4.439942971428571
814,1747666253500,0.29330799371428573,0.224748832,0.13437094645714287,-1.34055252,-0.45106289142857137,4.439942971428571
815,1747666253510,0.34766169964912286,0.2097907357894737,0.04160105764912281,-1.0657455303508774,-0.15490256526315788,4.096676666666667
816,1747666253520,0.34766169964912286,0.2097907357894737,0.04160105764912281,-1.0657455303508774,-0.15490256526315788,4.096676666666667
817,1747666253530,0.318586237,0.2492617725,0.00503368081,-1.2468675675,0.040622539275,4.093545445
818,1747666253540,0.3006360817391304,0.2676352956521739,-0.00849955916521739,-1.6218365869565219,0.26795204997391303,4.170185857391305
819,1747666253550,0.27834044144000003,0.29403235128,-0.022978479135999996,-2.0483484688,0.49751308256,4.263018519999999
820,1747666253560,0.2593848196721311,0.32466015114754093,-0.03273968209836065,-2.312125,0.61758476,4.3224826
821,1747666253570,0.280314643902439,0.3453112512195122,0.007625301463414634,-2.858059702439024,0.8535376686178862,4.485906508943089
822,1747666253580,0.47676586249999997,0.30873243,0.059183882,-3.5526492046875,1.16479594125,4.5632827765625
823,1747666253590,0.53765815,0.29726174,0.07175283,-3.7458258,1.2583824,4.5680504
824,1747666253600,0.6303037755905512,0.29029552149606297,0.1069009142519685,-4.049661533858267,1.4822476488188974,4.358614962204724
825,1747666253610,0.7279347685245902,0.28661523983606557,0.1901565949180328,-4.382647719672131,1.6787678606557377,4.06975441147541
826,1747666253620,0.67362137536,0.32561142064,0.21927666744000002,-4.6384999384,1.7385078464,3.8178345503999997
827,1747666253630,0.609349945,0.3470494,0.1892664,-5.096329346875,1.731850690625,3.6586152328125
828,1747666253640,0.5705550383333333,0.35993359583333334,0.18091760375000002,-5.3581536,1.7274454641666666,3.6429865791666667
829,1747666253650,0.512005401875,0.375436315625,0.28103953375,-5.9621733671875,1.58044681484375,3.9552140234375
830,1747666253660,0.5400658583193277,0.36408624588235294,0.33980766445378147,-6.114160208403362,1.4600706226890758,4.105599537815126
831,1747666253670,0.6880152154471545,0.32046107040650407,0.45228767154471544,-6.22978731707317,1.18112537398374,4.293816577235772
832,1747666253680,0.841147092578125,0.295927035546875,0.510054840546875,-6.255240859375,0.99343871875,4.281573671875
833,1747666253690,1.2047219285714286,0.2685204115966387,0.7375369123529413,-6.148476399159664,0.2513582151260504,3.527962455462185
834,1747666253700,1.2112561,0.26821893,0.74242216,-6.145304,0.23640485,3.5094209
835,1747666253710,1.1782209491666664,0.31525687675,0.75192614925,-6.078928565833333,0.037425678225,3.1563508441666666
836,1747666253720,0.9692593159836066,0.42625598704918033,0.7715990097540985,-6.020312298360656,-0.32378361155737706,2.7699684655737706
837,1747666253730,0.8638844840000001,0.4792015336,0.8861523772000001,-5.9132731960000005,-0.589998076,3.0481443280000002
838,1747666253740,0.9227622519008265,0.48501840710743804,1.051287653305785,-5.729491929752066,-0.7460330553719008,3.4048871950413226
839,1747666253750,0.9404125432786885,0.4822131195081967,1.0728316081967215,-5.583368502459017,-0.816977188032787,3.6160268311475408
840,1747666253760,1.04066,0.46248847,1.1805049,-5.400659600000001,-0.88025683,3.839288
841,1747666253770,1.3350152760330578,0.5603897216528926,1.3005346785123968,-4.559568740495868,-0.6373697249586777,4.006902410743802
842,1747666253780,1.7245904734375,0.786091221015625,1.410683328125,-3.8640089,-0.4167055496875,3.844766809375
843,1747666253790,1.804706549586777,0.9888816140495867,1.410328173553719,-3.6056749520661158,-0.3863041197520661,3.4623892132231404
844,1747666253800,1.812049081147541,1.0603366868852457,1.408208318032787,-3.488135624590164,-0.44210121122950824,3.233374805737705
845,1747666253810,1.761296634710744,1.2641217578512396,1.4195761553719008,-3.408340260330579,-0.6036812798347108,3.029896723140496
846,1747666253820,1.87357107107438,1.5221507958677685,1.5881308603305786,-3.321991309090909,-1.0602550449586778,2.9028669834710747
847,1747666253830,1.995128952,1.642388132,1.711192732,-3.1639741344,-1.1897651024,2.7997323296
848,1747666253840,2.150025180487805,1.8302925170731708,1.8633473024390244,-2.761701830894309,-1.1138307560975609,2.5539432536585362
849,1747666253850,2.2045806000000003,1.9154582285714286,1.913625711111111,-2.548267915873016,-1.0385580896825397,2.4047826142857143
850,1747666253860,2.402712025,2.284560896774194,2.014298937096774,-1.5511149338709678,-0.4844851041935484,1.4333657129032258
851,1747666253870,2.4278329314049585,2.3907828743801653,1.9617644561983472,-1.1010719669421487,0.15967311181818183,0.46141530495867766
852,1747666253880,2.255480474725275,2.451292230769231,1.8636935703296704,-0.8450481384615385,0.7874858589010989,-0.44305180879120876
853,1747666253890,1.8711993491525423,2.438177305084746,1.750738445762712,-0.8090340616101694,1.1513204944067799,-0.9211847669491524
854,1747666253900,1.7080976693548389,2.413171016129032,1.7252918499999998,-0.7895975207258065,1.6394834612903226,-1.537927154032258
855,1747666253910,1.5231613170731706,2.328615568292683,1.7578432219512194,-0.7236667276422764,1.8449222983739837,-1.775690943089431
856,1747666253920,1.3806567084745762,2.1959856491525422,1.8412589271186441,-0.4971925430508475,1.9170608457627119,-1.9344342762711866
857,1747666253930,1.1716321911290324,1.806190843548387,2.1935215161290325,0.9272048277419355,1.3715009338709678,-2.292656068548387
858,1747666253940,1.156021212605042,1.696741344537815,2.2674661554621847,1.522317294117647,1.0616324974789917,-2.3415133109243698
859,1747666253950,1.1546309463999997,1.5622709768,2.3080630464,2.2190437776,0.69304862016,-2.371867608
860,1747666253960,1.1690093999999998,1.3418722254237287,2.246377461016949,3.3743264440677967,0.12571399810169492,-2.407181805084746
861,1747666253970,1.2379875907563025,1.1615750983193278,1.9652658907563028,4.410637102521008,-0.2929381179831933,-2.5174014226890757
862,1747666253980,1.315410519047619,1.0422928785714285,1.7099405714285714,4.7375507880952386,-0.4138466504761905,-2.635490911904762
863,1747666253990,1.3845133848,0.97629141664,1.523221832,4.724431908800001,-0.36782885103999996,-2.7700002736
864,1747666254000,1.4529085536585364,0.9338582400000001,1.4081091463414634,4.601588458536586,-0.23986146243902437,-2.8954168983739836
865,1747666254010,1.5187683,0.9005712,1.3259629999999998,4.4892488,-0.12461651,-2.987742
866,1747666254020,1.5625641288135594,0.7806046975423728,1.233002093220339,3.8658141576271183,0.7312885350847457,-3.497752218644068
867,1747666254030,1.5522119384,0.7043746248799999,1.2164419088,3.6741150031999994,1.0407238184,-3.6626209199999997
868,1747666254040,1.4492525833333334,0.5607622250000001,1.2868732166666668,3.6530351983333333,1.3229916033333333,-3.8018320333333335
869,1747666254050,1.4004701761904763,0.5020897023809524,1.2767855285714285,3.8614827428571425,1.3425945214285713,-3.824772857142857
870,1747666254060,1.3122022183333333,0.4064610985,1.1769376133333334,4.26536659,1.34591935,-3.86854844
871,1747666254070,1.2408014058823529,0.3652531888235294,1.0280266176470587,4.453094957983193,1.3190069420168067,-3.9113598394957982
872,1747666254080,1.1899680258064516,0.3580162261290323,0.9197888529032258,4.521072903225806,1.261614093548387,-3.9473914999999997
873,1747666254090,1.1819097672268908,0.35673990655462184,0.9013978228571429,4.522815507563025,0.9276887346218486,-4.053974015126051
874,1747666254100,1.1641531,0.30970863,0.79269797,4.5210137,0.83260936,-4.0836344
875,1747666254110,1.0844878983193278,0.2722755844537815,0.8613252081512605,4.75321945210084,0.3387992209243697,-4.174812271428571
876,1747666254120,1.0021347951219512,0.24878957170731708,0.8937078853658537,5.168058891056909,-0.20698895341463416,-4.204526104878049
877,1747666254130,0.89726887734375,0.2167114034375,0.77230009515625,5.58273566875,-0.456583603125,-4.141208225
878,1747666254140,0.8462803000000001,0.20809422838709676,0.5353907364516128,5.810924649193549,-0.5283245580645162,-4.051016729032258
879,1747666254150,0.8459024,0.208913,0.52496713,5.825211,-0.5222898,-4.0353756
880,1747666254160,0.8394789487394958,0.23068127,0.42522565831932774,5.728298848739495,-0.4517271559663866,-3.967939414285714
881,1747666254170,0.8223929056557377,0.2531993750819672,0.32548433532786886,5.454991438524591,-0.3404021701639344,-3.879394894262295
882,1747666254180,0.8149833984375,0.23302128656249999,0.19021972875,4.772193875,-0.165544475625,-4.0514874249999995
883,1747666254190,0.7901405846153847,0.21319129196581194,0.15434221324786326,4.5759287179487185,-0.1707446711965812,-4.245299607692307
884,1747666254200,0.7824995799180329,0.20804478819672131,0.16109778713114753,4.460267595081968,-0.23103724016393443,-4.35292575409836
885,1747666254210,0.7691644168032786,0.19522578401639343,0.19374343967213115,4.316318748360656,-0.3820010656557377,-4.4914968237704915
886,1747666254220,0.632713456097561,0.1523532244715447,0.169669392601626,4.226740357723577,-0.5936567505691056,-4.649950875609757
887,1747666254230,0.523189019047619,0.11955318499999999,0.08588490634920634,4.104811,-0.7029022799999999,-4.817079499999999
888,1747666254240,0.44369607647058823,0.0973214144117647,0.01823251176470588,3.885677894117647,-0.740117134117647,-4.9073679529411764
889,1747666254250,0.29187460853658537,0.05845071756097561,-0.09773798211382113,3.4941491455284552,-0.6320766765853658,-4.859164853658537
890,1747666254260,0.1348124703539823,0.019848550123893804,-0.19197154654867254,2.9022368876106195,-0.41135017787610617,-4.756537346902655
891,1747666254270,0.08480687033057852,0.012656688214876033,-0.1935051176033058,2.688650068595041,-0.32469255074380166,-4.6921115289256194
892,1747666254280,0.0684609468503937,-0.009502859657480314,-0.1636836244094488,2.3474398188976378,-0.2578043806299213,-4.568007078740157
893,1747666254290,0.09432202379166667,-0.04192496716250001,-0.12927712808333333,1.9566115916666666,-0.2868928705,-4.385900465000001
894,1747666254300,0.1213161368548387,-0.073327394,-0.09720564241935484,1.8435421048387097,-0.31318175217741934,-4.325965271774193
895,1747666254310,0.13885605487179487,-0.12218506769230768,-0.06554501476923077,1.7494867615384615,-0.32792499846153844,-4.242960461538461
896,1747666254320,0.13162954595041323,-0.1617575067768595,-0.05680684685950413,1.7375329991735537,-0.32688358743801654,-4.227435038016528
897,1747666254330,0.04595361653225806,-0.2740565997580645,-0.04188337274193548,1.641099293548387,-0.1404990048387097,-3.950248819354839
898,1747666254340,-0.033759847396551725,-0.3124185362068965,-0.04455728094827586,1.579692271551724,0.020590370655172417,-3.777201068965517
899,1747666254350,-0.12905668086178862,-0.3446723289430894,-0.069717037398374,1.5318514081300814,0.14655302889430896,-3.6163024089430893
900,1747666254360,-0.296205476557377,-0.4856659475409836,-0.2192594324590164,1.4212931459016394,0.392525988442623,-3.1982701581967214
901,1747666254370,-0.3088836979338843,-0.611895931983471,-0.4066215704132231,1.290329067768595,0.5939780978512398,-2.7742472214876037
902,1747666254380,-0.16180611425196853,-0.797123648503937,-0.6886546032283464,1.0171146669291338,0.9169087493700787,-2.3394840787401576
903,1747666254390,-0.02109967218907563,-0.992431080672269,-0.958012905882353,0.8342109302521009,1.1660699142857143,-2.4934133420168068
904,1747666254400,-0.14595959131640626,-1.1545337046875002,-1.2086763328125,0.6293248446874999,1.3849460703125,-2.9143044921875
905,1747666254410,-0.371644064516129,-1.339598677419355,-1.4809314677419354,0.3763915287096774,1.5494301129032257,-3.1985692741935483
906,1747666254420,-0.596211813114754,-1.4823997016393442,-1.658681093442623,0.08691310704918032,1.6317712606557377,-3.116013680327869
907,1747666254430,-0.9452471803149607,-1.6718401968503935,-1.87047202992126,-0.382704672992126,1.7888347047244098,-2.6261577874015747
908,1747666254440,-1.1283276313043478,-1.675476371304348,-1.877997183478261,-0.6386144747826087,1.8726738173913045,-2.1345543547826087
909,1747666254450,-1.2178151375,-1.60525605,-1.7786587625,-0.871781075,1.7673094624999999,-0.98127865625
910,1747666254460,-1.1641123433333334,-1.5796035999999998,-1.7182362666666668,-0.9152797659999999,1.6711846783333333,-0.50245701675
911,1747666254470,-1.0618690639344264,-1.545286480327869,-1.6420812344262294,-0.7752681045901639,1.1067175426229507,0.10195441549180327
912,1747666254480,-0.9671951171875,-1.483768928125,-1.577601325,-0.73576809,0.7782041187500001,0.2934825771875
913,1747666254490,-0.961535986440678,-1.4285828966101695,-1.5269048762711863,-0.8573493999999999,-0.10873402500000001,0.623082565
914,1747666254500,-0.9651767333333334,-1.3584342714285715,-1.4519430238095237,-1.0229375142857142,-0.7109598952380952,0.8366526952380952
915,1747666254510,-0.9692833590163935,-1.2707800762295083,-1.3011312049180328,-1.2433611213114755,-1.1742532032786885,1.123451268852459
916,1747666254520,-0.9356806599999999,-1.2018075142857143,-1.1387014714285713,-1.4146972226890755,-1.3983680033613446,1.4757990873949578
917,1747666254530,-0.8573088252713179,-1.077569537984496,-0.9246289,-1.7269302906976742,-1.3617086,2.1550947240310077
918,1747666254540,-0.8201081310344828,-1.0243083034482758,-0.8417113965517241,-1.829730996551724,-1.2922327586206896,2.3996471896551728
919,1747666254550,-0.8201081310344828,-1.0243083034482758,-0.8417113965517241,-1.829730996551724,-1.2922327586206896,2.3996471896551728
920,1747666254560,-0.60135704,-0.7678041,-0.5710939,-2.0856882,-0.7594859443181818,3.2102496636363638
921,1747666254570,-0.60135704,-0.7678041,-0.5710939,-2.0856882,-0.7594859443181818,3.2102496636363638
922,1747666254580,-0.377220995,-0.631147284375,-0.4954362203125,-2.1539109,-0.56077427,3.3829718
923,1747666254590,-0.21988105238095235,-0.5044663541666666,-0.428802773452381,-2.442915555952381,-0.047763844666666666,3.6388080452380955
924,1747666254600,0.012279565428571436,-0.3259977314285714,-0.28828041857142855,-2.5622597571428574,0.17165313523809525,3.6547777523809524
925,1747666254610,0.15749827421052634,-0.1897652192982456,-0.1805766696491228,-2.557017592105263,0.30247475263157897,3.4616286842105266
926,1747666254620,0.2151953706896552,-0.10028649215517241,-0.1148710151724138,-2.4740883620689655,0.3209886296551724,3.2414195137931037
927,1747666254630,0.25277068652892565,-0.00037717907438016707,-0.06436656842975207,-2.3203438611570246,0.22711565595041322,3.025731791735537
928,1747666254640,0.28263915,0.07019461894017094,-0.0647064588034188,-2.2202340341880342,0.13400921102564103,2.902915094017094
929,1747666254650,0.29555333,0.097134784,-0.0690682,-2.1838431,0.09590584,2.85946
930,1747666254660,0.26426366804123713,0.12023216422680412,-0.07819393278350514,-2.1940831350515464,0.012040971804123713,2.8873520711340204
931,1747666254670,0.2238005,0.16425052,-0.09396204,-2.296971677419355,-0.033321715322580645,3.024334606451613
932,1747666254680,0.23337860094339624,0.2274981855660377,-0.10297604518867924,-2.62322820754717,-0.004575726245283019,3.341421371698113
933,1747666254690,0.27084253625000004,0.27284074499999994,-0.08226254625,-2.7856600364583333,0.027024424968750002,3.432859075
934,1747666254700,0.28482945150000005,0.2884585582,-0.05558403802,-3.0757065,0.09162979,3.5485163
935,1747666254710,0.29482117,0.30214285999999996,-0.017572122,-3.094192277570093,0.09787545803738318,3.5290256663551403
936,1747666254720,0.2531011841509434,0.340961801509434,0.028913875264150943,-3.127226533962264,0.10384132688679246,3.4659571650943395
937,1747666254730,0.208913,0.3699908,0.05247230499999999,-3.1052143966101697,0.051519750983050845,3.3302301542372885
938,1747666254740,0.1979920063551402,0.38526375962616827,0.05690639303738318,-3.157836553271028,-0.18514355173831776,3.1867527542056076
939,1747666254750,0.17709563714285714,0.4139174164661654,0.06704601278195489,-3.1788371796992485,-0.2388483111278195,3.158687839849624
940,1747666254760,0.17474498347826087,0.3769941760869565,0.09920396391304347,-3.3199941443478265,-0.34883592791304346,3.1560433617391306
941,1747666254770,0.2076927106779661,0.3243231230508475,0.15391532152542373,-3.4361843025423733,-0.3845862725423729,3.3005981652542378
942,1747666254780,0.2638549321428571,0.3047325865873016,0.1627183872222222,-3.6739181095238096,-0.29962939404761907,3.662544419047619
943,1747666254790,0.32695321096491226,0.3089422142982456,0.1736531507894737,-3.7319472473684208,-0.21300977747368421,3.76514839122807
944,1747666254800,0.42148685,0.34607318,0.25772443,-3.8826594,0.054367006,4.053702
945,1747666254810,0.5190937901639344,0.4904310249180328,0.3592082672131148,-3.8999040000000003,0.10322621131147541,4.04507956557377
946,1747666254820,0.55958034,0.5369064064000001,0.38314841584,-3.9427686,0.06291911979999999,3.92761918
947,1747666254830,0.6086560976744186,0.5729272232558139,0.394021923255814,-4.013469790697675,-0.03204911548837209,3.759207939534884
948,1747666254840,0.7559731547619047,0.5849296797619048,0.3612860785714286,-4.496142625396825,-0.23763627031746035,3.1723297936507935
949,1747666254850,0.7966989472440945,0.5692721564566929,0.33216768125984253,-5.001697352755905,-0.2433263794488189,2.8142610472440945
950,1747666254860,0.7825591257142859,0.5260619005714285,0.3599286468571428,-5.504041523809524,-0.042906010714285715,2.691675985714286
951,1747666254870,0.7653179032520325,0.5017678231707317,0.41778432146341465,-5.778293643902439,0.13273654329268295,2.7412802268292684
952,1747666254880,0.7129280190476189,0.5340747517460317,0.8300774230158731,-5.937115507936507,0.23209000714285713,3.039975761904762
953,1747666254890,0.7234216516279071,0.5916325934883722,1.0366644449612403,-5.790235558139535,0.07848908074418605,3.336872674418605
954,1747666254900,0.7695085442276423,0.6380886393495935,1.1346479463414634,-5.620551450406503,-0.10496949407317073,3.4008904016260164
955,1747666254910,0.9727808641025641,0.728417064957265,1.2789996555555556,-5.111020707692308,-0.7747024348717949,3.3786068316239315
956,1747666254920,1.1131023975,0.7357105975,1.221347855,-4.978160029166667,-1.1235797233333331,2.9350904049999995
957,1747666254930,1.1612244,0.7370529,1.1975889,-5.003535775193798,-1.2390951441860465,2.593549153488372
958,1747666254940,1.1463204739495798,0.7542845823529412,1.2232477226890754,-5.12217705882353,-1.2386550588235292,2.3211082352941177
959,1747666254950,1.1124942666666666,0.7804951,1.2895985,-5.179084562601626,-1.2718413390243901,2.2267130406504063
960,1747666254960,1.06140496,0.84394998,1.55669478,-5.1001022790476185,-1.4931059123809525,2.269550657142857
961,1747666254970,1.2105711505376344,0.9137451231182796,1.8922728408602152,-4.529821797849462,-1.7681461440860216,2.2952376258064517
962,1747666254980,1.4263189785123969,1.0063952514876033,2.2156767190082642,-3.4051950165289258,-1.97706286446281,2.113412029752066
963,1747666254990,1.5141897314049588,1.091359376859504,2.2853722305785125,-2.558763027272727,-1.8965195454545456,1.8048745735537188
964,1747666255000,1.4781814105691058,1.285606230894309,2.085211260162602,-1.5671523861788619,-1.5026589926829268,1.1676714048780488
965,1747666255010,1.3457006345454545,1.5168956345454547,1.752650530909091,-1.1310780200000001,-0.9023701239999999,0.47073274400000004
966,1747666255020,1.2495815310344827,1.6313880206896554,1.6371528482758622,-1.335762119827586,-0.5021944284482759,0.21455061706896553
967,1747666255030,1.1639714728000001,1.717547976,1.594209296,-1.4908728104,-0.35760540376,0.1406211788
968,1747666255040,1.0877631,1.7847906,1.585884,-1.6933185,-0.20219639,0.06536258
969,1747666255050,1.0877631,1.7847906,1.585884,-1.6933185,-0.20219639,0.06536258
970,1747666255060,1.0425122696428573,1.9102578535714285,2.026769055357143,-1.7267197035714286,0.07954338357142857,-0.07704537985714285
