id,timestamp,acc_x,acc_y,acc_z,gyro_x,gyro_y,gyro_z
0,1747666094270,0.1527188275,0.8166155325000001,1.346463875,3.809050225,1.9491183250000002,-0.458912525
1,1747666094280,0.47957248,0.7016297557142858,1.5336905714285713,4.001778071428571,2.6463555285714286,-0.73504543
2,1747666094290,0.47444725,0.6823841,1.5763657,4.08791,2.7348437,-0.7984009
3,1747666094300,0.43906107623931623,0.607721301025641,1.6600606940170939,4.360032376068376,2.77360481965812,-0.8124977786324787
4,1747666094310,0.4303031958677686,0.4885602165289256,1.7173279900826446,4.8969583471074385,2.6816933462809915,-0.758780441322314
5,1747666094320,0.4185581770491803,0.3620029087704918,1.615452974590164,5.728233557377049,2.15486221147541,-0.6853006524590163
6,1747666094330,0.3897118,0.2743203385365854,1.3202069390243902,6.443505825203252,1.3756933365853659,-0.5472259902439024
7,1747666094340,0.3968371,0.26919514,1.1827015,6.550308,1.1588113,-0.4868596
8,1747666094350,0.4740583687804878,0.24063053609756097,0.9297350951219512,6.615745130081301,0.8249610772357724,-0.3390202975609756
9,1747666094360,0.64287998392,0.21235129312,0.6947724064,6.3898313288,0.68590880096,-0.414132436
10,1747666094370,0.9752528,0.15692882,0.234539,5.8404827,0.38606682,-0.6096435
11,1747666094380,0.9815129629268292,0.16420886463414633,0.18761850208130082,5.638479963414634,0.3416077543902439,-0.6984275439024391
12,1747666094390,0.99355704,0.19085276,0.027090356,4.7580295,0.09407325,-1.0891726999999998
13,1747666094400,0.92560240359375,0.07400845240625001,0.11392134870312501,3.98448784375,-0.407733477734375,-1.329891840625
14,1747666094410,0.8915332695999999,-0.05645532244800001,0.19383027192,3.5093279704,-0.77536882096,-1.3618629624
15,1747666094420,0.8819478799212598,-0.13597447661417322,0.18387696362204725,3.0972358881889765,-1.041659898110236,-1.150648820472441
16,1747666094430,0.8555600942857143,-0.3295121457142857,0.005648182571428575,2.019782257142857,-1.1881329285714286,-0.50771628
17,1747666094440,0.8463766346341463,-0.35092852382113815,-0.06828443859349594,1.5441630170731706,-1.0652596268292684,-0.2397422604878049
18,1747666094450,0.8576757692,-0.38307225744,-0.13915753952,0.74039306568,-0.825606354,0.19251540575999998
19,1747666094460,0.87958235,-0.39634898,-0.14765464,0.17576394467213116,-0.660820981557377,0.4770507094262295
20,1747666094470,0.96089914140625,-0.414126995625,-0.0369250988125,-0.4711679996875,-0.4877376915625,0.7604508693750001
21,1747666094480,0.9538531841269842,-0.3935093809523809,0.05982114301587301,-1.0841694476190475,-0.26453373,0.9866346371428572
22,1747666094490,0.9235126,-0.3682824,0.05027579,-1.1001683,-0.25411993,0.99204516
23,1747666094500,0.8257502350793652,-0.31628269999999997,-0.014505910865079364,-1.3598732857142857,-0.06387904714285714,1.0913543885714285
24,1747666094510,0.5992874403999999,-0.252150192,-0.136289380512,-1.9706269215999999,0.04932370452,1.500680912
25,1747666094520,0.553559980859375,-0.2348383709375,-0.15575047453125002,-2.1405864328125,-0.06339635644531251,1.63530063046875
26,1747666094530,0.5181212357142858,-0.20408518470588238,-0.15576594529411766,-2.4067064596638654,-0.3695991348739496,1.8417690050420168
27,1747666094540,0.5335933284482759,-0.17203300784482756,-0.07058513913793103,-2.6788863103448275,-0.7969369301724138,2.0453138931034482
28,1747666094550,0.5887414650406504,-0.1670343582113821,0.015121628089430895,-3.0430972024390246,-1.4311181666666666,2.353132292682927
29,1747666094560,0.6505621458064516,-0.16898208322580646,0.0733037743548387,-3.206505518548387,-1.6790370233870968,2.4832853177419354
30,1747666094570,0.68433654,-0.1701079,0.1010397,-3.2662964,-1.7550159,2.5271494
31,1747666094580,0.68433654,-0.1701079,0.1010397,-3.2662964,-1.7550159,2.5271494
32,1747666094590,0.8766980385123967,-0.09768139231404958,0.24193334016528925,-3.602408566942149,-1.8131591247933885,2.628830771900826
33,1747666094600,1.091424,0.022453265,0.44369608,-4.1532726,-1.8185458,2.7776043
34,1747666094610,1.088520895967742,0.09816415173387097,0.6672190461290323,-4.204674098387097,-1.9558574653225806,2.8762639983870972
35,1747666094620,1.0891732333333333,0.22423437,1.088305488888889,-4.080124238095238,-2.4374201571428573,3.1352417365079366
36,1747666094630,1.1094841999999998,0.27529657,1.3994243,-3.7024543,-2.932764,3.3304374
37,1747666094640,1.1334766161290322,0.3211950914516129,1.4336393903225808,-3.3460586427419354,-3.177947552419355,3.45716715
38,1747666094650,1.1375508,0.32898918,1.4394495,-3.281568,-3.2223141,3.4800992
39,1747666094660,1.1660222073170732,0.5924896174796748,1.325718907317073,-2.859951856097561,-3.214208936585366,3.8602362073170733
40,1747666094670,1.2841150870967741,0.9374829403225807,1.232138769354839,-2.871263616129032,-2.9228226903225805,4.14819865
41,1747666094680,1.4054026429752065,1.056961496694215,1.2849170247933885,-2.9287757677685953,-2.6886300214876035,4.0918279157024795
42,1747666094690,1.5185722254098362,1.1860141327868852,1.378285324590164,-2.8882410311475413,-2.3749339098360656,3.8730960524590166
43,1747666094700,1.5448436333333333,1.3295077063492062,1.4544262793650795,-2.7346109746031746,-2.008621938095238,3.4973974126984126
44,1747666094710,1.2947317278688524,1.679533924590164,1.441025995081967,-2.3248428901639344,-1.4228753573770492,2.711520681967213
45,1747666094720,1.1856262661417323,1.8095210732283464,1.4033079874015748,-2.1705485196850396,-1.167613535433071,2.3648229188976377
46,1747666094730,0.9618120296,2.047425548,1.3071490944,-2.078755032,-0.7482512352,1.8319653336000001
47,1747666094740,0.8823214053719008,2.1438271652892564,1.2859658512396694,-2.0940461999999997,-0.634189150209091,1.6832669636363637
48,1747666094750,0.5871552365079366,2.5300756984126984,1.311280880952381,-2.326407552380952,0.12118403048095237,0.684314518095238
49,1747666094760,0.35408875256198347,2.7204354991735538,1.5014503016528926,-2.282475261157025,0.5043626439669421,0.31287407099173553
50,1747666094770,0.2105394064,2.8236545528000003,1.6952373712,-2.0894425216,0.7921553624,0.11304428127999999
51,1747666094780,0.2639996233898305,2.7689783101694916,1.949727854237288,-0.8287370757457627,1.4745873152542373,-0.30927381288135597
52,1747666094790,0.5207754642500001,2.566133675,2.014125085,0.23616049526666666,1.8956371066666666,-0.6925175493333333
53,1747666094800,0.7226336792682927,2.3619622154471545,1.9141113040650406,1.1544061723577235,2.136200829268293,-1.1588212918699188
54,1747666094810,0.8612373508333333,2.149174376666666,1.7287368908333334,1.9259359150000002,2.2794690691666664,-1.6743204808333334
55,1747666094820,0.9374064835714286,1.9121188357142855,1.4787777357142857,2.667386603174603,2.3144132174603174,-2.283268796825397
56,1747666094830,0.9786696,1.6993706,1.2732466,3.2076533,2.26631,-2.7782152
57,1747666094840,1.0134023719008265,1.5518187917355373,1.1913159917355371,3.38265355785124,2.223751451239669,-2.9683002710743804
58,1747666094850,1.116608345238095,1.3150966333333334,1.1087463404761906,3.6259505857142855,2.1182624928571427,-3.222154230952381
59,1747666094860,1.1985428479338842,1.2038114709090908,1.075406979338843,3.7343706479338845,2.059888140495868,-3.3555686900826442
60,1747666094870,1.5458842056451612,0.873282082983871,0.969411141532258,3.8549932387096777,2.3594572838709675,-3.9729297290322583
61,1747666094880,1.59920954,0.72167727,1.004783698,3.8950804,2.6065620666666667,-4.262413966666666
62,1747666094890,1.6019918,0.6374775,1.0472497,3.9468002,2.7226264,-4.4220533
63,1747666094900,1.5518985178861788,0.5018769097560976,1.1020157089430893,4.153973000813008,2.702164863414634,-4.634713702439025
64,1747666094910,1.3707586454545457,0.3421682527272727,1.0699025999999998,4.564798910743802,2.504613218181818,-4.868913925619834
65,1747666094920,1.1389429488,0.27448630904,0.931037372,4.9629135408,2.1004137264000002,-4.853216728
66,1747666094930,1.070020185,0.2650339725,0.8561039899999999,5.04293685,1.948660135,-4.804577145
67,1747666094940,0.9855671721311475,0.21666282278688526,0.6909420639344263,5.1404058311475405,1.5098085655737703,-4.742947828688524
68,1747666094950,0.9048988044715448,0.12184805341463414,0.44178924861788615,5.127215329268292,0.96164597398374,-4.742355204878049
69,1747666094960,0.75535715,0.16180995,0.34924594,5.0371947,0.6273586,-4.6712866
70,1747666094970,0.75535715,0.16180995,0.34924594,5.0371947,0.6273586,-4.6712866
71,1747666094980,0.61746484,0.15936938,0.19134088,4.415334,-0.28221974,-4.1153994
72,1747666094990,0.8049219904347826,-0.08808344434782608,-0.02576395539130435,3.273600286956522,-0.8811332582608695,-3.427086834782609
73,1747666095000,0.9064858613580247,-0.1996056802469136,-0.020928662185185184,2.6732822629629633,-1.0543609456790124,-3.2081662209876542
74,1747666095010,0.9507616033333334,-0.29937892475,0.008489124083333332,2.195897786666667,-1.1617435066666668,-3.0559551066666666
75,1747666095020,0.9987730534883721,-0.45543353767441863,0.04296542553488372,1.5799533007751936,-1.2705096604651163,-2.819195057364341
76,1747666095030,0.9598518965517242,-0.7895083655172414,0.05204310358620689,1.1233495431034484,-1.0232940612068966,-2.1106079448275863
77,1747666095040,0.899595,-0.8876362,0.042954076,1.0476339,-0.9126327,-1.7599027
78,1747666095050,0.7577047821428572,-0.9037091107142857,-0.008129430719047618,0.7442132357142857,-0.8707496365079365,-0.9069069976190476
79,1747666095060,0.7263405876033058,-0.848937958677686,-0.015891959198347107,0.3923521598264463,-0.860865620661157,-0.19281127190082648
80,1747666095070,0.7597502,-0.7573096,-0.004148973,-0.048258353,-0.8210029,0.5815437
81,1747666095080,0.7792849708333333,-0.7260194283333333,-0.0157315235,-0.20459403757500003,-0.70718341,0.82025459
82,1747666095090,0.7873287,-0.71313524,-0.020500809,-0.26389378,-0.6640105,0.9108001
83,1747666095100,0.67183103728,-0.61964181176,-0.08780594242400001,-0.51621044264,-0.25898242131999993,1.3223326792
84,1747666095110,0.45387468294117644,-0.41404210672268904,-0.17005252823529413,-0.9384224781512606,0.2013750569747899,2.0784510546218486
85,1747666095120,0.41807005,-0.3316738,-0.15082738,-1.2046263,0.15943582,2.6841419000000006
86,1747666095130,0.41807005,-0.3316738,-0.15082738,-1.2046263,0.15943582,2.6841418999999997
87,1747666095140,0.41807005,-0.3316738,-0.15082738,-1.2046263,0.15943582,2.6841419
88,1747666095150,0.6835268503174603,-0.011916194103174602,0.08341140225396827,-1.3440198642857144,-1.4604818392063492,4.412803061904762
89,1747666095160,0.8107321695901638,0.06724176763114754,0.15594457540983606,-1.32518701147541,-1.8958853639344262,4.845963737704917
90,1747666095170,0.90325594,0.117635585,0.21330604,-1.2980887,-2.1508565,5.100114
91,1747666095180,1.017640931724138,0.16195301564655173,0.2573247094827586,-1.2285448155172414,-2.3052158172413795,5.297244446551724
92,1747666095190,1.4309076555555558,0.3042037911111111,0.3903831377777778,-1.0334094285714286,-2.6283785571428573,5.7825379
93,1747666095200,1.5838738559055119,0.39318201551181103,0.3899400795275591,-1.008966633070866,-2.408420392913386,5.835797720472441
94,1747666095210,1.6229807,0.43442193,0.38780698,-1.0280862,-2.2724187,5.848424
95,1747666095220,1.6229807,0.43442193,0.38780698,-1.0280862,-2.2724187,5.848424
96,1747666095230,1.700949349557522,0.7394913069911504,0.49061986867256635,-1.5025609336283183,-1.9917883053097345,6.204396068141593
97,1747666095240,1.7878202689655174,0.7614165344827586,0.5545990551724138,-1.5140611568965519,-2.0237491750000003,6.287441097413793
98,1747666095250,1.969948777777778,0.7631670111111112,0.6381283466666667,-1.3759505128205127,-2.125372546153846,6.273116076923077
99,1747666095260,2.054962,0.7668279,0.66090703,-1.2767084,-2.1856759,6.196617000000001
100,1747666095270,2.0675185500000004,0.8268618364406779,0.654331965,-1.2201722788135592,-2.231423457627119,5.9841188
101,1747666095280,2.086986787272727,1.0499786436363636,0.625066128,-1.0360274045454545,-2.360744190909091,5.218205522727272
102,1747666095290,1.9653287368421055,1.1277371789473682,0.5859301005263159,-1.0879189359649124,-2.1973467192982454,4.974302320175438
103,1747666095300,1.7661991882352943,1.211327811764706,0.5169993911764706,-1.3143253714285714,-1.7636295008403362,4.655783808403361
104,1747666095310,1.4696517550000001,1.3329186416666667,0.5137587985833333,-1.6537649300000001,-1.0651250066666667,4.2401581424999994
105,1747666095320,1.2952215599999999,1.42002272,0.5678430912,-1.78311564,-0.7410284388,4.014068819999999
106,1747666095330,1.1732836512605043,1.499356456302521,0.6439193947058823,-1.8044086285714287,-0.5423610728571429,3.7821285285714286
107,1747666095340,1.095326937398374,1.5681332398373982,0.6963945315447154,-1.7031369341463414,-0.45385797439024395,3.5135329902439025
108,1747666095350,0.9937991375806451,1.7493708991935484,0.7620904072580645,-1.3010641258064515,-0.43986238322580645,2.899442348387097
109,1747666095360,0.9676293406299213,1.9452092866141732,0.7649446023622047,-0.8732871960629921,-0.48790336314960625,2.231009692913386
110,1747666095370,0.916236331627907,2.129189537209302,0.7237773283720931,-0.5116067393023256,-0.35057981813953487,1.4345104930232557
111,1747666095380,0.86454057488,2.2838526336,0.67357652768,-0.34785110384,-0.22331766288,0.9523389376
112,1747666095390,0.8463905,2.336116,0.652365,-0.28099802,-0.14782938,0.7086037
113,1747666095400,0.8689958432307692,2.3771439369230767,0.6081324387692307,-0.2052131313846154,0.0848820792923077,0.06764627846153844
114,1747666095410,0.9546121615384614,2.3749461085470083,0.5651740042735042,-0.1590755722222222,0.35879196410256414,-0.6241372208547009
115,1747666095420,1.0511660015625,2.2779005484375,0.59493913125,-0.07149986309374999,0.728327936875,-1.5187064609375
116,1747666095430,1.12803264,2.12300508,0.66520242,0.1389840646816,1.0498427833600001,-2.4260048672
117,1747666095440,1.1720290694915254,1.960673113559322,0.7065788322033898,0.43422167559322034,1.1832356915254236,-3.0446766118644066
118,1747666095450,1.182245375409836,1.8146796606557376,0.7191706793442623,0.7503227532786885,1.2228271270491804,-3.5595218729508193
119,1747666095460,1.2295915076271184,1.573033727118644,0.6474838957627118,1.2323947466101695,1.1809734127118645,-4.216580428813559
120,1747666095470,1.2606806433070865,1.4504590968503936,0.5755177360629921,1.465537905511811,1.1700811685039372,-4.577593259842519
121,1747666095480,1.2804242637795276,1.3879459,0.5281860141732283,1.5856234007874015,1.188835222047244,-4.8319296692913385
122,1747666095490,1.3224010396694217,1.3206966652892564,0.48770101272727273,1.6285667,1.2052372,-4.9449544
123,1747666095500,1.433499812903226,1.1978053596774192,0.4660883077419355,1.7214971056451613,1.3215577104838712,-5.370761674193548
124,1747666095510,1.5628612666666666,1.0186135333333333,0.45264484666666666,1.8169168666666666,1.4381804333333332,-5.8628811
125,1747666095520,1.57807038671875,0.95797615703125,0.4385785009375,1.84068967265625,1.4660145828125,-6.03559201328125
126,1747666095530,1.5789683663865548,0.8539255109243697,0.41299817983193277,1.8523128,1.5065887697478992,-6.307157888235294
127,1747666095540,1.5729200338983051,0.8126899406779661,0.40106878423728815,1.8513565423728813,1.4922920305084746,-6.3890188305084745
128,1747666095550,1.5003891596774193,0.7012394758064516,0.3360274579032258,1.8040328733870967,1.4384497177419353,-6.5673138064516134
129,1747666095560,1.4594810692307691,0.6798496184615385,0.3088075076923077,1.7501759307692306,1.4365670923076923,-6.567318384615385
130,1747666095570,1.3570782590163937,0.6238343249180328,0.2735881668852459,1.6001665475409836,1.4859046803278688,-6.488480655737705
131,1747666095580,1.274955,0.5784157,0.25748038,1.4263704,1.568702,-6.361551
132,1747666095590,1.1891798967479676,0.6209312298373985,0.3068970188617886,1.3836594081300813,1.5232099024390244,-5.965829243902439
133,1747666095600,1.191667756923077,0.642595196923077,0.32836211876923077,1.4143879538461537,1.4159386307692308,-5.680341923076924
134,1747666095610,1.3179712142857143,0.5318743407936508,0.24157018158730156,1.5566785190476191,0.9579433793650793,-5.170964682539682
135,1747666095620,1.3593835755905512,0.44127472133858264,0.15201499685039369,1.5897599267716536,0.7081179094488189,-5.011086456692913
136,1747666095630,1.3594969229508196,0.3209392831147541,0.0046070817950819645,1.5154965459016394,0.39036292950819673,-4.868556122950819
137,1747666095640,1.348013517886179,0.25857368902439026,-0.07290565274796748,1.382149612195122,0.16396517092682927,-4.74880691707317
138,1747666095650,1.3245308279069767,0.17591039736434108,-0.1326309212403101,1.1043875511627905,-0.11526885241860464,-4.531199311627907
139,1747666095660,1.282491854237288,0.0673349753220339,-0.1390836661016949,0.785520946101695,-0.3046975186440678,-4.208985671186441
140,1747666095670,1.22106413984375,-0.122682618640625,-0.08812945078125,0.4010330225,-0.45127671125,-3.6557231000000003
141,1747666095680,1.2138607098360656,-0.25447969721311475,-0.0434581942295082,0.2743786386885246,-0.49619282081967214,-3.158573924590164
142,1747666095690,1.2145188655737704,-0.3328680926229508,-0.025509983475409836,0.24742045393442622,-0.5112942,-2.9147284713114754
143,1747666095700,1.201458957142857,-0.5127294285714286,-0.048044412142857144,0.26110126285714286,-0.4997750285714286,-2.352354728571429
144,1747666095710,1.0698757291666667,-0.6446975708333333,-0.10625642083333334,0.244223926,-0.40011673999999997,-1.70895664
145,1747666095720,0.8649388467213114,-0.693230643442623,-0.14617027852459016,0.17685050032786884,-0.25287819524590166,-0.9979535786885245
146,1747666095730,0.5962506343589743,-0.6206814256410256,-0.18847477435897436,0.05083234164957265,-0.08761478717948717,-0.3483707113675214
147,1747666095740,0.375536086557377,-0.5365738819672131,-0.21847525475409837,-0.027398809000000003,0.012948339999999997,-0.028780770655737718
148,1747666095750,0.2895397516,-0.48345788879999996,-0.2152487376,-0.2156403208,0.25708141648,0.8200010704
149,1747666095760,0.13431086162601624,-0.3421444586178862,-0.18297349008130082,-0.2386099243902439,0.29725300243902436,1.752319175609756
150,1747666095770,0.07530585302325582,-0.20376699821705427,-0.14348484868217054,-0.13297447178294575,0.09496824255813953,2.3131715472868217
151,1747666095780,0.08356519939130436,-0.09483003595652173,-0.1109569102173913,0.008647726973913042,-0.1845556728695652,2.9585532486956523
152,1747666095790,0.16425052,-0.04368625,-0.10006347,0.13439035,-0.44959682000000006,3.3512068
153,1747666095800,0.335514298,0.04275687404,-0.09798996060000001,0.35284554551999997,-0.8814443484800001,3.8814377311999997
154,1747666095810,0.5734331860169491,0.195045186779661,-0.1565523820762712,0.512210525,-1.26815625,4.4736717
155,1747666095820,0.7194284876984127,0.2723388328571429,-0.1982907065079365,0.5102276317460318,-1.4518812222222222,5.022524539682539
156,1747666095830,0.8301648121666666,0.30270419833333334,-0.21057259916666665,0.40516655999999995,-1.4028723866666666,5.231979386666667
157,1747666095840,0.972564223114754,0.33414238327868856,-0.21815518606557377,0.18119164475409835,-1.2458696573770491,5.492098940983606
158,1747666095850,1.143501952,0.3860087676,-0.15942406088,-0.17750765208,-1.081485604,5.729739848
159,1747666095860,1.1629328,0.39244407,-0.15058333,-0.25717425,-1.0494665,5.778785
160,1747666095870,1.1896945307086615,0.38371564999999996,-0.07315376118110235,-0.37864986716535437,-1.223293775590551,6.072192755905511
161,1747666095880,1.2223248294117648,0.3703497082352941,-0.030751213294117646,-0.428247332605042,-1.3775319848739496,6.293318487394958
162,1747666095890,1.2627782008196722,0.36959671147540984,-0.023207443188524593,-0.45739787122950815,-1.5297568532786885,6.479963401639345
163,1747666095900,1.3353875448,0.3854347308,-0.0033289414880000013,-0.5210680748,-1.760806904,6.703903976
164,1747666095910,1.4396268362903226,0.42489973814516124,0.053568596887096774,-0.6007318021774194,-1.9708237467741934,6.879539795161291
165,1747666095920,1.676528019047619,0.5352291647619049,0.2110223604761905,-0.6954555428571428,-2.155859871428571,7.136564047619047
166,1747666095930,2.0144125327868854,0.6955691475409836,0.42812442549180324,-0.4872902109836066,-1.8237932827868852,7.129934024590164
167,1747666095940,2.1556513461538462,0.7722284089743591,0.5107304671794871,-0.3248654455897436,-1.5789822692307693,7.064447911965813
168,1747666095950,2.21542965,0.962073685,0.5171573300000001,0.05143785881967213,-1.0896985245901638,6.656353117213114
169,1747666095960,2.157332972727273,1.113721990909091,0.4840320954545455,0.2953356757024793,-0.8446448859504132,6.311762659504132
170,1747666095970,2.0376032141732283,1.3638110992125985,0.36632799811023625,0.4993414708661417,-0.7863471039370078,5.784499471653544
171,1747666095980,1.9344944715517243,1.5722167353448275,0.23372057482758618,0.5655927831896551,-0.8157789362068966,5.284616390517241
172,1747666095990,1.9004737,1.6259093,0.18963248,0.54428095,-0.8313876,5.1117206
173,1747666096000,1.7430126968503938,1.7501786196850393,0.08867733637795276,0.29873234826771655,-0.654462727952756,4.51755047007874
174,1747666096010,1.581191030120482,1.8453990433734937,0.04174555114457831,0.07928000554216867,-0.4559630638554217,4.1267186072289155
175,1747666096020,1.581191030120482,1.8453990433734937,0.04174555114457831,0.07928000554216867,-0.4559630638554217,4.1267186072289155
176,1747666096030,0.8847037584615385,2.1580367984615383,0.13144922815384616,-0.8650415792307693,0.7510916969230769,2.4451900276923073
177,1747666096040,0.8847037584615385,2.1580367984615383,0.13144922815384616,-0.8650415792307693,0.7510916969230769,2.4451900276923073
178,1747666096050,0.7494998,2.2973108,0.25552794,-1.0555751,1.1319333,1.4782939
179,1747666096060,0.7494998,2.2973108,0.25552794,-1.0555751,1.1319333,1.4782939
180,1747666096070,0.806555331496063,2.371008481102362,0.4141074852755906,-0.8424216484251968,1.13498761496063,0.13198537480314962
181,1747666096080,0.8449261,2.3841953,0.47176263,-0.7452556,1.1087204,-0.30848694
182,1747666096090,0.9036376858870968,2.3611966427419353,0.5119631977419354,-0.5404186803225807,1.0140165935483871,-0.9208695503225806
183,1747666096100,0.969332906,2.2941379976,0.5083809988,-0.36554664356,0.9347948592,-1.4895631656
184,1747666096110,1.1396512918032786,2.0749608319672133,0.40871187459016395,-0.09076856905737705,0.8758255422131147,-2.8167246262295085
185,1747666096120,1.1888028,2.0137165,0.3585201,-0.013439035,0.86742866,-3.3414328
186,1747666096130,1.3006992322580644,1.901580101612903,0.32778462032258066,-0.10900003620967742,1.070570800967742,-3.7441113129032257
187,1747666096140,1.3025336,1.8997418,0.32728076,-0.11056661,1.073901,-3.7507126
188,1747666096150,1.405805723255814,1.7519281674418603,0.35651466689922484,-0.14914108945736435,1.3402241155038759,-4.195479342635659
189,1747666096160,1.625144997520661,1.353670623966942,0.47735577652892563,-0.1142318,1.8674151,-5.177694
190,1747666096170,1.7348917160000001,1.0243414936,0.5449231992,0.57594819816,1.8379175696,-6.1339519319999996
191,1747666096180,1.792295365,0.817054875,0.477546823,1.14318343125,1.6686802291666667,-6.671666616666666
192,1747666096190,1.7948048193548387,0.7382771141935484,0.401049045483871,1.2996503145161291,1.6515185370967742,-6.837409937096774
193,1747666096200,1.7768048922480622,0.6617016218604652,0.31172163457364344,1.3973234744186045,1.6756838782945738,-6.9652704124031
194,1747666096210,1.7652380918032788,0.6443991426229508,0.2957933690163934,1.4493328885245902,1.743499529508197,-7.044177773770492
195,1747666096220,1.6737446341085271,0.559859733488372,0.24387372441860464,1.5727365302325582,1.9951569139534884,-7.127916693023256
196,1747666096230,1.616571106779661,0.5321399310169491,0.23243556533898305,1.6494500491525423,2.0810729593220336,-7.116580035593221
197,1747666096240,1.52609,0.49763274,0.21257387,1.7672331,2.1630738,-7.0872583
198,1747666096250,1.4367383546874999,0.47332425375000003,0.167676867875,1.9477056156249999,2.07168265078125,-6.99735138046875
199,1747666096260,0.988550099921875,0.4216012475,-0.269746163171875,2.87753807734375,0.894741040625,-6.313483
200,1747666096270,0.9844366302362204,0.43581128086614174,-0.3159311330708661,2.858108662992126,0.566065277952756,-6.187550062992126
201,1747666096280,0.9889902796610169,0.5258192693220339,-0.5889845813559322,2.362081305084746,-0.5814401828813559,-5.77281113220339
202,1747666096290,1.078459224390244,0.4474104863414634,-0.5169965868292683,1.0447882146341463,-1.3207899443902438,-5.477146959349594
203,1747666096300,1.1123372155172413,0.33779203810344827,-0.3923620092241379,0.5064652444827586,-1.3892180887931034,-5.344934094827586
204,1747666096310,1.1219312,0.25528386,-0.29726174,0.26328292000000003,-1.2993103,-5.2619934
205,1747666096320,1.0629362616935485,0.025665369112903222,-0.1777740562096774,0.043942886370967736,-1.0365791798387096,-4.952580202419354
206,1747666096330,0.8905489106557377,-0.2928206857377049,-0.1453060813114754,-0.10616036901639345,-0.7896084147540984,-4.360746550819672
207,1747666096340,0.8456896282051283,-0.39283205,-0.15343691487179487,-0.3168615428205128,-0.6181538726495727,-3.34610565982906
208,1747666096350,0.8671033729508196,-0.44934940860655737,-0.12925431713114752,-0.5297804004918032,-0.6108702569672131,-2.54752827295082
209,1747666096360,0.906292994047619,-0.47165417896825396,-0.09203669650793651,-0.6979765772222222,-0.6040875353174604,-1.9434580214285713
210,1747666096370,0.95011485,-0.47713193,-0.053692598,-0.820392,-0.5717699,-1.4856243
211,1747666096380,0.9283157962184874,-0.5056907192436975,0.09241975979831932,-0.8886395294117647,-0.11577693739495801,-0.6127543163865546
212,1747666096390,0.8497851181818181,-0.5130527272727273,0.18446290454545453,-0.8323165115702479,0.2852185436363636,0.07367236876033058
213,1747666096400,0.7690244,-0.5037342,0.21769907,-0.7483099,0.4202753,0.27916542
214,1747666096410,0.5671702817094018,-0.4238252505982906,0.19876690034188035,-0.35509543145299144,0.610447572991453,0.9690776965811966
215,1747666096420,0.27079895,-0.2649067157142857,0.10581625142857143,0.3516790036507937,0.7859993600793651,2.219559484126984
216,1747666096430,0.25601605,-0.24454537,0.08175918,0.551828079516129,0.6723557451612903,2.5921869209677424
217,1747666096440,0.2566191336363636,-0.2342304214876033,0.06910854276859504,0.8055394095867769,0.3680235934710744,3.099737238016529
218,1747666096450,0.3148792576744186,-0.1641464768992248,-0.04790900534883721,1.0585205589147286,-0.11972959248062016,3.6591774488372093
219,1747666096460,0.569978275630252,-0.09920209546218488,-0.3002047865546218,1.2705997,-0.59864795,4.1905355
220,1747666096470,0.60844996875,-0.097470365,-0.34042935937499996,1.3056481,-0.7623216296875001,4.544493828125
221,1747666096480,0.65090066,-0.09445015,-0.38707477,1.3096951,-0.87781334,4.859433
222,1747666096490,0.7670082444347827,-0.04476221928695652,-0.44247365886956525,1.0180573747826087,-0.9556057121739131,5.40967918
223,1747666096500,0.9128803016793894,0.013231256664122136,-0.48230928625954195,0.622089278778626,-1.0456147839694656,6.040431374045801
224,1747666096510,1.0383939190476192,0.039304841261904755,-0.4386870876190476,0.2542265961904762,-1.101457938095238,6.364546806349207
225,1747666096520,1.234779450769231,0.07890182992307693,-0.30532501553846153,-0.14231280676923078,-1.1125077692307692,6.625806243846154
226,1747666096530,1.4232323173228345,0.14821577228346458,-0.1082787922047244,-0.41334413212598425,-1.0562870141732283,6.837212707086613
227,1747666096540,1.5047451833333334,0.22119722,0.009264005416666665,-0.5179729986666667,-1.0047511733333334,7.017579226666666
228,1747666096550,1.64869965,0.3652219725396825,0.17971523492063493,-0.3447316155555556,-1.0055520777777778,7.211060833333333
229,1747666096560,1.7837716475,0.4948565665,0.2667057575,-0.027244599999999997,-1.04335781,7.275649560000001
230,1747666096570,1.9966323,0.7063017,0.3572998,0.50640726,-1.1074986,7.2876225
231,1747666096580,1.9966322999999997,0.7063016999999999,0.3572998,0.50640726,-1.1074986,7.2876225
232,1747666096590,2.0181819595041324,0.7287428600826447,0.3465834697520661,0.5904138540495868,-1.109770426446281,7.222820285123967
233,1747666096600,2.2675459553719004,1.058312874380165,0.13122816479338842,1.5407131818181818,-1.0356943181818183,6.248096145454546
234,1747666096610,2.256644283898305,1.1062866542372882,0.08055129466101695,1.5174668771186441,-0.9434451872881356,6.085651638135594
235,1747666096620,2.043012753543307,1.3818098472440945,-0.19271106692913387,1.0620300566929133,-0.22938711481889765,5.281271392125984
236,1747666096630,1.9673047166666668,1.4199047166666667,-0.21812616916666666,0.9074402883333333,-0.004851287450000001,5.117401200000001
237,1747666096640,1.7923565,1.4787428,-0.19329333,0.6743952,0.3707952,4.8710394
238,1747666096650,1.7923565,1.4787428,-0.19329333,0.6743952,0.3707952,4.8710394
239,1747666096660,1.4395707359999999,1.661387532,-0.028995952647360004,0.61609424112,0.60133573288,4.1744625624000005
240,1747666096670,1.2552860680000002,1.8491710000000001,0.007667302064000001,0.75157926384,0.47710040712000007,3.6466456032
241,1747666096680,1.2199608555555557,1.9530274222222221,-0.04590988177777778,0.8256861888888889,0.26430104,3.0818150444444448
242,1747666096690,1.1260981590163934,2.162595414754098,-0.21099349655737704,0.6428004767213116,0.2057714562295082,2.124098675409836
243,1747666096700,1.0659825566929133,2.2288153622047244,-0.26826311874015746,0.38425348818897637,0.30736622181102363,1.5697938551181103
244,1747666096710,1.0122943774193547,2.2848638193548387,-0.29264826258064514,0.09279239806451614,0.42399466612903225,1.0043511258064517
245,1747666096720,0.9894081,2.3056087,-0.29652956,-0.05375614,0.47647488,0.7330383
246,1747666096730,0.9750107266666668,2.317943956666667,-0.19914664476666666,-0.5542482245,0.5996558435833333,-0.3223230441666667
247,1747666096740,1.0620761291666667,2.2566955708333336,-0.07241381975,-0.8204938645833334,0.6559165433333334,-1.2524773750000002
248,1747666096750,1.1285207000000002,2.2027386,-0.008664034000000001,-0.8878876485245901,0.65653992,-1.7449916967213115
249,1747666096760,1.2871841504132233,2.0370651834710745,0.08293307247933884,-0.8355626819008265,0.6017981727272728,-2.778775627272727
250,1747666096770,1.40270380625,1.842594140625,0.1348759459375,-0.708947309375,0.538057740625,-3.6769887687500002
251,1747666096780,1.4147999,1.8133454,0.14057697,-0.68844515,0.5290093,-3.7916405
252,1747666096790,1.42113187007874,1.5844446543307085,0.11491061173228347,-0.5303224156692913,0.48976001858267715,-4.630392137007874
253,1747666096800,1.4481536868852458,1.4692626270491802,0.07840039391803279,-0.503232793442623,0.5210079740983606,-4.935300437704918
254,1747666096810,1.5375470232,1.2370676168,0.0021926106719999997,-0.498783694,0.6519398240000001,-5.481342772
255,1747666096820,1.6565027470588234,1.0427274529411765,-0.019036464,-0.52639645,0.8349912260504202,-5.780104476470589
256,1747666096830,1.692779145528455,0.9451523997560975,-0.010841696846341462,-0.5060795134146341,0.9817349475609756,-6.003181139024391
257,1747666096840,1.7111314040983607,0.8585554140983607,-0.0001580369024590164,-0.4446698363934426,1.1227803016393443,-6.210806960655738
258,1747666096850,1.7074246,0.74364245,0.014887493,-0.30298916,1.273654,-6.409809
259,1747666096860,1.69731271779661,0.5379497583050847,0.03994886145762712,0.3427989361864407,1.375906666101695,-6.739350152542373
260,1747666096870,1.646552130232558,0.459800088372093,0.06266784556589146,0.8484397376744186,1.2425804224806203,-6.899846020930233
261,1747666096880,1.52355795,0.43249996124999995,0.088440244,1.6500997,0.4811327375000001,-6.9918871375
262,1747666096890,1.4716653,0.42783237,0.097134784,2.0527625032786885,-0.009643655245901632,-7.021215021311475
263,1747666096900,1.4089960853658534,0.4206197699186992,0.009546008536585366,2.313962435772358,-0.6075824609756098,-7.015623471544716
264,1747666096910,1.3053391213675214,0.3903080256410256,-0.14051439427350426,2.294926723076923,-0.8537546784615385,-6.968656753846154
265,1747666096920,1.2627522,0.36901456,-0.20403185,2.2363777,-0.9425651,-6.9272118
266,1747666096930,1.0081674067796609,0.2903764225423729,-0.33626745389830504,1.8479501898305082,-0.8451165420338983,-6.6445882576271185
267,1747666096940,0.7573877544,0.28206183928,-0.40709529807999995,1.4388320719999999,-0.6682865732000001,-6.125512528
268,1747666096950,0.6792113,0.31556603,-0.41001618,1.278541,-0.61941737,-5.8068852
269,1747666096960,0.6746962428571429,0.37189674166666664,-0.36744560095238094,1.1134715777777777,-0.7214997077777778,-5.272038444444444
270,1747666096970,0.74763129496,0.37829847839999997,-0.34837901616000005,1.0320250528,-0.9241120328,-4.9619800624
271,1747666096980,1.0482259,0.37072295,-0.29482117,0.784351,-1.6975945,-3.9767327
272,1747666096990,1.2693674052631578,0.14881069842105263,-0.28585526157894736,0.6004591070175439,-1.952169907017544,-3.5975675815789474
273,1747666097000,1.356491736,-0.18179141344,-0.28049986479999994,0.27837861688,-1.8246740160000001,-2.8733586056
274,1747666097010,1.3011312576271188,-0.3370720077966101,-0.29613243254237287,0.05339893878813559,-1.576550066101695,-2.408491522033898
275,1747666097020,1.1916634983606558,-0.41687376524590164,-0.31505389213114754,-0.14045894531147543,-1.3459364606557376,-2.0398893442622947
276,1747666097030,1.0610511108333334,-0.48971306616666666,-0.31172821575,-0.42172099366666665,-1.0057081933333332,-1.5149254533333332
277,1747666097040,0.9850151000000001,-0.5281399,-0.29823795,-0.5833763,-0.8038987,-1.2113458
278,1747666097050,0.8059536884297521,-0.5626124958677686,-0.22553511471074378,-0.7210986471074379,-0.6144799892561983,-0.9153033537190083
279,1747666097060,0.7175283,-0.579636,-0.18963247999999996,-0.9599899870833333,-0.25922066508333336,-0.30985632116666667
280,1747666097070,0.7175283,-0.579636,-0.18963248,-0.9804387,-0.22785273,-0.25473082
281,1747666097080,0.10396838,-0.268463,0.05296042,-0.7281514,0.35430184,2.0922134
282,1747666097090,0.10396838,-0.268463,0.05296042,-0.7281514,0.35430184,2.0922134
283,1747666097100,0.0584822165,-0.164372565,0.025412460875,-0.24911847875,0.31012864875,2.99759214375
284,1747666097110,0.09263564150724637,-0.12132828289855073,-0.002847334685507246,0.06610624014492754,0.16451752376811593,3.600059091304348
285,1747666097120,0.16121998661417325,-0.09365648483464568,-0.02684437433464567,0.23934854212598428,0.09167307984251968,3.96474158503937
286,1747666097130,0.37191274275,-0.026703929405833333,-0.08274353996666667,0.5910121108333334,-0.014813482583333334,4.7626872166666665
287,1747666097140,0.4600360242276422,-0.004287867217073171,-0.09850785411382114,0.66645396,-0.004886922,4.976108
288,1747666097150,0.6445628792913386,0.05423836018110236,-0.15783201047244094,0.7016725047244095,-0.007854668826771653,5.158059323622047
289,1747666097160,0.7890113073170733,0.11112542016260163,-0.21272664081300813,0.7308928029268292,-0.046083079268292686,5.553018263414634
290,1747666097170,0.9158579441860466,0.1816069826356589,-0.27240195023255814,0.624541064496124,-0.1594831837984496,5.786873223255814
291,1747666097180,0.9298663244537816,0.23490818285714285,-0.27090968705882357,0.4984609068067227,-0.28588493126050424,5.994646573109244
292,1747666097190,0.9585958477500001,0.28699912375000003,-0.21723535425,0.417730004,-0.33462689275,6.3428023175
293,1747666097200,1.2616580106557376,0.44174561909836063,-0.04016942262295082,0.50518554,-0.25289822,7.0481634
294,1747666097210,1.4437277289256198,0.5133855274380165,0.006597614628099175,0.6111984629752066,-0.191301793553719,7.163394563636364
295,1747666097220,1.5509838,0.55523026,0.03294773,0.6597345,-0.16310102,7.216151
296,1747666097230,1.5509838,0.55523026,0.03294773,0.6597345,-0.16310102,7.216151
297,1747666097240,1.5509838,0.55523026,0.03294773,0.6597345,-0.16310102,7.216151
298,1747666097250,2.1023603161290323,1.0172463717741935,-0.019467501471774194,1.2904084706451613,0.044228616903225805,6.015184993548387
299,1747666097260,2.061534300793651,1.1267154817460316,-0.0883971469047619,1.3344205952380952,0.07769624761904761,5.549710833333333
300,1747666097270,1.62904015,1.2923708703125,-0.26834856953124997,1.1183510953125,0.2032463221875,4.984125546875
301,1747666097280,1.5451264,1.3183973,-0.3014107,1.0726794,0.22357668,4.92113
302,1747666097290,1.3038869685950414,1.3992568603305784,-0.36519434793388433,0.6121728047933884,0.4444019390082645,4.682706189256199
303,1747666097300,1.19344,1.4362769,-0.3943965,0.40133846,0.54550266,4.5735483
304,1747666097310,1.1930050258064515,1.4367492685483871,-0.39399892298387096,0.316359223016129,0.5804155757258065,4.546896827419355
305,1747666097320,1.067197932,1.6899363616,-0.056547086144,-1.237735172,1.1081095399999998,3.57747114
306,1747666097330,1.0578441696721312,1.7476299491803278,0.022533286262295085,-1.414383393442623,1.1273367713114755,3.196522536885246
307,1747666097340,1.0620399262711864,1.881716593220339,0.19986634644067797,-1.2977677118644069,0.9853308330508475,2.688402354237288
308,1747666097350,1.1113985375,2.0009491703125,0.3015765984375,-0.77198571875,0.6548189078125001,1.8099364804687499
309,1747666097360,1.1481949974789916,2.0609998100840334,0.2986050761344538,-0.3434397218487395,0.463143661092437,1.0525670302521009
310,1747666097370,1.1503156651162791,2.079214311627907,0.20789135953488372,-0.21898808913953488,0.4322179505426357,0.7694628984496124
311,1747666097380,1.1068246487179487,2.088260246153846,0.06103934128974359,-0.02005413223076923,0.4448038811965812,-0.03535709076923076
312,1747666097390,1.0521990840000002,2.038610168,-0.121228110112,0.0002932154880000001,0.51741265744,-0.68104145584
313,1747666097400,1.0391957333333333,2.0112214555555554,-0.18218872722222224,-0.09419929599206349,0.6136481033333333,-1.2876554377777778
314,1747666097410,1.0620141520325204,1.9346457951219513,-0.2165343374796748,-0.2284486975609756,0.7202846463414634,-1.939258707317073
315,1747666097420,1.1423719475409837,1.8131653131147543,-0.20216742196721313,-0.3307985626229508,0.7795842154098361,-2.567787091803279
316,1747666097430,1.1725017056603775,1.7611953735849057,-0.19630492018867926,-0.3545784690566038,0.7927878116981133,-2.800067977358491
317,1747666097440,1.2106208181034483,1.6136119241379308,-0.1914018981896552,-0.36635590922413797,0.8294023008620689,-3.3681792
318,1747666097450,1.230268419834711,1.525993205785124,-0.18021106082644628,-0.353771759338843,0.8357646438016528,-3.6353195752066116
319,1747666097460,1.2800802,1.3664765,-0.1483868,-0.28527406,0.8148942599999999,-4.2314634
320,1747666097470,1.3054187415254237,1.2946575220338983,-0.11336252062711866,-0.2353228911016949,0.7866598311864407,-4.376632010169491
321,1747666097480,1.3418356072727273,1.1824529963636363,-0.059496721659999995,-0.02939927927272727,0.693531953090909,-4.837108527272727
322,1747666097490,1.3602124666666666,1.0401178,-0.002332102588888889,0.29246348384615384,0.585208876923077,-5.3353442307692305
323,1747666097500,1.3721808186440678,0.9979293881355933,0.0028418189491525424,0.3916681616949153,0.5545620644067797,-5.4710128576271195
324,1747666097510,1.4147913827586207,0.9243541827586207,-0.02449829772413793,0.5204729717241379,0.5608954155172414,-5.7035223189655175
325,1747666097520,1.4384733,0.8829991,-0.045882765,0.5606362,0.6019147193043478,-5.843717488695653
326,1747666097530,1.4408353288135594,0.774691499661017,-0.08829494491525423,0.5310593352542373,0.7660043013559321,-6.101156320338983
327,1747666097540,1.4153436276422766,0.7291180565853659,-0.09045793333333334,0.5051855756097561,0.8329073146341464,-6.192787992682927
328,1747666097550,1.3111211967479675,0.6973965654471546,-0.04823206387804878,0.4795143229268293,0.8817020268292682,-6.258210143902439
329,1747666097560,1.20999388125,0.679098825390625,0.0005281552187500002,0.490143004375,0.834327359375,-6.244713253125
330,1747666097570,1.1292605748031495,0.6624347622047244,0.019426573110236222,0.5365080299212599,0.7174876753543308,-6.178175581102362
331,1747666097580,1.0511803097560974,0.6459798418699187,0.02792570556910569,0.5768107468292683,0.6245228172357723,-6.101848471544715
332,1747666097590,0.9598384115873015,0.6308240907142857,0.023030481777777778,0.619839116031746,0.49143137976190476,-5.9572111507936505
333,1747666097600,0.9049185090624999,0.6216138390625,0.00631879534375,0.627711741875,0.40914608984375,-5.833304903125001
334,1747666097610,0.84597566,0.6056280679999999,-0.012666570600000001,0.64293565,0.301706356,-5.662415480000001
335,1747666097620,0.8268078714285714,0.5820765409523809,-0.00864659938095238,0.7351326714285714,0.11652981380952382,-5.411975380952381
336,1747666097630,0.8414093780327868,0.5643603754098361,-0.010502463698360656,0.8289892016393443,-0.06302427115573771,-5.198868913934426
337,1747666097640,0.904937563125,0.5056446384375,-0.07815170578125,0.9476046874999999,-0.329332725,-4.926093625
338,1747666097650,0.9422047449612402,0.4461517620155039,-0.19940612170542638,0.9843880465116279,-0.7056345639534883,-4.62700574883721
339,1747666097660,0.9613415,0.3990336,-0.3248402,0.947452,-1.006095,-4.4306054
340,1747666097670,0.9306827725806451,0.3678021408064516,-0.37579305572580646,0.7746214725806451,-1.191275904032258,-4.296195364516129
341,1747666097680,0.8291563369230769,0.21736739435897434,-0.47168758384615384,0.169439418974359,-1.571187211111111,-3.8696068905982908
342,1747666097690,0.8018768651219512,0.0755684603414634,-0.43712438658536584,-0.5764929068292682,-1.6213853682926829,-3.281597956097561
343,1747666097700,0.7354490666666667,-0.08085268201587302,-0.3558625866666667,-0.7781986904761905,-1.5544775547619047,-3.0534390015873014
344,1747666097710,0.5785750907258064,-0.15265978411290324,-0.2424492189516129,-1.0637233032258064,-1.3134045919354838,-2.501774014516129
345,1747666097720,0.4561468682539682,-0.1828453749206349,-0.17215333444444447,-1.1710287,-1.0561859999999998,-1.6971873333333334
346,1747666097730,0.4275883,-0.18792409,-0.15912533,-1.2009611,-0.9578367,-1.3628404000000003
347,1747666097740,0.4275883,-0.18792409,-0.15912533,-1.2009611,-0.9578367,-1.3628404
348,1747666097750,0.34203199191666667,-0.19248389024999998,-0.134406395,-1.1883925025000002,-0.9300270679166667,-0.8517090558333335
349,1747666097760,0.11003410536585365,-0.12771336512195122,-0.06347869487804877,-1.1278211804878049,-0.9621276765853658,0.8441859853658537
350,1747666097770,0.05296042,-0.07590181,-0.01854835,-1.0781772,-0.9859365,1.3158038
351,1747666097780,0.040490158591304344,-0.018346738826086957,0.04835941477391305,-0.9713341671304349,-0.9931394147826086,1.8848326921739131
352,1747666097790,0.062133072271999996,0.008159321991999998,0.075907664216,-0.90018079296,-0.9825205554399999,2.0818727536
353,1747666097800,0.17281919848739496,0.12104419295798319,0.18474313974789916,-0.4739903519327731,-0.900774702605042,3.0701625613445382
354,1747666097810,0.2338324212096774,0.146877195,0.18517843854838711,-0.039243164838709675,-0.7894398681451613,3.740736845161291
355,1747666097820,0.33987173065573767,0.180102248852459,0.14571817311475407,0.20642739360655737,-0.7403336040983607,4.041058806557377
356,1747666097830,0.4041588,0.1969542,0.11373068,0.37690386,-0.6951646,4.22902
357,1747666097840,0.4753177605,0.2516026734166667,0.073414452225,0.59809305275,-0.70061156,4.510929366666667
358,1747666097850,0.5090220783333332,0.31397963333333334,0.06398367516666667,0.8139779416666666,-0.7932085333333333,4.863810833333333
359,1747666097860,0.5842538311811023,0.347566357480315,0.07873055943307086,0.9636808448818898,-0.8952110141732283,5.104991330708661
360,1747666097870,0.6501685,0.3682824,0.08664032,1.20252161640625,-0.991286315625,5.35775587578125
361,1747666097880,0.7673098025423729,0.4125229177118644,0.0689441066101695,1.391551,-1.0341948,5.5301633
362,1747666097890,0.8672748966666667,0.44549356063492057,0.013700135476190476,1.4686945912698413,-0.9764147317460318,5.667123021428571
363,1747666097900,0.91155386,0.45907167,-0.01952458,1.524475324,-0.8719979008,5.862424936
364,1747666097910,0.91155386,0.45907167,-0.01952458,1.4526376,-0.68111473,6.137974
365,1747666097920,1.020091268032787,0.5134284274590164,-0.03468813473770491,1.421418386885246,-0.6394407078688524,6.225678224590164
366,1747666097930,1.0996649758333334,0.5447357709999999,-0.022038366558333335,1.3229458441666668,-0.4946735925,6.540595274166667
367,1747666097940,1.246813195,0.5797315266666667,0.030708504941666666,1.3464488666666667,-0.42292237833333335,6.747413866666666
368,1747666097950,1.5214529,0.6399181,0.07199689,1.4202617,-0.35979962,6.8868947
369,1747666097960,1.7255952290598289,0.6517350837606838,-0.021725267606837604,1.6182081521367522,-0.07389381188034187,6.829546563247864
370,1747666097970,1.8199348,0.6572462,-0.09152147,1.6737708,0.08674286,6.7439523
371,1747666097980,1.821954677586207,0.7274967965517242,-0.23944961620689656,1.5203751706896549,0.5295464425862069,6.448683187068965
372,1747666097990,1.6456698466666666,0.8699909133333333,-0.413847865,1.0123259,1.27670832,5.977927159999999
373,1747666098000,1.4749780081967212,0.9789616459016394,-0.4792844209836066,0.6536258081967213,1.6410444032786884,5.711669950819672
374,1747666098010,1.380101744262295,1.1014823655737707,-0.49144529278688526,0.3733988734426229,1.7208124549180328,5.50673981147541
375,1747666098020,1.3438953714285713,1.2047479285714284,-0.49114777809523813,0.17771329904761907,1.6911610873015872,5.352677730158731
376,1747666098030,1.3303352247863247,1.4346332264957267,-0.45553388564102565,-0.24258136324786325,1.247955935897436,4.899906760683761
377,1747666098040,1.3984363984126984,1.713006788888889,-0.30944521746031745,-0.5550049972222222,0.6939768555555555,4.231463605555556
378,1747666098050,1.4396937,1.8372629,-0.2277054,-0.70371675,0.4129449,3.8722749
379,1747666098060,1.4719492181034484,1.9361040336206896,-0.1753782676724138,-0.801060231637931,0.3909590234482759,3.463342707758621
380,1747666098070,1.5216969,2.088642,-0.09469421,-0.94989544,0.3622431,2.842356
381,1747666098080,1.5196285158333334,2.0947251208333335,-0.08485666916666666,-0.958218479,0.37343720575,2.7957164375
382,1747666098090,1.3828362258064515,2.1696216354838707,0.2627394258064516,-1.2696932491935484,0.8240424355645161,0.7790058801612902
383,1747666098100,1.3464638,2.1389177,0.30922052,-1.2388347,0.8570439,0.31398472
384,1747666098110,1.2784407072580644,2.0820564330645164,0.3940914358064516,-0.9980060258064516,0.7724686508064517,-0.5241125209677419
385,1747666098120,1.2430291788617884,1.9691650333333333,0.4180938694308943,-0.6737744447154472,0.6655401546341463,-1.510138335772358
386,1747666098130,1.1893630786885245,1.687509775409836,0.3956347827049181,-0.4728197278688525,0.6985995255737705,-2.154491719672131
387,1747666098140,1.1523055968,1.5501442440000002,0.33559822095999997,-0.33141639208,0.79795127472,-2.6683034687999996
388,1747666098150,1.0980701424,1.4243864056,0.26437256528,-0.22701218414400004,0.9316574814399999,-3.1098858176
389,1747666098160,1.0244302693548386,1.2784564612903226,0.18383809,-0.09307320387096774,1.1195140169354838,-3.7279580048387095
390,1747666098170,1.0121055,1.2381024,0.15839316,-0.054367006,1.1429288,-3.9205332
391,1747666098180,1.0121055,1.2381024,0.15839316,-0.054367006,1.1429288,-3.9205332
392,1747666098190,1.0121055,1.2381024,0.15839316,-0.054367006,1.1429288,-3.9205332
393,1747666098200,1.0121055,1.2381024,0.15839316,-0.04378352231746032,1.1317732579365078,-4.047248904761904
394,1747666098210,1.2660352843478262,1.0040260147826086,0.20735740547826087,0.006145835689130435,0.9911740200000001,-5.308902377391304
395,1747666098220,1.3305107902439024,0.9307629195121951,0.25025391341463415,0.025045475,1.0067059,-5.5509324
396,1747666098230,1.343047,0.9117979,0.26236153,0.05623292338181818,1.0387596454545456,-5.668318570909092
397,1747666098240,1.343047,0.9117979,0.26236153,0.069027774,1.0519099,-5.716477
398,1747666098250,1.3307262689655173,0.7493988531034482,0.21307881586206895,0.2543937803448276,1.3674955344827586,-6.129148206896551
399,1747666098260,1.3307262689655173,0.7493988531034482,0.21307881586206895,0.2543937803448276,1.3674955344827586,-6.129148206896551
400,1747666098270,1.3296238,0.7480355,0.21257387,0.25595254,1.3701707,-6.131865500000001
401,1747666098280,1.3296238,0.7480355,0.21257387,0.25595254,1.3701707,-6.1318655
402,1747666098290,1.3296238,0.7480355,0.21257387,0.25595254,1.3701707,-6.1318655
403,1747666098300,1.2847763282258067,0.7376827379032257,0.21001323548387096,0.3411041984677419,1.3331591669354839,-6.111184737903225
404,1747666098310,0.9855032,0.7236297,0.19768637,0.90408057,1.0201449,-5.80322
405,1747666098320,0.9855032,0.7236296999999999,0.19768637,0.90408057,1.0201449,-5.80322
406,1747666098330,1.042152741322314,0.7655692294214876,0.21262631322314052,1.0206347158677684,0.8258797,-5.451997297520662
407,1747666098340,1.044102172413793,0.7584794031034483,0.1834637296551724,1.1159771189655172,0.7499318706896552,-5.284732017241379
408,1747666098350,0.9374438718032787,0.6907019952459017,0.1141747848852459,1.2234228999999999,0.6391453081967213,-5.058374790163934
409,1747666098360,0.8255102779831933,0.5724229552941176,0.022424554911764705,1.3270509,0.471824114789916,-4.74702372605042
410,1747666098370,0.8268101981102361,0.5104063590551181,-0.011964570122047243,1.3500218968503936,0.3830606153543307,-4.620176033070866
411,1747666098380,0.8197821639999999,0.40529774874999996,-0.0668554132,1.3864605333333333,0.22744549333333333,-4.450764133333334
412,1747666098390,0.652933124590164,0.2642779852459016,-0.17211637213114755,1.5061433049180326,-0.2113093049180328,-3.995859836065574
413,1747666098400,0.5538317666666667,0.2276550496825397,-0.23046365428571428,1.5314779126984126,-0.5587477730158731,-3.5392272142857144
414,1747666098410,0.5143126639344262,0.20827685344262295,-0.26955123918032786,1.4690507836065574,-0.706741031147541,-3.2810173770491806
415,1747666098420,0.47542354,0.18768002,-0.31434575,1.3836098,-0.8588765,-2.9987376
416,1747666098430,0.47967350137931036,0.09717265198275862,-0.466620625862069,0.7612855379310344,-0.8831426517241379,-2.2181780689655173
417,1747666098440,0.4797480663157895,0.06130974756140351,-0.49075201719298245,0.18842513070175437,-0.599226669122807,-1.7146772684210525
418,1747666098450,0.44965109024999994,0.039362365975,-0.42501348683333334,-0.546174625,-0.07916813449999999,-1.136881295
419,1747666098460,0.40333715233333334,0.018043965333333335,-0.356909318,-0.8723563133333333,0.17607172566666668,-0.81847797
420,1747666098470,0.29315212193548384,-0.01841844991935484,-0.23564514677419357,-1.1983599677419354,0.37975127483870963,-0.1754365520483871
421,1747666098480,0.14496200508196722,-0.035380297573770494,-0.10015149016393443,-1.3274602401639344,0.4015737993442623,0.45498444339344263
422,1747666098490,0.09473191320325204,-0.029259089772357725,-0.05309733115853659,-1.2760875585365852,0.3027905035772358,0.8519186569105692
423,1747666098500,0.056987368,-0.01269097695,0.06296676875000001,-1.0383563671875,0.0684359975,1.53239366875
424,1747666098510,0.10753161950000001,0.000707765855,0.13672087200000002,-0.7291440120833333,-0.19982928749999998,2.1894937833333334
425,1747666098520,0.20382847357142858,0.022517186666666668,0.14491770785714286,-0.41582468857142857,-0.44497172,2.5651104428571427
426,1747666098530,0.2561880960655738,0.06437310237704919,0.13894859016393443,-0.07628304540983606,-0.6991953663934426,2.877701037704918
427,1747666098540,0.2609592149180328,0.08570810856557377,0.13138681721311474,0.0470566531147541,-0.7877758131147541,2.987832029508197
428,1747666098550,0.2396448388888889,0.11693441380952381,0.08326613015873016,0.5220376717460318,-1.055710892063492,3.652780273015873
429,1747666098560,0.24562618663865546,0.1108327557142857,0.06327029915966387,0.7437617924369748,-1.1367688462184875,4.124500486554623
430,1747666098570,0.26880822512195124,0.1129092213414634,0.0526330256097561,0.8196172723577236,-1.1634648577235773,4.336437985365854
431,1747666098580,0.3239390574358974,0.12207869358974358,0.03824814953846154,0.9034697128205129,-1.2168906358974358,4.593299466666666
432,1747666098590,0.46051417479674794,0.14714668040650405,0.016294293796747968,1.0090251772357723,-1.377694881300813,4.951872396747967
433,1747666098600,0.6412879514516129,0.19098857943548386,-0.012755927822580646,1.1004885064516128,-1.5969890129032256,5.3467066290322585
434,1747666098610,0.6872652,0.20061506,-0.021232981,1.1044444,-1.632232,5.45747
435,1747666098620,0.7887037375609757,0.2317651012195122,-0.0365192988292683,1.0507527845528455,-1.5668445235772357,5.726504045528456
436,1747666098630,0.8697453999999999,0.27384635677685953,-0.016311498033057852,0.9912273082644628,-1.3997750082644627,6.013751292561984
437,1747666098640,0.9669548,0.33899552,0.048323333,0.935678064516129,-1.1252729387096774,6.352289185483871
438,1747666098650,1.1450814112,0.41353255472,0.071801641672,1.0020291088,-0.85253818784,6.6648137472
439,1747666098660,1.555647094214876,0.6819040218181819,-0.002353840991735537,1.0726945247933886,-0.663339060661157,6.887137314049586
440,1747666098670,1.6525116,0.75145227,-0.024405725,1.0940597,-0.6059783,6.9479814
441,1747666098680,1.8212699247863247,0.9436692903418804,-0.095399265,0.9690829000000001,-0.4351553376923077,6.832465066666666
442,1747666098690,1.8792408,1.0086887,-0.122760795,0.8362694727272728,-0.26075363024793385,6.722097421487603
443,1747666098700,1.9010988292682929,1.070266474796748,-0.1368863499186992,0.31422311487804877,0.5101171929268293,6.278443119512195
444,1747666098710,1.9082323697478993,1.2298454756302521,-0.10981345126050421,-0.025913008067226892,1.2308985854621848,5.879562464705882
445,1747666098720,1.8008452217741937,1.3078043991935484,-0.002031185395161289,-0.1015218644032258,1.5787910806451613,5.6962199241935485
446,1747666098730,1.7378249907563026,1.3517100344537814,0.06003193053781512,-0.13485748235294115,1.8862800058823528,5.512591741176471
447,1747666098740,1.6862322266666667,1.4521812766666666,0.07814713013333334,-0.1195259628,2.0531588266666665,5.025058993333333
448,1747666098750,1.6661788,1.5441502,0.046614934,-0.103847094,2.053729,4.696943
449,1747666098760,1.5973966959016395,1.5850837819672132,-0.017892194401639343,-0.18233325752459015,1.8652119262295082,4.311121434426229
450,1747666098770,1.43670395,1.639088475,-0.11873384,-0.3717115,1.5491541999999998,3.63816075
451,1747666098780,1.2463603508196721,1.6654827344262295,-0.17048397967213114,-0.561164868032787,1.444811450819672,3.202496113114754
452,1747666098790,0.9629379311475409,1.6935772295081968,-0.19136888901639346,-0.8931350098360655,1.5017871,2.6452868426229506
453,1747666098800,0.8494168599999999,1.69346442,-0.15692881,-1.2498302504,1.6596915104,2.0478891336
454,1747666098810,0.8010866016528925,1.6922910173553718,-0.10761513033057851,-1.3513449528925618,1.7286325239669422,1.7792838446280992
455,1747666098820,0.7983821,1.7078812193548387,-0.016965914516129034,-1.352376851612903,1.7158711822580643,1.3968615967741935
456,1747666098830,0.8781002817741935,1.7458418669354838,0.16227445137096771,-1.0958923,1.459204375,0.63560527
457,1747666098840,0.9500164278991596,1.7550772344537815,0.23245119781512605,-0.8370650588235294,1.2255753364705884,0.2438070894117647
458,1747666098850,1.0421244,1.7596527,0.30287503999999993,-0.5186246,0.94989544,-0.1777618
459,1747666098860,1.2109127508474578,1.6829070508474577,0.33130149305084744,0.28576069589830505,0.4170139012711864,-1.1643194957627119
460,1747666098870,1.3018013,1.6273737,0.32606047,0.82894415,0.08246681,-1.8380935
461,1747666098880,1.3086858258333334,1.5244323891666665,0.22070504016666667,1.2220461333333332,-0.07810929900000001,-2.491800726666667
462,1747666098890,1.3034766372881357,1.4420307372881356,0.13814674271186442,1.4121651898305083,-0.14935136593220338,-2.9143968000000005
463,1747666098900,1.2810891724409448,1.341623148031496,0.04447991325984252,1.5018290251968502,-0.15412562864566928,-3.4115092236220472
464,1747666098910,1.20551982992126,1.1269391874015748,-0.09068744708661418,1.4187994787401577,-0.057147165811023616,-4.205994826771653
465,1747666098920,1.1870944,1.0862988,-0.0959145,1.3762794,-0.03359759,-4.355469
466,1747666098930,1.1584036959016395,1.0191030155737706,-0.09136543122950819,1.307456886065574,-0.0013318873147540975,-4.564059759016394
467,1747666098940,1.1554850622950819,0.9035699163934425,-0.09279176655737706,1.1224749278688524,0.08426435389344263,-5.009625865573771
468,1747666098950,1.1803395322033898,0.7990723955932203,-0.08754209474576272,1.0121882050847457,0.12630415398305084,-5.233588052542372
469,1747666098960,1.2024937177419357,0.725643219032258,-0.10022486725806451,0.8800400763709678,0.17266795056451614,-5.470913887096774
470,1747666098970,1.2035959008064518,0.6972203838709677,-0.1136716356048387,0.822820712016129,0.19715675056451612,-5.545739721774194
471,1747666098980,1.2135995423728814,0.6495087330508474,-0.11761077699152543,0.6768490437288136,0.2604356644067797,-5.676056440677966
472,1747666098990,1.2212625,0.62259,-0.09835507,0.5516113,0.30665436,-5.7848939999999995
473,1747666099000,1.1833312838709678,0.5924450183870967,-0.01143132458064516,0.48387916370967743,0.2888456660483871,-5.965133774193549
474,1747666099010,1.0648117016528926,0.5555227396694215,0.2164505611570248,0.4980470153719008,0.15541220041322312,-6.22937641322314
475,1747666099020,0.978229494488189,0.5548843578740158,0.2997215401574803,0.667050414488189,-0.017056119291338583,-6.26667396062992
476,1747666099030,0.7685159083333333,0.56896863125,0.29571603625,1.1234066270833334,-0.4175773020833333,-6.192595791666666
477,1747666099040,0.7470592,0.5720702,0.29042813,1.1878925573770494,-0.480200172295082,-6.142761
478,1747666099050,0.6744016081300814,0.693719825691057,0.22588588788617886,1.3379985333333333,-0.7220427033333333,-5.869600500000001
479,1747666099060,0.7429590833333334,0.7599129020000001,0.17683573116666668,1.3601423566666666,-1.0118066345,-5.526895175000001
480,1747666099070,0.873725,0.81246656,0.117635585,1.3121386,-1.3286319,-5.159979
481,1747666099080,0.9315115279279279,0.772625863063063,0.008583777486486489,1.1352683108108108,-1.3273881900900901,-5.0959589765765765
482,1747666099090,0.9378675672727272,0.7395821863636364,-0.05027579272727272,0.9958214727272727,-1.2757643363636364,-5.071347754545454
483,1747666099100,0.7774908504761905,0.5502987149999999,-0.100770465,0.6825255638095239,-1.0165379738095237,-4.91835245952381
484,1747666099110,0.6797057264957265,0.42317441145299145,-0.1217178194017094,0.50762904,-0.8558221999999999,-4.7390924
485,1747666099120,0.5608512936507936,0.2995454188095238,-0.17717781325396822,0.4412968065079365,-0.7136166365079365,-4.469797820634921
486,1747666099130,0.43044251830508473,0.21380240847457627,-0.24518239118644067,0.35310081542372884,-0.5575336415254237,-3.8678125847457627
487,1747666099140,0.3932674902439024,0.1543592632520325,-0.25960349097560975,0.18745120463414636,-0.697523697804878,-2.9975108463414633
488,1747666099150,0.4247619516129032,0.11749388709677419,-0.24301802870967742,-0.02378433314516129,-0.9657385933870968,-2.044896060483871
489,1747666099160,0.4595598,0.10665302,-0.22990192,-0.11728613,-1.1038336,-1.6798794
490,1747666099170,0.48668394276923077,0.10633761938461539,-0.21350127753846154,-0.17070394846153847,-1.1746187630769231,-1.4885752153846152
491,1747666099180,0.52252656,0.10592084,-0.191829,-0.24129178,-1.2681563,-1.2357804
492,1747666099190,0.5419973579661017,0.08388536940677967,-0.11544735305084745,-0.334961226779661,-1.1819259177966102,-0.7089246539830508
493,1747666099200,0.5449798,0.04637088,-0.007321717,-0.4550946,-1.0036516,0.04337143
494,1747666099210,0.457681779661017,0.05474328433898305,0.029576427677966102,-0.43645804033898306,-0.8654511020338983,0.2865164930508475
495,1747666099220,0.2706595,0.07834238,0.10494460999999998,-0.38912117,-0.57543504,0.8393288
496,1747666099230,0.26707465803278685,0.08083896491803279,0.10913759491803278,-0.3606007726229508,-0.5459532852459016,0.9543717639344261
497,1747666099240,0.24332508,0.09737884,0.13691612,-0.17165314,-0.35063666,1.7165314
498,1747666099250,0.3373451309836066,0.12116841639344263,0.13199095549180329,0.3310489018196721,-0.1945505613114754,2.5727441237704918
499,1747666099260,0.4339338,0.14082102,0.073949344,0.7470882,-0.13683382,3.0317242
500,1747666099270,0.4339338,0.14082102,0.073949344,0.7470882,-0.13683382,3.0317242
501,1747666099280,0.484105,0.18506512571428568,-0.10661815285714285,1.2301953428571428,-0.11807152571428571,3.6175440285714284
502,1747666099290,0.484105,0.18506512571428568,-0.10661815285714285,1.2301953428571428,-0.11807152571428571,3.6175440285714284
503,1747666099300,0.5078125986666666,0.22974464088888888,-0.19045143222222222,1.440012991111111,-0.2019792,4.2541742622222225
504,1747666099310,0.5095915,0.23551524,-0.19817449,1.4519631344,-0.21243938432,4.3186707664
505,1747666099320,0.5385477306451613,0.2769065606451613,-0.25830704048387093,1.4538888306451614,-0.2194484120967742,4.776936693548387
506,1747666099330,0.5725062850819671,0.2996142714754098,-0.2907241836065574,1.410728218032787,-0.19812062704918035,5.030325
507,1747666099340,0.7142579515999999,0.33682633184000005,-0.31879342664,1.1655407312,-0.068558628144,5.62569274
508,1747666099350,0.878623515,0.3673061664285714,-0.32729821499999995,1.0301370028571428,0.019591320428571427,5.8727277142857135
509,1747666099360,0.9187372335,0.37482720449999996,-0.3231684166666666,0.9596998465,0.07133378635000001,5.9720935925
510,1747666099370,1.00146060672,0.40448293624000003,-0.2950339676,0.8034637384,0.17522546887999998,6.133810240800001
511,1747666099380,1.0272369,0.43442193,-0.27310005,0.7173268359999999,0.2223793856,6.21401428
512,1747666099390,1.0622513274193548,0.646840282016129,-0.08244017661290322,0.5585081854838709,0.18394926838709677,6.565540387096775
513,1747666099400,1.0884954,0.6919023,-0.033435844,0.50885075,0.12767084,6.764722
514,1747666099410,1.1900089516666665,0.72800244525,0.026345980866666667,0.5664349741666667,0.02946915778333333,6.917423058333333
515,1747666099420,1.2600676,0.75291663,0.06760386,0.57726765,0.010995574,6.946149
516,1747666099430,1.9261712528455284,1.038771172682927,0.14616052788617886,1.237876213821138,0.08223835463414633,6.425135108943089
517,1747666099440,2.00478386,1.302347968,0.05778299548,1.7634848328,0.30831589823999994,5.5614830591999995
518,1747666099450,1.93954205703125,1.3934428734375,-0.004534126460937498,1.9383278273437499,0.3902569759375,5.151259488281251
519,1747666099460,1.6963061935483872,1.5727068637096775,-0.2692089316129032,1.89988935,0.5038554491935484,4.381992669354839
520,1747666099470,1.5326046133858267,1.6539529685039371,-0.4636107762204724,1.6450023614173228,0.6126882255905511,4.005693568503937
521,1747666099480,1.4252332925,1.6955999524999998,-0.5745412825,1.30195239,0.73343537425,3.7206274475
522,1747666099490,1.3413305459016394,1.7249865459016394,-0.6339967278688524,0.9964313950819673,0.8320635806557377,3.515569459836066
523,1747666099500,1.1714433008064515,1.7762839830645163,-0.6276955552419354,-0.01705004516129031,1.1419091068548388,2.8784856903225804
524,1747666099510,1.1158530939130435,1.7971631426086958,-0.57934098,-0.5081867652173914,1.289934895652174,2.529035191304348
525,1747666099520,1.1231514333333334,1.8106607,-0.5106491566666667,-0.8401333756097561,1.3953652146341464,2.0476203097560974
526,1747666099530,1.1442294738095236,1.8045864746031746,-0.4661260996825397,-0.9942170936507937,1.4506304206349205,1.681290253968254
527,1747666099540,1.1651092655737705,1.7904679852459016,-0.3733155619672131,-1.0852571672131148,1.4868259467213114,0.7937042054918033
528,1747666099550,1.1330539899999998,1.7733077649999998,-0.3137783145,-0.9967182910000001,1.434036715,-0.17524197000000002
529,1747666099560,1.0731533886178861,1.7382173975609756,-0.299605082601626,-0.8539498936585366,1.3268688642276423,-0.7300385734146342
530,1747666099570,1.002655796875,1.699008271875,-0.30194838218750003,-0.7223290678125,1.2094559390625,-1.1498965171875
531,1747666099580,0.9199941666666667,1.6284210833333332,-0.34831036125000003,-0.5518658488333333,1.0247773593333334,-1.6515658133333335
532,1747666099590,0.8681406525423728,1.5345574881355932,-0.411567372881356,-0.37393235440677963,0.6938807876271186,-2.4658352915254236
533,1747666099600,0.8911542300813008,1.4900686869918698,-0.4176751861788618,-0.33803196219512194,0.5604167085365853,-2.7886297414634145
534,1747666099610,0.9525735578512398,1.4280071809917354,-0.4129892173553719,-0.3290594780165289,0.44817315090909093,-3.0843343884297525
535,1747666099620,1.0797281023255814,1.3153948023255813,-0.3930475711627907,-0.3500589367441861,0.3386277009302326,-3.6026654341085274
536,1747666099630,1.1679256508474576,1.2258334288135593,-0.3486088803389831,-0.4126135874576271,0.3031392813559322,-4.294921127118644
537,1747666099640,1.1827015,1.2053988,-0.33509058,-0.42638394,0.3109304,-4.406171
538,1747666099650,1.230838612295082,1.1113187418032786,-0.24348909934426227,-0.4598513331147541,0.37538169180327874,-4.789574024590164
539,1747666099660,1.2950592136363637,0.9883902611363637,-0.11239945375000002,-0.4044275032954545,0.4172765051136364,-5.235198277272727
540,1747666099670,1.328276482644628,0.9025035620661157,-0.04819828018181818,-0.2889039153719008,0.40318116074380167,-5.4739987545454545
541,1747666099680,1.330196803478261,0.8496460923478261,-0.011759314852173913,-0.18577209559130434,0.3792623234782609,-5.621006680869565
542,1747666099690,1.3362515155963304,0.7850896082568807,0.053932175779816516,0.020887107541284405,0.2715604183486239,-5.8160647871559625
543,1747666099700,1.3712355710526314,0.7176117763157895,0.09793760763157895,0.3252214471052632,-0.015287709473684215,-6.041746736842105
544,1747666099710,1.3852689,0.6967834,0.08419975,0.5363397,-0.25228736,-6.205169
545,1747666099720,1.3852689,0.6967834,0.08419975,0.5363397,-0.25228736,-6.205169
546,1747666099730,1.2815510254385964,0.6383745637719298,0.026478070754385966,0.5543602007017544,-0.48109923263157894,-6.501787133333333
547,1747666099740,1.1474462099173555,0.604620593553719,0.0318686325785124,0.48820753223140495,-0.5377027371900825,-6.597112482644628
548,1747666099750,0.8608745612903227,0.5286831062903226,0.09695961463709678,0.3272759835483871,-0.4134326169354839,-6.475319477419355
549,1747666099760,0.7469699534146341,0.5140440926829268,0.16342312024390243,0.4409106302439024,-0.36218348048780485,-6.196914780487805
550,1747666099770,0.6939796345736434,0.5198041189147287,0.1874775926356589,0.6313363415503875,-0.3618642469767442,-5.8749608372093025
551,1747666099780,0.7101614929411764,0.5231746629411765,0.09738499357142856,0.9534066628571429,-0.45077747462184875,-5.405526067226891
552,1747666099790,0.7507201,0.51569295,-0.006833603,1.138042,-0.5338962,-5.15387
553,1747666099800,0.8079233476153846,0.5065952669230769,-0.19443478341538462,1.4085613184615384,-1.0443257815384615,-4.639352441538462
554,1747666099810,0.8607574915044248,0.49268032336283185,-0.39552393274336284,1.3785499030088495,-1.5307471557522125,-4.194860431858407
555,1747666099820,0.902112454015748,0.4300826565354331,-0.5485369291338582,0.6276423791338582,-1.826251377952756,-3.8757523157480316
556,1747666099830,0.9071608,0.38683072,-0.55645055,0.3316505688709678,-1.8202109096774195,-3.7899260741935485
557,1747666099840,0.8700804884033614,0.2259949570420168,-0.4841398613445378,-0.21383876647058825,-1.6133875285714285,-3.5651635941176467
558,1747666099850,0.714733923875969,-0.08339189637209302,-0.36048768844961243,-0.7698890706201551,-1.0249845382945737,-2.8114432790697674
559,1747666099860,0.6104359772,-0.20046080223999999,-0.3126510008,-0.9320923733600001,-0.72405610912,-2.2976693152
560,1747666099870,0.5141610353846153,-0.2544766,-0.2787922356923077,-0.9809273772307692,-0.5180512969230769,-1.7264554938461536
561,1747666099880,0.44890842999999997,-0.27981163428571426,-0.24855488571428572,-1.0077967214285715,-0.40631265714285714,-1.1462886571428572
562,1747666099890,0.39837828267716535,-0.27745659149606294,-0.20720652897637795,-1.0438869125984251,-0.43257916692913384,-0.4207466667716535
563,1747666099900,0.35325350158730157,-0.25466210968253966,-0.16170924055555555,-1.083757319047619,-0.5490951432539682,0.28334450873015876
564,1747666099910,0.3355787,-0.23795582,-0.11861181,-1.0940597,-0.61636305,0.7293731
565,1747666099920,0.3355787,-0.23795582,-0.11861181,-1.0940597,-0.61636305,0.7293731
566,1747666099930,0.3355787,-0.23795582000000004,-0.11861181,-1.0940597,-0.61636305,0.7293731
567,1747666099940,0.16327019462184872,-0.11697520546218487,0.004501729798319329,-0.808328712605042,-0.23765737655462185,2.3901001075630255
568,1747666099950,0.1853317,-0.04108617291338583,0.02317967323622047,-0.596348788031496,-0.11123519433070865,3.235733972440945
569,1747666099960,0.2785913540163934,-0.00287867537704918,0.017808177090163933,-0.4087389537704918,-0.11826751639344263,3.799051006557377
570,1747666099970,0.507294612016129,0.08535705258064516,0.004208019351693548,-0.040514159032258065,-0.21202936129032257,4.436201932258064
571,1747666099980,0.56743306,0.11153416,0.00048811449,0.03420845399999999,-0.2321288,4.5527787
572,1747666099990,0.56743306,0.11153416,0.00048811449,0.034208454,-0.2321288,4.5527787
573,1747666100000,0.6222295672307693,0.15239122,-0.00692747136023077,0.23393790435384618,-0.35793884076923077,4.798854033846154
574,1747666100010,0.7148437,0.22135992,-0.020012695,0.56382865,-0.5693264,5.2076263
575,1747666100020,0.732878352016129,0.2249204001612903,-0.030418587217741936,0.5656858737903226,-0.5737847314516129,5.258145854032258
576,1747666100030,0.9494640666666667,0.2718797766666667,-0.14033291333333334,0.5544620133333332,-0.5890777066666666,5.838446666666667
577,1747666100040,1.0341825540983607,0.3468573683606557,-0.11262241213114754,0.4709570803278688,-0.4783775836065574,6.012796722950819
578,1747666100050,1.0959124046875,0.44027925796875,-0.060545262718750006,0.43074113750000004,-0.348703846875,6.26308197578125
579,1747666100060,1.1198718504132232,0.4731483146280992,-0.0402049019338843,0.42624764181818187,-0.2909435158677686,6.407002036363636
580,1747666100070,1.1888594423999999,0.5358969932,-0.002380046232,0.48032089584,-0.28365649567999995,6.5689271952
581,1747666100080,1.3959810405405406,0.6528927248648648,0.06278207794594594,0.6408306702702702,-0.36287047432432434,6.76807304054054
582,1747666100090,1.4472593999999999,0.67750293,0.07907455,0.679893,-0.3903429,6.794043
583,1747666100100,1.4472594,0.67750293,0.07907455,0.679893,-0.3903429,6.794043
584,1747666100110,1.650434169918699,0.8315268613821137,0.057778074065040645,0.8536518829268293,-0.44492842520325204,6.553898552845528
585,1747666100120,2.0001618653846154,1.176233953846154,-0.06041355573076923,1.0324797115384616,-0.46186111538461544,5.987207742307692
586,1747666100130,2.0183535,1.25299,-0.11690342,0.9450085,-0.3811799,5.723196499999999
587,1747666100140,1.7907355358333334,1.4795767391666668,-0.16526133350000002,0.47322202850000006,0.20470095325,4.833227052500001
588,1747666100150,1.6902013272727272,1.5361407396694216,-0.15264672046280992,0.37751472,0.33475417,4.684725799999999
589,1747666100160,1.5575188140495868,1.601259596694215,-0.1158041627107438,0.21159160247933884,0.5234559876859505,4.417277780165288
590,1747666100170,1.4849008752,1.6226389544000002,-0.13332554591999998,0.09261694449279999,0.58970486792,4.036749048
591,1747666100180,1.3398599647058824,1.6389018294117648,-0.2007873188235294,-0.060763125248739495,0.6228566873949579,3.308651357983193
592,1747666100190,1.230769718018018,1.651884981081081,-0.2221492515315315,-0.15511024621621622,0.6529819459459459,2.920860389189189
593,1747666100200,1.1362212611940299,1.6668964268656716,-0.23214578985074627,-0.2429465829850746,0.6773265044776119,2.6127208097014925
594,1747666100210,0.9952655,1.6991266,-0.22990192,-0.37018433,0.6963863999999998,2.2547035
595,1747666100220,0.897194476484375,1.77337522109375,-0.2139676640625,-0.7286429459375,0.736732133203125,1.45964339921875
596,1747666100230,0.9194301909090908,1.8175043462809917,-0.1815624559504132,-0.9211898466942149,0.7771114698347108,0.921381641322314
597,1747666100240,0.9363747943548387,1.8374773766129031,-0.15529913258064518,-1.008233075,0.8038986625,0.5839871625
598,1747666100250,0.9312673806451612,1.8528984129032258,-0.11156565145161292,-1.0812708645161289,0.8414373251612903,0.11289183387096773
599,1747666100260,0.9017916,1.850442,-0.024161667,-1.1227703,0.88453287,-0.8032878
600,1747666100270,0.9030833019512196,1.8394931528455285,-0.015857768073170735,-1.1227703,0.88453287,-0.8032878
601,1747666100280,0.9089993746666667,1.7900785066666667,0.009941265199999999,-1.0863830766666667,0.9083973795,-1.3031588833333332
602,1747666100290,0.90081537,1.7603849,0.03099527,-0.9987647,0.9443977,-2.221106
603,1747666100300,0.90081537,1.7603849,0.03099527,-0.9987647,0.9443977,-2.221106
604,1747666100310,0.9228216049473685,1.7008940231578946,0.030589365010526316,-0.9960318747368421,1.013547652631579,-2.648724569473684
605,1747666100320,0.98477095,1.5229172,0.054912884,-0.9407325,1.2571607,-3.9602394
606,1747666100330,0.98477095,1.5229172,0.054912884,-0.9407325,1.2571607,-3.9602394
607,1747666100340,1.099707567647059,1.2659871764705883,0.172223068627451,-0.7963766529411764,1.652761782352941,-4.601576090196079
608,1747666100350,1.1541411363636362,1.1905112977272727,0.21168638113636362,-0.7084787568181817,1.764511990909091,-4.841509672727273
609,1747666100360,1.2207743,1.1136333000000003,0.2545517,-0.5830393137931035,1.8787265344827586,-5.13303731724138
610,1747666100370,1.25764798359375,1.02296595265625,0.282471470390625,-0.40636858015625005,1.898063359375,-5.435268760937499
611,1747666100380,1.2703179,0.97281224,0.30507155999999996,-0.30909783,1.8845193,-5.5674257
612,1747666100390,1.2760312007874015,0.8642970381102363,0.33858619700787396,0.1261364553543307,1.6956031771653546,-5.834955859055118
613,1747666100400,1.270653528125,0.8296039429687501,0.32555712609375,0.4046218696875,1.673942546875,-5.921193109374999
614,1747666100410,1.2542102,0.79709095,0.31434575,0.44898596,1.6762142,-5.9302797
615,1747666100420,1.14753054609375,0.760478584765625,0.384226196953125,0.93693365734375,1.339594065625,-5.6424858382812495
616,1747666100430,1.0223790746031747,0.7862749841269842,0.41902690984126983,1.7767257984126985,0.843721258095238,-5.2226555460317465
617,1747666100440,1.0313859,0.788793,0.42270714,1.8942931,0.81245077,-5.2076263
618,1747666100450,1.0313859,0.788793,0.42270714,1.8942931,0.81245077,-5.2076263
619,1747666100460,1.020663779831933,0.728061714789916,0.28193328218487396,1.9631976781512606,0.7683247440336135,-5.0595710403361345
620,1747666100470,0.9382170925,0.48247065,-0.2798421475,1.987955975,0.5466098390625,-4.1751113046874995
621,1747666100480,0.93107843,0.47151858,-0.30385128,1.9620992,0.5338962,-4.1105123
622,1747666100490,0.9371878547540984,0.4140851106557377,-0.3128813984426229,1.6964228836065574,0.5618357803278689,-3.910529021311475
623,1747666100500,0.97208,0.13057062,-0.35193056,0.34147367,0.70432764,-2.8906143
624,1747666100510,0.9940215403225807,0.07727560543548387,-0.29015651846774193,0.18810215693548388,0.7789221716935484,-2.797826859677419
625,1747666100520,0.9799580023255814,-0.35540410755813956,0.1663732591860465,-0.27192501534883723,1.079308907751938,-2.0578155356589147
626,1747666100530,0.9839588418032787,-0.4788603293442623,0.23595534606557378,-0.14131016042622951,0.9881696563934426,-1.5685416918032786
627,1747666100540,1.0343609867768595,-0.6018734255371901,0.2590617225619835,0.1713704202479339,0.7413632380165289,-0.7019598933884298
628,1747666100550,1.2764752047244095,-0.7266449207086615,0.16878961188976377,0.5276288337007874,0.3363173892913386,-0.09335656445669291
629,1747666100560,1.3118078,-0.7365648,0.14716652,0.6271142512,0.17080281008,0.076074715024
630,1747666100570,1.354463469047619,-0.7056275968253968,0.03537086803968254,0.70554936,-0.07391469,0.25595254
631,1747666100580,1.3562261,-0.7043492,0.030751213,0.70554936,-0.07391469,0.25595254
632,1747666100590,0.8089691027419355,-0.4736836265322581,-0.16479965829032256,0.28050536645161295,-0.07430880135483872,0.6947508232258065
633,1747666100600,0.6290156109375,-0.371826935078125,-0.19882276375000002,-0.407337351953125,0.24223192632031249,1.3936031421875001
634,1747666100610,0.49177536,-0.2767609,-0.2272173,-0.888979964,0.5166942464,1.990296708
635,1747666100620,0.48127304822580647,-0.19745018927419355,-0.1763254568548387,-1.1368202,0.6059783,2.4269676
636,1747666100630,0.5635503545454547,-0.09132178745454544,-0.059616532,-1.2374614983471073,0.44868305338842973,2.9272662636363638
637,1747666100640,0.64431113,-0.041001618,0.007321717,-1.2889256,0.25595254,3.3707545
638,1747666100650,0.88297569368,0.07084689003200001,0.099333252712,-0.9605684656,-0.26579969408,3.6727906336
639,1747666100660,1.0976706669421488,0.18133453388429752,0.1638753658677686,-0.6220375189256198,-0.7883594603305785,3.9356684123966943
640,1747666100670,1.1356233007874017,0.2420432893700787,0.09300502876377953,-0.4303425359055118,-1.0761039992125983,3.9247514803149604
641,1747666100680,1.0996648048387097,0.3156014409677419,-0.034976944322580646,-0.4618436677419354,-1.3340213016129032,4.092452435483871
642,1747666100690,1.0479738573770492,0.32748081770491805,-0.05101996802459016,-0.7455810770491804,-1.3347505713114753,4.285615114754099
643,1747666100700,0.991783243902439,0.33631089634146344,-0.05087105707317074,-0.9368686317073172,-1.2887369365853658,4.48093474796748
644,1747666100710,0.9637821,0.3414361,-0.04637088,-1.0555751,-1.2229521999999997,4.663956
645,1747666100720,0.9504258058064515,0.3647002638709677,0.02194547109677419,-1.2268587693548387,-1.1205091572580643,5.051791594354838
646,1747666100730,1.0512805838709678,0.4343510709677419,0.09004138032258065,-1.3448099258064516,-1.0913206354838707,5.458435809677419
647,1747666100740,1.1521943,0.4834774,0.10518867,-1.4251486,-1.1594223,5.8154373
648,1747666100750,1.2141693444444444,0.5213101396825397,0.14125490428571427,-1.429094973015873,-1.2243582396825397,5.8455733301587305
649,1747666100760,1.2549424,0.5462001,0.16498269,-1.4318681,-1.2699889,5.86675
650,1747666100770,1.3027890771653543,0.6074257751181104,0.24344230228346456,-1.411401722047244,-1.4530801283464565,5.854580464566929
651,1747666100780,1.3064384,0.61209553,0.24942651,-1.385323288559322,-1.4963869525423728,5.856701438983052
652,1747666100790,1.687751151219512,0.9792529387804878,0.46216108463414635,-0.7838344683739839,-1.940321556910569,5.814418866666666
653,1747666100800,1.7201557992125984,1.1841619165354331,0.39109692377952754,-0.5414190057480315,-1.5511311181102363,5.253864342519686
654,1747666100810,1.630344348360656,1.3155205319672132,0.3365349376229508,-0.4962328700819672,-1.3105112172131148,4.89034187295082
655,1747666100820,1.495707824390244,1.4240740073170732,0.30588707487804884,-0.5554900353658536,-1.1240168780487805,4.584027200813009
656,1747666100830,1.3987565488,1.5126433912,0.26956221263999997,-0.6714874999999999,-0.9314228859999999,4.280454848000001
657,1747666100840,1.3335923666666665,1.5941303203252035,0.2369518093495935,-0.7808496772357724,-0.7776612621951219,4.046113035772358
658,1747666100850,1.20710902578125,1.87606797109375,0.232495028515625,-1.1958259859375,-0.378087394921875,3.2395949203125
659,1747666100860,1.1963686,1.9285403,0.2443013,-1.3469579,-0.2950479,2.932764
660,1747666100870,1.20464364921875,2.14118460703125,0.30572173171875,-1.5750873875,-0.22035054296874998,2.346228446875
661,1747666100880,1.2405604285714287,2.3291195,0.41998764166666663,-1.6744834476190478,-0.038019084761904756,1.2860168023809524
662,1747666100890,1.263329631707317,2.4527573658536586,0.5479025560975609,-1.6549432081300814,0.07586648512195124,0.6814474947967479
663,1747666100900,1.2317569,2.498902,0.6628595,-1.4653791456692913,0.23026252748031495,0.06967711944881891
664,1747666100910,1.214230394308943,2.5193097813008127,0.7831439965040651,-1.1246029,0.39828414,-0.6053675
665,1747666100920,1.2138166721311476,2.51918298852459,0.7858003262295082,-1.1209877795081968,0.3996260408196722,-0.6108102090163934
666,1747666100930,1.180319848387097,2.3060654427419354,0.5615422571774193,-0.116956064125,0.9784484879032258,-2.522292195967742
667,1747666100940,1.1936478148148149,2.2261907555555553,0.48984094703703707,0.008371116462962963,1.1596484851851852,-3.0005475222222224
668,1747666100950,1.2241639976190475,2.1418773063492065,0.449214469047619,0.031154128,1.2791518,-3.2950072
669,1747666100960,1.2817886999999997,1.9932156,0.4373506,0.06704997229508196,1.4597025475409837,-3.7284361344262296
670,1747666100970,1.3265911682170541,1.7931207573643413,0.48863474031007753,0.1965991685271318,1.6800783472868217,-4.308048985271318
671,1747666100980,1.3950055798387095,1.5309396540322582,0.5719127419354839,0.4244922275806452,1.7806673258064518,-4.768729401612903
672,1747666100990,1.4909224333333333,1.3873530825396825,0.5602276263492063,0.8676904285714286,1.7809340142857144,-5.276653942857143
673,1747666101000,1.7498962653543306,1.1523460393700788,0.4609876340157481,1.250825925984252,1.9779912181102361,-5.899063009448819
674,1747666101010,1.7813739,1.1231513999999998,0.447601,1.2791518,1.998751,-5.9547143
675,1747666101020,1.8097612404958676,1.0521206798347107,0.44735089917355375,1.3710542041322316,2.039098490909091,-6.227619909090909
676,1747666101030,1.842806882113821,0.7933884515447154,0.4735028341463415,1.5746616552845527,1.9955527699186992,-6.602286174796748
677,1747666101040,1.850973800813008,0.658466462601626,0.4995356048780488,1.730923951219512,1.9462464902439025,-6.797723202439024
678,1747666101050,1.8616686,0.5269196,0.53009236,1.9694295,1.8606955,-7.020674
679,1747666101060,1.7835560352941178,0.4241571252941176,0.4971158976470588,2.0876294277310925,1.8845243647058825,-7.111328579831933
680,1747666101070,1.7486702,0.40098605,0.4829893,2.126422,1.8759671,-7.144069
681,1747666101080,1.5055653804878049,0.35729386365853655,0.40103367073170726,2.3940703414634146,2.224368950406504,-7.1285142780487805
682,1747666101090,1.0834355390243902,0.31148847146341463,0.2724512243902439,2.609482268292683,2.3716172,-6.586289663414634
683,1747666101100,0.9316865717213115,0.366804041147541,0.20738665073770493,2.8616583073770494,1.8797274672131148,-5.949396901639344
684,1747666101110,0.9373351618181818,0.3977023709090909,0.15553102363636365,2.9631961727272724,1.405101090909091,-5.616406072727273
685,1747666101120,1.0903876987692307,0.28779793207692306,-0.0830320323076923,2.7768993784615383,0.14521675692307695,-5.10645754
686,1747666101130,1.2169915073770492,0.1294583579057377,-0.3029650757377049,2.431443908196721,-0.6689275049180328,-4.8074093065573775
687,1747666101140,1.2511094893442625,-0.07524565041393443,-0.4734790872131147,1.5994755573770492,-0.7881813901639344,-4.530852651639345
688,1747666101150,1.2437349228346457,-0.22635060866141732,-0.5279900275590551,0.9486641384251968,-0.7121341762204725,-4.301679443307086
689,1747666101160,1.2030752439024393,-0.518230771707317,-0.4877176476422764,-0.25694084666666667,-0.33890107333333336,-3.7189377463414632
690,1747666101170,1.10521705,-0.7375257618750001,-0.262651358,-1.10116095,0.09372963562499999,-2.93658200625
691,1747666101180,0.9707162,-0.9343927008403361,0.15847929265546218,-1.9364223159663865,0.6944613715966387,-1.4187114707563027
692,1747666101190,1.011252212396694,-0.9466940694214875,0.4033298100826446,-1.8316769157024793,0.7687158524793388,-0.5305036533884298
693,1747666101200,1.107502484,-0.8848149,0.5188071248,-1.299212606,0.581128332,0.20911139599999998
694,1747666101210,1.1483978000000001,-0.7330937344444445,0.5406139311111111,-0.40529454428571426,0.22040599904761904,1.0014990428571429
695,1747666101220,1.0925827960629921,-0.672354657952756,0.4746106496062992,-0.046733596456692915,0.08094204911811023,1.2217593669291338
696,1747666101230,1.0106411,-0.6016011,0.37706846,0.27366763000000005,-0.034208454,1.4306464
697,1747666101240,0.9807351526829269,-0.58312418,0.3317809575609756,0.3218812856097561,-0.0526238067804878,1.5313646634146343
698,1747666101250,0.70410514,-0.41221267,-0.08712844,0.7678576,-0.22296582,2.4630086
699,1747666101260,0.656948326440678,-0.3650558479661017,-0.17854649932203392,0.7321375152542373,-0.20588229457627116,2.775171057627119
700,1747666101270,0.6484601,-0.35656762,-0.19500175,0.7257079,-0.20280726,2.8313603
701,1747666101280,0.663329895967742,-0.19146093661290323,-0.32070106935483866,0.30872833266129035,-0.21418216153225805,3.772954951612903
702,1747666101290,0.7287334791999999,-0.063745794784,-0.35058530256,-0.0270979836,-0.3641001236,4.325439047999999
703,1747666101300,0.7638377165354331,-0.009153107874015748,-0.351605785511811,-0.16126843,-0.46670106,4.496579
704,1747666101310,0.8158020466666667,0.04026944666666667,-0.32752484,-0.231874273,-0.5220250826666667,4.598328749999999
705,1747666101320,0.9350879332467533,0.08333762675324675,-0.2978893002597403,-0.38423425,-0.6414085,4.817894
706,1747666101330,1.1202227,0.1701079,-0.28554696,-0.8201561425742574,-1.1296410970297028,5.754423336633662
707,1747666101340,1.209891713114754,0.20558021999999998,-0.3074961131147541,-0.9834429581967213,-1.214099724590164,6.006152409836066
708,1747666101350,1.4874437837209304,0.3606087972093023,-0.3900999867441861,-1.5217221651162791,-1.237925565116279,6.556331279069767
709,1747666101360,1.4950947,0.36584184,-0.39268813,-1.5399913,-1.2363913,6.572299
710,1747666101370,1.7818619,0.5757311,-0.33411437,-2.4410176,-1.1539245,6.9339314
711,1747666101380,1.7818619,0.5757311,-0.33411437,-2.4410176,-1.1539245,6.9339314
712,1747666101390,2.2201023984615387,0.6821287769230769,0.2116577136,-3.2895093,-1.6120734,6.5582495
713,1747666101400,2.0025421731182798,0.8586800024731183,0.7782460792473118,-2.637985475268817,-2.3158887215053765,5.959700069892473
714,1747666101410,1.9719662591666667,0.9047710648333334,0.8037516960833333,-2.5071742666666665,-2.331973054166667,5.928330306666667
715,1747666101420,1.8823572076923076,1.0822624615384615,0.8737249546153846,-2.038043876923077,-2.364837913846154,5.84969269076923
716,1747666101430,1.8455609,1.1780643,0.9130182,-1.922393,-2.3768766,5.8319306
717,1747666101440,1.8455609,1.1780643,0.9130182,-1.922393,-2.3768766,5.8319306
718,1747666101450,1.7612127696,1.6540579168,0.88571883728,-1.08265841224,-2.4632138256,5.0693165496
719,1747666101460,1.70160403697479,1.7899507302521007,0.8450553638655461,-0.90224797,-2.3829854,4.5594983
720,1747666101470,1.6278619,1.8709428,0.8088057,-0.8793109354032258,-2.2845472967741935,4.175781319354838
721,1747666101480,1.3003207908333332,1.951058745,0.7313073791666667,-1.1632350425,-1.6454723983333333,3.161268366666667
722,1747666101490,1.05642624,1.9777911799999999,0.7215308720000001,-1.4723127313043478,-1.0030991495652175,2.3449681982608697
723,1747666101500,0.9209697174193547,1.9693746741935483,0.7485196649193548,-1.6427348774193549,-0.618471475,2.018742112903226
724,1747666101510,0.7232838294488189,1.9260824976377953,0.8179857149606299,-1.7793591291338584,-0.05235644228346456,1.6112268582677165
725,1747666101520,0.6269831,1.9048668,0.8690878,-1.7898352,0.26145032,1.3836098
726,1747666101530,0.5723182105691057,1.8741354504065042,1.0089227723577237,-1.2585165263414635,0.6348677968292683,0.7374186819512195
727,1747666101540,0.5957437,1.8455609,1.0814177,-0.71593404,0.74097955,0.22357668
728,1747666101550,0.6779545106299212,1.819262301574803,1.0520250582677166,-0.24222971748031497,0.6807203358267717,-0.2032594044094488
729,1747666101560,0.7462248328205128,1.750760305982906,0.7263998596581197,0.8741168179487179,0.5230363974358975,-1.4386033564102565
730,1747666101570,0.7626828224,1.72380756,0.58285749808,1.1413943648,0.49718077056,-1.8069981024000001
731,1747666101580,0.8286424229508196,1.6803101409836065,0.3530468186885246,1.3556752901639344,0.5481814536065573,-2.3909816598360654
732,1747666101590,0.8575587256198347,1.6609406603305785,0.2816360085123967,1.382999,0.5852089,-2.5454755
733,1747666101600,0.9224914768,1.5805499288,0.17914778039999998,1.1992995928,1.06714246128,-3.0960605192000004
734,1747666101610,0.9618296,1.5141312,0.15277983,1.059587976724138,1.415780220689655,-3.391671143965517
735,1747666101620,0.9618296,1.5141312,0.15277983,1.0189233,1.6102408,-3.566842
736,1747666101630,0.9618296,1.5141312,0.15277983,1.0189233,1.6102408,-3.566842
737,1747666101640,0.9618296,1.5141312,0.15277983,1.0189233,1.6102408,-3.566842
738,1747666101650,1.1642101741935484,1.407651329032258,0.26783905258064516,1.2157991556451615,1.651085018548387,-3.9482190959677417
739,1747666101660,1.664974555737705,1.151506094262295,0.3685884426229508,1.6785174786885246,1.6407139262295083,-5.043012934426229
740,1747666101670,1.6805782,1.1277885,0.35290676,1.6939293,1.6566665,-5.20335
741,1747666101680,1.6805782,1.1277885,0.35290676,1.6939293,1.6566665,-5.20335
742,1747666101690,1.6817488829268294,1.1174111097560977,0.35334328682926824,1.690130019512195,1.6671257146341465,-5.240672414634147
743,1747666101700,1.7341068459016393,0.8774777803278687,0.49030703344262294,1.7622060409836064,1.9614282172131148,-6.075645616393443
744,1747666101710,1.734759,0.8754333,0.49250754999999996,1.7647897,1.9633209,-6.0799417
745,1747666101720,1.6648621548387095,0.7857324370967741,0.5094872186290322,2.0970265193548387,1.948793168548387,-6.214834545967742
746,1747666101730,1.503579725,0.6329583875,0.4965710528333333,2.7427137999999998,1.8544240016666664,-6.411610980000001
747,1747666101740,1.4063890957983194,0.622788987394958,0.40697263588235294,2.958076540336134,1.6438280226890756,-6.35427147394958
748,1747666101750,1.355494,0.6282034,0.35485923,3.0360003,1.5167783,-6.304129
749,1747666101760,1.2679984975609757,0.6576489417886178,0.2892376031707317,3.0807473813008133,1.2514543536585363,-6.162517912195122
750,1747666101770,1.1480812046511628,0.6057841203100776,0.06650276088372092,3.325337281395349,0.41330004220930233,-5.645232872093024
751,1747666101780,1.1036380977011495,0.5694556689655171,-0.11940009735632183,3.392787734482759,0.018978951379310337,-5.41378274137931
752,1747666101790,1.1042590426229508,0.5356896306557377,-0.35968036,3.115127409016394,-0.33025278450819673,-5.133566422131147
753,1747666101800,1.1658033809523811,0.4653009395238096,-0.6157099342857142,2.38747955,-0.6714282071428572,-4.7259153
754,1747666101810,1.2093037,0.37609223,-0.71728426,1.9694295,-0.6560693,-4.5857654
755,1747666101820,1.292668916935484,0.21798249129032257,-0.8090615979838709,1.0872809967741934,-0.5965148594354839,-4.382899069354838
756,1747666101830,1.3308441999999998,0.09640261,-0.84809893,0.3885103,-0.60903263,-4.255898
757,1747666101840,1.2428521811965814,-0.1833516582051282,-0.7231436874358974,-0.8898269974358973,-0.6831196233333334,-3.9110568905982905
758,1747666101850,1.1311704789915966,-0.434013785210084,-0.4878109631092437,-2.1254003521008404,-0.6547551735294118,-3.298225790756303
759,1747666101860,1.0543274,-0.5786598,-0.21184166999999998,-2.6254988,-0.5626069,-2.6499333
760,1747666101870,1.02232563539823,-0.6219939836283185,-0.02681605221238938,-2.6959266867256635,-0.4668524181415929,-2.2371614477876105
761,1747666101880,0.9465339171681415,-0.7211848432743362,0.46276276159292035,-2.6603883725663717,-0.03452740283185841,-0.7531050040707965
762,1747666101890,0.94913864,-0.71264714,0.52252656,-2.2968533,0.30604348,0.05375614
763,1747666101900,0.8951016440322581,-0.685909129516129,0.5602963688709678,-1.8658238201612902,0.5091561767741936,0.42394536741935485
764,1747666101910,0.7214286774766354,-0.5965238275700935,0.5309248514018692,-1.1925688026168224,0.6222433263551402,0.9051252695327102
765,1747666101920,0.5077516946153846,-0.4795099115384615,0.4666061523076923,-0.52106804,0.65301496,1.3683381000000001
766,1747666101930,0.3072680556521739,-0.2773551408695652,0.2932506930434783,-0.16046632817391301,0.5138014270434783,1.6941365373913042
767,1747666101940,0.23959953470085468,-0.14673472290598288,0.1482783314102564,0.3141465864957265,0.14055644555555555,2.2747682717948714
768,1747666101950,0.26082689776,-0.096014068672,0.06583297354400001,0.7654092608,-0.290507968,2.905988664
769,1747666101960,0.3694924070588235,-0.05283942142857143,-0.07718361672268907,1.0460323319327731,-0.8591281084033614,3.787112930252101
770,1747666101970,0.4634420009302325,-0.03680156209302325,-0.19189710488372091,1.0255433693023257,-1.0234976302325582,4.184185311627908
771,1747666101980,0.5108118,-0.024405725,-0.24015234,0.93523467,-1.0085385,4.3664646
772,1747666101990,0.530078862992126,0.007948194244094488,-0.2508639519685039,0.6858814066141733,-0.88872234,4.6623878503937
773,1747666102000,0.5723955552380953,0.0684057580952381,-0.26449994666666665,0.26145032,-0.68477994,5.166087
774,1747666102010,0.6747369400000001,0.08062024666666666,-0.21542118333333332,0.004316783200000001,-0.5191539876666666,5.53525356
775,1747666102020,0.7751049564102565,0.10268552581196581,-0.16136564743589743,-0.17930199538461536,-0.39311526495726495,5.868060295726496
776,1747666102030,0.904988056910569,0.14220799215447155,-0.1113317777886179,-0.310051363902439,-0.4183681878048781,6.111349197560976
777,1747666102040,1.0915143472440945,0.204389294015748,-0.04762575551181103,-0.46317534377952757,-0.5767289480314961,6.363469889763779
778,1747666102050,1.1527402467625898,0.23081319,-0.015089409618705035,-0.5131443682014388,-0.6805082827338129,6.440550097122302
779,1747666102060,1.1983211,0.25650415,0.018060237,-0.5510004999999999,-0.7800749,6.5240407
780,1747666102070,1.2285686056,0.33314594632,0.08375263676,-0.6126636291199999,-0.9273178776,6.8900419688
781,1747666102080,1.2881342,0.44516042,0.19207305,-0.68111473,-1.1081096,7.4604974
782,1747666102090,1.5438819925619836,0.5138776644628099,0.2749799050413223,-0.6335429802479339,-1.1595787190082645,7.698734723966942
783,1747666102100,2.1057528228346456,0.6830835760629922,0.38420951283464566,-0.4401933345669291,-1.0856374381889762,7.75150491023622
784,1747666102110,2.4793775333333334,0.8695759799999999,0.4215682,-0.2026433687804878,-0.8637187756097562,7.269077819512195
785,1747666102120,2.6399672,0.99404514,0.4217309,-0.03481932,-0.6762278,6.758613000000001
786,1747666102130,2.3538007386363633,1.4452533696969696,0.23583695810606062,0.02399034333333333,-0.0915649957878788,5.224017790909091
787,1747666102140,2.1102506761061943,1.5791130300884957,0.12301133203539824,-0.1566139525663717,0.26604532481415927,4.765629881415929
788,1747666102150,1.9025959460992907,1.6618447304964539,-0.0012999112056737588,-0.5218348673758865,0.7149159526241134,4.419562178723405
789,1747666102160,1.5725441560975608,1.8050414780487805,-0.1783344112195122,-1.5173296495934958,1.5077147162601627,3.823236693495935
790,1747666102170,1.4776810280701755,1.8712554631578946,-0.12028596333333333,-1.9403652052631581,1.6222008263157894,3.5362989315789473
791,1747666102180,1.4209599969924813,1.9400478045112783,-0.019575962481203003,-2.2823027443609023,1.5784481857142856,3.190370104511278
792,1747666102190,1.3931334915887852,2.0238960831775703,0.11059670971962617,-2.4773896532710284,1.4486468953271028,2.796067321495327
793,1747666102200,1.3651130347826086,2.199475694927536,0.4167843595652174,-2.4865403043478262,1.2462713608695652,1.7748823086956522
794,1747666102210,1.2775209765765765,2.3110199027027027,0.5088769807207207,-2.343768917117117,1.2893714234234235,1.1552397301801802
795,1747666102220,1.1839930861788617,2.3519995495934958,0.542777380487805,-2.2189158585365854,1.4065842390243903,0.6256452070731707
796,1747666102230,1.0445239655999998,2.3303171216000003,0.6334046768,-1.9512842992000001,1.6432177535999999,-0.16476746824
797,1747666102240,0.9327848300813008,2.2212859959349593,0.7878783097560976,-1.435831319512195,1.8931757,-1.1167510999999999
798,1747666102250,0.9203399,2.1682045,0.8300387,-1.1557571,1.9388863,-1.459968
799,1747666102260,0.9203399,2.1682045,0.8300387,-1.1557571,1.9388863,-1.459968
800,1747666102270,0.918152865,1.9175255390625,0.900186103125,-0.0704499434375,1.7753032765625,-2.36980397109375
801,1747666102280,1.0353368527049178,1.6685253762295083,0.794006231557377,1.0115878332786885,1.3504828459016394,-3.1605016459016397
802,1747666102290,1.1569232975409836,1.5292886918032786,0.6903219219672132,1.4456676836065574,1.1601432213114755,-3.5298398098360653
803,1747666102300,1.2206864368,1.4880424056,0.65565881488,1.6480900440000001,1.07160426,-3.8070588159999996
804,1747666102310,1.3103434,1.4345685,0.6130718,1.7611245,1.0421361,-4.030489
805,1747666102320,1.3103434,1.4345685,0.6130718,1.7611245,1.0421361,-4.030489
806,1747666102330,1.602370428448276,1.1411253749999999,0.5593287181034483,1.871601595689655,1.2941864586206895,-5.012618033620689
807,1747666102340,1.7315861,0.9803779,0.54668826,1.9443841,1.427592,-5.5497108
808,1747666102350,1.7315861,0.9803779,0.54668826,1.9443841,1.427592,-5.5497108
809,1747666102360,1.7008227191666665,0.8664275883333333,0.5485552958333334,2.0895562283333335,1.402169865,-5.857138893333333
810,1747666102370,1.5770883133858267,0.598226609055118,0.5256609058267716,2.4602285023622046,1.2326298535433071,-6.511198062204724
811,1747666102380,1.4826478,0.50837123,0.48323336,2.5460863,1.1453724,-6.5967336
812,1747666102390,1.4400464789915968,0.4971240908403361,0.47452113210084035,2.562102256302521,1.113155667226891,-6.569752900840337
813,1747666102400,1.0601847,0.3968371,0.3968371,2.7049112,0.8258898,-6.329175
814,1747666102410,0.999314079032258,0.4197686381451613,0.38675201919354835,2.7073153379032258,0.7585763983870968,-6.180123713709678
815,1747666102420,0.9364477,0.44345203,0.37633628,2.7097983,0.689056,-6.0261854999999995
816,1747666102430,0.8510276,0.4893348,0.37121108,2.7159069,0.462425,-5.5454345
817,1747666102440,1.1983211,0.41099238,-0.032215554,2.666427,0.06536258,-4.569883
818,1747666102450,1.1983211,0.41099238,-0.032215554,2.666427,0.06536258,-4.569883
819,1747666102460,1.1195319784615385,0.40690350215384613,-0.22819726750769231,2.1824711184615384,0.023184685246153847,-4.533729172307693
820,1747666102470,1.1025227098360655,0.40361867278688524,-0.2590527491803279,1.912799332786885,0.023047644901639342,-4.5074294901639345
821,1747666102480,0.8255779907563026,0.18310652336134453,-0.3385955882352941,0.683065405210084,0.1294264355462185,-4.185243075630252
822,1747666102490,0.7911872165289257,0.04882758991735537,-0.30842382553719006,0.3858346036363636,0.10743151123966942,-3.928686396694215
823,1747666102500,0.7810137203125,-0.0422295309375,-0.28569191,0.2189283708105469,0.0745160175,-3.7394784296875
824,1747666102510,0.824745412295082,-0.3579959803278689,-0.1612418193442623,-0.15563043854508196,-0.4006975534426229,-2.6046693901639344
825,1747666102520,0.9006313,-0.4658264476923077,-0.07849632307692309,-0.30641939869230767,-0.7319810187692307,-1.885477866153846
826,1747666102530,1.0491303647058825,-0.47984529,0.002210869411764705,-0.4323899205042017,-1.0260739294117647,-1.2175365571428571
827,1747666102540,1.1325651428571428,-0.48068821,0.041803520000000004,-0.5017094423809524,-1.1149018023809525,-0.9066258192857143
828,1747666102550,1.1900232,-0.48152497,0.06760386,-0.54061574,-1.1239921,-0.75136423
829,1747666102560,1.1900232,-0.48152497,0.06760386000000002,-0.5421056554471544,-1.0821751406504065,-0.727922898292683
830,1747666102570,0.9173496510569105,-0.40817880772357723,0.08201315691056911,-0.5312342374796748,-0.08389215796747969,-0.2294072152682927
831,1747666102580,0.725890756446281,-0.34404810520661155,0.06914686383471075,-0.5326795363636364,0.25759833925619835,0.030376663884297522
832,1747666102590,0.4941722759349593,-0.25329768284552845,0.04924995895934959,-0.5373081219512195,0.49144854024390244,0.45154861829268295
833,1747666102600,0.37218732,-0.16034561,0.04807928,-0.5308419,0.6609562,1.1184943
834,1747666102610,0.2593777398387097,-0.008917930362903224,0.045868982782258066,-0.4929091258870968,0.3129896199193548,2.0295110266129033
835,1747666102620,0.3364716154471545,0.07718359883739837,0.037422110691056915,-0.4732318364227642,0.02803027081300813,2.511733875609756
836,1747666102630,0.4934837729508197,0.15219169418032785,0.04088358991803279,-0.43839095409836065,-0.35986973950819673,3.0313838311475405
837,1747666102640,0.6379518966935483,0.19753875991935485,0.07077069598387097,-0.3652974120967742,-0.9171058161290323,3.692399579032258
838,1747666102650,0.68532424015625,0.21910240781249998,0.08317775940625,-0.27328582734374995,-1.0921984265625,3.882077325
839,1747666102660,0.7849218720325203,0.2735107971544716,0.07530654369105691,-0.19395715951219514,-1.1377439609756097,3.994328526829268
840,1747666102670,0.8310149299999999,0.30116665,0.04344219,-0.17065858611570248,-1.0206649256198348,4.177818201652893
841,1747666102680,0.8153787188135594,0.3619100040677966,-0.0026825629576271207,-0.24607515508474576,-0.9052298050847457,4.453145347457627
842,1747666102690,0.7901919112195122,0.42608229219512195,-0.036852647,-0.3615626995121951,-0.9658822260162601,4.717002349593495
843,1747666102700,0.7817154,0.43808278,-0.036852647,-0.39950588,-0.9944886,4.802623
844,1747666102710,0.787044613114754,0.44607664213114756,-0.031227326524590166,-0.45646655540983605,-1.050728213114754,4.946826901639344
845,1747666102720,0.7972158606299212,0.45307210236220474,-0.024442238346456695,-0.5028046272440945,-1.1008271771653542,5.065332948818898
846,1747666102730,1.079935967857143,0.5221081942857143,0.09046679178571429,-0.7487026404761904,-1.5473652880952382,5.740518988095238
847,1747666102740,1.1372768295081965,0.5393845270491803,0.09916926237704918,-0.7960375434426229,-1.672879524590164,5.855483972131147
848,1747666102750,1.2324891,0.5703618,0.09859913,-0.8436049,-1.7385225,5.9125648
849,1747666102760,1.439163453448276,0.6955799637931035,0.12345088862068966,-1.068308548275862,-1.6556449413793104,5.899883968965517
850,1747666102770,1.441332342857143,0.7224442885714286,0.1593345157142857,-1.0885619,-1.6523905,5.8991256
851,1747666102780,1.4289552,0.76219076,0.23185438,-1.2763608344827586,-1.540412580172414,5.947210372413793
852,1747666102790,1.4656372016260162,0.8711851879674796,0.4317729789430894,-1.250619980487805,-1.5081070902439024,6.065564214634146
853,1747666102800,1.5544299184,0.9935707552,0.60725932568,-0.9716422643200001,-1.5485042712,6.2547224128
854,1747666102810,1.8218681426086958,1.163658564347826,0.6289228049565218,-0.5494175088695652,-1.5234766947826086,6.022509926956522
855,1747666102820,1.8788431370967742,1.222553593548387,0.6196928533870968,-0.43013780483870967,-1.491604870967742,5.871695964516129
856,1747666102830,1.9619763,1.359887,0.59037447,-0.19792034,-1.4013249,5.4874024
857,1747666102840,1.8647948008695652,1.6798524956521739,0.45033230686956527,0.058409337217391305,-1.2328323295652175,4.494124897391305
858,1747666102850,1.72925427578125,1.838292634375,0.328832817109375,-0.026610816624999995,-1.038499559375,3.9299919140625
859,1747666102860,1.4216974950819672,2.193182401639344,0.18535947934426228,-0.420730927295082,-0.5742083045081968,3.02645675
860,1747666102870,1.3767370495867768,2.2421075214876036,0.19905995173553717,-0.5852947097520661,-0.3948461110743802,2.711287559504132
861,1747666102880,1.2435120338842975,2.3281750504132233,0.29919603801652894,-1.1071654661157024,0.21710454900826445,1.4093721710743803
862,1747666102890,1.2082810512396693,2.339893799173554,0.32419677768595045,-1.1404854,0.26511553,1.2571606999999998
863,1747666102900,1.0444381416,2.3518332528,0.40885641984,-1.1283072079999998,0.38831482992,0.5420573708800001
864,1747666102910,0.9068086803278688,2.28938502295082,0.46766971737704915,-0.8889491416393442,0.5118650193442623,-0.5737526590163934
865,1747666102920,0.8817788,2.2668037,0.47542354,-0.81489426,0.5448918,-0.86009824
866,1747666102930,0.8817788,2.2668037,0.47542354000000003,-0.8148942600000001,0.5448918,-0.86009824
867,1747666102940,0.8911140416666666,1.96307039,0.4335839778333333,-0.3768631373333333,0.7332011751666666,-2.285435158
868,1747666102950,0.8893234766929133,1.7219526574803148,0.39900094834645666,-0.09536231921259843,0.8646580977952756,-3.245575096062992
869,1747666102960,0.8770535522689076,1.621005681512605,0.39219385100840337,0.01753029445378151,0.9180945221008404,-3.6243970117647057
870,1747666102970,0.8719768658536585,1.4927870487804877,0.3830805743089431,0.15033741788617885,0.9771062654471545,-4.056964780487805
871,1747666102980,0.8768977,1.4460392,0.37902089999999994,0.18692477,0.9963212,-4.180151
872,1747666102990,0.9001539935483871,1.4170751129032257,0.38745268516129033,0.2170000295967742,1.0061886532258064,-4.267297806451613
873,1747666103000,1.1991980033898304,1.1097366101694914,0.4976327211864407,0.5876627279661017,1.0712816813559323,-5.028352966101695
874,1747666103010,1.333763104,1.0279007992,0.5331088956,0.7894773588,1.074512,-5.235398712
875,1747666103020,1.523795892,0.9021331776,0.5676088448000001,1.20536419304,1.0607504127999998,-5.603833304
876,1747666103030,1.665725047107438,0.7881798404958678,0.584150038016529,1.5979376702479338,1.023845491735537,-5.9182845371900825
877,1747666103040,1.7109511858333333,0.7344069141666666,0.567988339,1.8945527408333334,0.9603768813333334,-6.1179733999999995
878,1747666103050,1.7058361725806452,0.6681008076612903,0.44502854435483874,2.1758970967741935,0.894671261935484,-6.3226819999999995
879,1747666103060,1.6687142280991736,0.6436092132231405,0.34674685078512396,2.275619550413223,0.8860978793388429,-6.410444909090908
880,1747666103070,1.4925849039370078,0.6299060062992126,0.012206705472440946,2.1352145283464568,1.0018959385826771,-6.344956007874015
881,1747666103080,1.3521981982905982,0.6547430235042735,-0.0822118305982906,1.8784575837606838,1.0474772341880343,-6.139968401709401
882,1747666103090,1.2432276,0.67677075,-0.12593354,1.681712,1.0598512,-5.966321
883,1747666103100,1.2198269291338582,0.6791133153543307,-0.12728642338582677,1.6337374322834646,1.053535718503937,-5.909972271653543
884,1747666103110,0.9298291788983051,0.6861917739830509,-0.12930275915254236,1.0482447,0.96883225,-5.1966305
885,1747666103120,0.78610843,0.59281504,-0.12032023,0.9161330333333333,0.8318724285714285,-4.41971661111111
886,1747666103130,0.9440755752542372,0.4011970154237288,-0.2920041557627118,1.044346639322034,0.6303042310169491,-3.9581427110169494
887,1747666103140,1.0695489409836065,0.2775531024590164,-0.4637987983606557,0.8566033373770492,0.32356831073770487,-3.747638175409836
888,1747666103150,1.1460928000000001,0.15668475199999998,-0.6112413749999999,0.33962104803278687,-0.12126175504098362,-3.631824175409836
889,1747666103160,1.1312517099173554,0.06532666276033057,-0.5866268785123967,-0.05661357239669421,-0.31287911958677683,-3.5923016528925618
890,1747666103170,1.0584346097560975,-0.1496844772195122,-0.4070993975609756,-0.6687931597560975,-0.479335531707317,-3.3856386707317068
891,1747666103180,1.0371968,-0.20937787523809523,-0.33800767,-0.7882198047619047,-0.5022184976190477,-3.2818589523809525
892,1747666103190,0.9581688,-0.44320798,0.03807293,-0.9633345,-0.57726765,-2.493552
893,1747666103200,0.9603298572580645,-0.4937396480645161,0.10188406056451613,-0.717451384516129,-0.5165358112903226,-1.8370491612903226
894,1747666103210,0.9973672879310345,-0.6156680568965518,0.21612531956896552,-0.451250375775862,-0.4358049462068965,-1.2134732760344826
895,1747666103220,1.0321181,-0.6467517,0.21891935,-0.20830505,-0.33414328,-0.77763146
896,1747666103230,1.1147346617391305,-0.6513039304347826,0.05391967282608696,0.29037878443478266,-0.05911581986086956,0.04903388208695652
897,1747666103240,1.107146904878049,-0.6288879186991869,-0.01815349425203252,0.4424750380487805,0.054292511707317075,0.2968357946341464
898,1747666103250,0.8749452571428571,-0.54965174,-0.12136618285714286,0.49968776,0.19792034,0.44165558
899,1747666103260,0.5309568677966102,-0.41670913152542377,-0.18561588440677965,0.43272036966101696,0.3529248040677966,0.8803603971186441
900,1747666103270,0.2401158337007874,-0.26584560409448815,-0.20539242818897635,0.3266253064566929,0.4926940858267716,1.7062525023622048
901,1747666103280,0.17538914524590163,-0.21501444016393442,-0.21168565573770493,0.30613360663934425,0.4803403736065574,2.074062806557377
902,1747666103290,0.12983845,-0.174745,-0.2169669,0.29443705000000003,0.4642576,2.4055874
903,1747666103300,0.12983845,-0.174745,-0.2169669,0.29443705,0.4642576,2.4055874
904,1747666103310,0.2613951574193548,-0.03438254766129032,-0.2012921162903226,0.24677970354838707,-0.013734622096774212,3.6175538548387096
905,1747666103320,0.5664455348837208,0.08654950725581395,-0.18144804046511626,0.2404962248837209,-0.6406129441860465,4.3922774418604655
906,1747666103330,0.693158599180328,0.1377503061967213,-0.16668308622950817,0.2551063302459016,-0.8590868032786885,4.586115864754099
907,1747666103340,0.8594165745762712,0.20476816508474577,-0.1354683033898305,0.2685114960169492,-1.0490057593220339,4.753903266949153
908,1747666103350,1.11026119,0.3420380919166667,-0.09340070966666666,0.22408573541666668,-1.2224177208333333,4.964908966666667
909,1747666103360,1.165102650420168,0.4133037798319328,-0.10960221327731093,0.07665589111764705,-1.1042339075630254,5.093979504201681
910,1747666103370,1.1697257111111112,0.45002802777777773,-0.12158118944444443,-0.05596689019047619,-0.9708782174603174,5.210040574603175
911,1747666103380,1.1772878,0.5123870836363636,-0.09149928436363636,-0.3766463688429752,-0.7057210421487603,5.516951325619835
912,1747666103390,1.198930233858268,0.579009437007874,-0.028866015590551183,-0.808569109448819,-0.46504641637795274,5.945113841732284
913,1747666103400,1.2363823999999999,0.6611162309523809,0.06632546295238095,-1.0145938388888889,-0.4600542633333333,6.179638704761905
914,1747666103410,1.2722704,0.71020657,0.12861817,-1.0885618999999997,-0.49296826,6.272364
915,1747666103420,1.2722704,0.71020657,0.12861817,-1.0885619,-0.49296826,6.272364
916,1747666103430,1.4878919396694215,0.8338306688429751,0.29906089041322315,-1.0860477727272726,-0.8817411056198347,6.380270297520661
917,1747666103440,1.6705654904347826,0.9411632956521739,0.4113998504347826,-1.0144188304347825,-1.101528175652174,6.351877686956521
918,1747666103450,1.7369554,1.0179628,0.41880223,-0.8894198,-1.0714576,6.134309
919,1747666103460,1.7369554,1.0179628,0.41880223,-0.8894198,-1.0714576,6.134309
920,1747666103470,1.5593901499999998,1.2912119722222222,0.36589606,-0.7910705,-0.19547687,5.030475
921,1747666103480,1.5593901499999998,1.2912119722222222,0.36589606,-0.7910705,-0.19547687,5.030475
922,1747666103490,1.5700416719298245,1.4109634508771929,0.39764204087719296,-0.7811573175438596,0.23192517631578946,4.611314589473684
923,1747666103500,1.5844196,1.4645876,0.41074833,-0.77274454,0.40561453,4.4086146
924,1747666103510,1.611238525,1.621341777586207,0.40871171784482757,-0.7429648649999999,0.655916575,3.731165
925,1747666103520,1.5258093330708662,1.8627736858267716,0.4217424603149606,-0.6432074526771653,0.6464204937007874,2.674454567716535
926,1747666103530,1.3979062804878049,1.957964056097561,0.41917130878048786,-0.5503498710569107,0.5538163767479676,2.134621330081301
927,1747666103540,1.0789829368000001,2.0350431056,0.3790736192,-0.19550131363200002,0.47497458672,1.0148670784
928,1747666103550,0.967300722047244,2.063210050393701,0.34770662724409446,-0.02756108806299212,0.4676486003149606,0.6521202988976378
929,1747666103560,0.8986296132743363,2.1021902557522125,0.29162464203539823,0.14982955840707965,0.47238264017699116,0.36539473959292035
930,1747666103570,0.9617792322314049,2.1454649735537195,0.09737481552066116,0.48476448173553716,0.5093757856198347,-0.20140377914049587
931,1747666103580,1.1065838181818184,2.1525868429752064,-0.10007153611570248,0.6371475904958677,0.5110720672727272,-0.8954678504132232
932,1747666103590,1.1661055,2.145507,-0.15107143,0.7031059,0.49663344,-1.4654657
933,1747666103600,1.286899981300813,2.111374970731707,-0.21158968869918698,0.62858033,0.45570546,-1.9657644
934,1747666103610,1.4090790186440678,1.992086266101695,-0.18317944559322033,0.4333001859322034,0.42621828593220334,-2.767995994915254
935,1747666103620,1.4362769,1.9470887,-0.16132185,0.1574093149206349,0.5554219629365079,-3.7270634142857144
936,1747666103630,1.4500866368,1.7681244848,-0.06925173602399999,0.082457037512,0.6210887032,-3.982509172
937,1747666103640,1.4424854097560975,1.5740680048780487,0.01513750148780488,-0.00746447568292683,0.7556552463414634,-4.285741397560975
938,1747666103650,1.4102492440944883,1.4396264401574803,0.09226132748031496,-0.08229846155905512,0.981107325984252,-4.59276867007874
939,1747666103660,1.3972276,1.3662325,0.14789869,-0.103847094,1.1007792,-4.7128253
940,1747666103670,1.4762319648,1.2284045639999999,0.26797485352,0.055833082640000004,1.2196535800000001,-4.925797451999999
941,1747666103680,1.568556,1.0797093,0.39464056,0.25045475,1.3115277,-5.155092
942,1747666103690,1.5954125672268908,1.0384553798319327,0.4219585549579832,0.4760026268067227,1.2211915033613445,-5.373227354621849
943,1747666103700,1.674955196,0.875257648,0.5203007568,0.8753699,1.0598512,-5.7598486
944,1747666103710,1.6764293,0.8620141580645161,0.5267483571774193,0.8753699,1.0598512,-5.7598486
945,1747666103720,1.5815897476190475,0.6737258456349206,0.4990602586507936,1.464500965873016,0.6761163139682539,-6.274754657142857
946,1747666103730,1.5072975,0.5857374,0.45419052,1.7686585333333331,0.49866966,-6.504900566666667
947,1747666103740,1.4147301523809526,0.5468819666666667,0.3965930436507937,1.813048,0.50518554,-6.4922757
948,1747666103750,1.4084544,0.5442477,0.39268813,1.813048,0.50518554,-6.4922757
949,1747666103760,1.1991893049180327,0.4914672726229508,0.27880140000000003,1.7829353704918032,0.7314710703278688,-6.197282802459016
950,1747666103770,0.9287954200787402,0.45807046188976375,0.13641646858267717,1.7659296811023621,0.8682800275590551,-5.633456926771653
951,1747666103780,0.8592399670175438,0.46721334000000003,0.06788002686842104,1.7364541736842105,0.810993297368421,-5.4409016350877195
952,1747666103790,0.9208868226506025,0.5117027698795181,-0.07037082028915663,1.447699078313253,0.29769745310843376,-4.747836289156627
953,1747666103800,1.0562144566929133,0.453677422519685,-0.17067479937007876,0.9794189976377952,-0.09094196529133859,-4.481951842519686
954,1747666103810,1.1065881299999998,0.339524298,-0.209938045,0.6044918866666666,-0.23282109633333334,-4.415517433333333
955,1747666103820,1.0921445476190474,0.2199711196904762,-0.22456753619047617,0.40379163095238096,-0.26639541206349204,-4.327447126984127
956,1747666103830,0.9791369455932203,-0.16897449030508474,-0.2935388179661017,0.015592594915254238,-0.3025128888135593,-4.041836406779661
957,1747666103840,0.9581092538655461,-0.21842304336134455,-0.31179851075630255,-0.10180916,-0.2845964618487395,-3.8070867260504198
958,1747666103850,0.7809438387096775,-0.5063951541935484,-0.48781534935483867,-0.7622810074193548,-0.22925181387096774,-2.7636921806451613
959,1747666103860,0.8475615818487395,-0.6630358652100841,-0.36008901722689074,-1.7523106042857144,-0.14660765571428572,-1.6216726857142856
960,1747666103870,0.9532876599999999,-0.71020657,-0.1564407,-2.2996785975,0.057253341500000006,-0.9288664200000001
961,1747666103880,0.95328766,-0.71020657,-0.1564407,-2.3310618,0.07269296,-0.8875872
962,1747666103890,0.9787280492561983,-0.7396265967768596,0.15796555211570248,-2.365315590909091,0.4699522528099173,-0.4278530352066116
963,1747666103900,0.8345497781147541,-0.7312355245901639,0.3103147921311475,-1.7636680540983607,0.8089958813114754,0.002693821639344264
964,1747666103910,0.5012277026190476,-0.6439198896825397,0.3938057536507936,-0.8717338177777778,0.9167342136507936,0.5198269217460317
965,1747666103920,0.32093528,-0.5357057,0.34778157,-0.30298916,0.75441855,0.9718866
966,1747666103930,0.24094230561403507,-0.4411891495614035,0.2747099771929824,0.0861963052631579,0.4691123447368421,1.4504834368421053
967,1747666103940,0.15876226247933883,-0.30374032338842977,0.15259225694214876,0.7541459256198347,-0.1428364420661157,2.4495190066115704
968,1747666103950,0.2262795031496063,-0.20334388913385826,0.027090356787401577,0.8579770566929135,-0.3314978030708661,2.7242184881889764
969,1747666103960,0.3529168646280992,-0.1183435652892562,-0.06059880965289257,0.9690039603305785,-0.6031158375206612,3.1036599884297518
970,1747666103970,0.6704828935433071,0.03437363748031496,-0.1543960031496063,1.013151331496063,-0.9986011373228346,3.673151894488189
971,1747666103980,0.8364452496666668,0.1431843205,-0.18324224866666666,0.9624385941666667,-1.1078295208333333,3.9145059183333335
972,1747666103990,0.85859346,0.16058966999999996,-0.18597162,0.9285152,-1.1215485,3.9883392
973,1747666104000,0.9303920075000001,0.236207364765625,-0.183285089375,0.8249019453125,-1.07907437515625,4.11040716796875
974,1747666104010,0.97281224,0.31239328,-0.18133454,0.698219,-0.98715824,4.2363505
975,1747666104020,0.9542442040322581,0.3689043351612903,-0.12224119177419356,0.30503852,-0.6987904535483871,4.684863612903226
976,1747666104030,0.9513352,0.3773125,-0.11275445,0.24678956,-0.6560693,4.75131
977,1747666104040,0.9874984666666666,0.4054004859649123,-0.03417657861403509,0.13965772640350876,-0.6677828995614035,5.072480504385965
978,1747666104050,1.0038075,0.4183141,-0.0053692595,0.11301006999999999,-0.68844515,5.182581
979,1747666104060,1.0038075,0.4183141,-0.0053692595,0.16527298388888886,-0.9752972555555556,5.525259194444444
980,1747666104070,1.0463797752475248,0.44830656257425744,0.01910654149009901,0.1974062423762376,-1.0475492014851484,5.567250485148515
981,1747666104080,1.3435398019230769,0.6395519884615385,0.10467709076923078,0.43676865,-1.4966198,5.756794
982,1747666104090,1.4250502,0.6901938799999999,0.057353451500000006,0.43335193983050846,-1.4807787322033898,5.740021101694915
983,1747666104100,1.4660518,0.71777236,0.028066583,0.43004912,-1.4654657,5.7238073
984,1747666104110,1.5045937939130434,0.8757644173043478,-0.01196517084347826,0.06249417048695652,-1.0061056629565217,5.822417
985,1747666104120,1.517372196,0.929643368,-0.01599062976,-0.08400618216,-0.8775201416,5.8963401719999995
986,1747666104130,1.5492754,1.0062481,-0.0156196635,-0.3036,-0.7489208,6.0267963
987,1747666104140,1.7204837499999999,1.106820705172414,0.031144651719827585,-0.6999778448275862,-0.6269267827586208,6.087998865517241
988,1747666104150,1.8523292417322836,1.1778145433070866,0.0806157640944882,-1.0427950393700787,-0.527450862992126,5.967744692913385
989,1747666104160,1.937986819327731,1.3034667100840336,0.15976111319327732,-1.269578114285714,-0.38506069672268906,5.480138960504202
990,1747666104170,1.673838523076923,1.7344585692307692,0.4228385553846154,-1.5952698784615387,0.2271008983076923,3.709888086153846
991,1747666104180,1.5428664585365854,1.840963550406504,0.5077144687804878,-1.5524270951219512,0.3168453892682927,3.4074560325203254
992,1747666104190,1.4365326752,1.9220407064,0.5723435224,-1.4759139496,0.37084898368,3.165357072
993,1747666104200,1.2259527669172932,2.0951433849624057,0.6449864315037594,-1.0899397812030074,0.40249130285714285,2.511680348120301
994,1747666104210,1.094384222580645,2.1915791032258065,0.5724402070967742,-0.5921057774193548,0.26905658838709673,1.7048460677419353
995,1747666104220,1.0113945095652173,2.234624174782609,0.4679107838260869,-0.26326167495652175,0.15596186295652173,1.0409568975652173
996,1747666104230,0.9757808885245901,2.2508759327868852,0.4148653026229508,-0.10387212785245901,0.09917046581967214,0.6391252785245902
997,1747666104240,0.9458387595041322,2.2700287892561986,0.3202797512396694,0.11612498170247934,0.03614201854545455,-0.016498411074380166
998,1747666104250,0.9750029023622048,2.23023531496063,0.18071767102362205,0.315567222992126,0.1321104305590551,-1.1422795209448817
999,1747666104260,1.0005275032520324,2.1838222219512198,0.09331717731707316,0.35243448536585364,0.2260300725203252,-1.5850413463414634
1000,1747666104270,1.0138137,2.1538053,0.05222825,0.3567453,0.3005457,-1.831374
