id,timestamp,acc_x,acc_y,acc_z,gyro_x,gyro_y,gyro_z
0,1747666070520,0.6272271,0.09640261,0.25528386,3.8331793,1.4415401666666667,-4.139935583333334
1,1747666070530,0.6272271,0.09640261,0.25528386,3.5430183,1.486846,-3.9327504999999996
2,1747666070540,0.5907928857142858,0.071125255,0.23976880285714283,3.121367362184874,1.3493654302521008,-3.5279778025210087
3,1747666070550,0.6137629605042016,0.013566711815126049,0.20208760848739496,2.6585367596638654,0.9819889781512605,-2.924889623529412
4,1747666070560,0.7654193491525423,-0.052019356338983046,0.22309726245762712,2.395306081355932,0.5117083372881356,-2.516749304237288
5,1747666070570,1.0398862910569107,-0.18469181642276422,0.2746695504878049,1.9734573422764228,-0.37181828016260166,-1.9223830292682926
6,1747666070580,1.1072837672131148,-0.24186874295081967,0.29280468409836063,1.8383939704918033,-0.6436516908196721,-1.7812029360655737
7,1747666070590,1.1287647,-0.34290043,0.319715,1.6670512,-0.8900307,-1.5986344
8,1747666070600,1.1287647,-0.34290043,0.319715,1.6670512,-0.8900307000000001,-1.5986344
9,1747666070610,1.1287647,-0.34290043,0.319715,1.6670512,-0.8900307000000001,-1.5986344
10,1747666070620,1.1287647,-0.34290043,0.319715,1.6670511999999997,-0.8900306999999998,-1.5986344
11,1747666070630,1.1287647,-0.34290043,0.319715,1.6670512,-0.8900307,-1.5986343999999997
12,1747666070640,1.1287647,-0.34290043,0.319715,1.6670512,-0.8900307,-1.5986344
13,1747666070650,0.8378382253781513,-0.3305929737815126,0.19444389824369748,0.12745006428571423,-0.2876200209243697,-0.16455893571428565
14,1747666070660,0.47444725,-0.29433304,0.058085624,-1.728612376033058,0.3800187574380165,1.6199842793388428
15,1747666070670,0.42051062,-0.24576566,0.05686534,-1.831374,0.1704314,1.9004018
16,1747666070680,0.42814612812499997,-0.21006574910714287,0.059676357267857146,-1.9832721544642857,-0.3697589008928572,2.352960169642857
17,1747666070690,0.45344634918032783,-0.17160225655737704,0.06169647172131148,-2.1795071098360657,-0.980558868852459,2.877605914754098
18,1747666070700,0.4814698401612903,-0.12655549080645162,0.07715358241935484,-2.3441658467741933,-1.250539614516129,3.17899205
19,1747666070710,0.5180918858536585,-0.06771100524390243,0.14098769829268293,-2.455464730081301,-1.3409037910569106,3.3448447536585366
20,1747666070720,0.6030174459016394,-0.020048704377049184,0.18999655655737704,-2.646102998360656,-1.3627251967213114,3.558304999180328
21,1747666070730,0.7679282025423729,0.01600643263559322,0.22687602830508477,-2.952860520338983,-1.2915036601694914,3.7334788627118645
22,1747666070740,0.824395656097561,0.022381835121951216,0.25545650414634147,-3.041065995121951,-1.2637609707317072,3.7190816243902436
23,1747666070750,0.8818447112698413,0.030462605373015872,0.29170070865079367,-3.16967306984127,-1.2462135936507936,3.6837501079365076
24,1747666070760,0.9249192545454545,0.06644569487272727,0.3724224945454545,-3.4388214481818182,-1.35870312,3.6731604881818183
25,1747666070770,0.949218728125,0.1374118603125,0.55637807265625,-3.7884335375,-1.70377951875,3.79946726875
26,1747666070780,1.0003784675,0.1565383255,0.70118865625,-3.8880809750000003,-1.9451323950000001,3.9369807100000003
27,1747666070790,1.0801975,0.14594623,0.8407772000000001,-3.9235876,-2.1728477,4.075693
28,1747666070800,1.3322947274193546,0.16606717104838709,1.1200101967741938,-3.6661275467741934,-2.491576495967742,4.224931188709678
29,1747666070810,1.4658988347457627,0.19874532016949154,1.2200028855932203,-3.4821079830508475,-2.5690818525423724,4.246067228813559
30,1747666070820,1.5694131365853659,0.2988510536585366,1.2809791780487803,-3.249222024390244,-2.423317307317073,4.1352744146341465
31,1747666070830,1.5923990847457625,0.5028675296610169,1.3246972974576272,-2.9630586779661017,-2.2140966067796612,3.9696405000000006
32,1747666070840,1.5619009024390245,0.7531547073170731,1.344916136585366,-2.676041720325203,-2.0579800983739838,3.814853343089431
33,1747666070850,1.5228284396694216,0.888624532231405,1.3153858404958676,-2.517173712396694,-2.002481887603306,3.739954300826446
34,1747666070860,1.4885676396694214,1.0470903107438017,1.284842382644628,-2.36118587768595,-1.920100938842975,3.653413460330578
35,1747666070870,1.4784988,1.1236396,1.2803243,-2.2742512,-1.8649716,3.5961637
36,1747666070880,1.4784988,1.1236395999999997,1.2803243,-2.2742512,-1.8649716,3.5961637
37,1747666070890,1.4784988,1.1236396,1.2803243,-2.2742512,-1.8649716,3.5961637
38,1747666070900,1.4784988,1.1236396,1.2803243,-2.2742512,-1.8649716,3.5961637
39,1747666070910,1.4325538650943395,1.3804730358490567,1.236633465471698,-1.9616553509433963,-1.6211729598113207,3.2153929386792455
40,1747666070920,1.2607196128,2.4299570984,1.00183936832,-1.2182509752000001,-0.51741264512,1.7013281087999998
41,1747666070930,1.2625929869565216,2.5717321413043477,1.1371263695652174,-1.0410737586956522,-0.0999428656521739,0.9593904413043477
42,1747666070940,1.2629962,2.604091,1.1861182,-0.9401216,0.037262779999999995,0.6774496000000001
43,1747666070950,1.2707705936363636,2.5567926672727275,1.267921758181818,-0.48740381936363636,0.3595608332727273,-0.08878094050909091
44,1747666070960,1.2411633625,2.3976083291666668,1.3277222333333332,0.31706451874999997,0.7180211833333333,-1.2381729625
45,1747666070970,1.1997855,2.2565534,1.3223021,0.84482664,0.8417723,-1.8820758
46,1747666070980,1.1315747697247707,2.0477478366972477,1.201858753211009,1.2038641036697248,0.9092028678899082,-2.3489001247706423
47,1747666070990,1.0943527,1.9241474,1.1329137,1.5607607,0.9950995,-2.8350255
48,1747666071000,1.0421749413793102,1.6100288655172414,1.0666396482758622,2.001684297413793,0.9722288771551724,-3.4264694844827583
49,1747666071010,1.0338265,1.5597699,1.0560358,2.067168,0.9688322499999998,-3.5143077
50,1747666071020,1.101973593548387,1.352207008064516,1.1067405870967744,2.4564762991935485,0.8131946291935485,-3.8242529249999997
51,1747666071030,1.2159746,1.1330438799999998,1.1308310333333333,2.8934243666666664,0.6294355413333332,-4.143987466666667
52,1747666071040,1.4102704062992126,0.8806373291338583,1.0270390448818898,3.3553000322834645,0.49224193984251974,-4.661021960629921
53,1747666071050,1.587294559322034,0.6423669423728813,0.88259372,3.4504567500000003,0.6253189473728813,-5.108640336440678
54,1747666071060,1.6371202403225806,0.5412481114516129,0.8195953604838709,3.430707920967742,0.7979968917741935,-5.376766809677418
55,1747666071070,1.6651988267716533,0.43208317307086613,0.7690378417322835,3.363058527559055,1.1527363716535433,-5.690662105511811
56,1747666071080,1.5778301625,0.18475134,0.6814688624999999,3.226208325,1.7650187125,-6.1062853375
57,1747666071090,1.472802837096774,0.11974944137096775,0.7037272708064516,3.207377458064516,1.8124962870967745,-6.1563983032258065
58,1747666071100,1.2102391885714288,0.06903914278571428,0.7732721135714286,3.323499642857143,1.6082336285714285,-6.152940292857142
59,1747666071110,0.9089048892682927,0.04350766819512195,0.8009303897560976,3.571068515447154,1.2679972951219511,-6.05472751300813
60,1747666071120,0.7917217,0.00707766,0.75438094,4.1685443,0.5876524,-5.73297
61,1747666071130,0.7051223932773109,-0.01756391773109244,0.5657185442016807,4.3823781621848745,0.316664348907563,-5.56169178235294
62,1747666071140,0.5976962,-0.04344219,0.2779812,4.7494774,-0.26633725,-5.1569242
63,1747666071150,0.5796924330578512,-0.045564077644628095,0.061452005454545454,4.638845163636363,-0.5834116367768595,-4.869030213223141
64,1747666071160,0.6389419,-0.095792465,-0.242958985,3.8035472627118647,-1.0688174355932203,-4.3996173694915255
65,1747666071170,0.6989506567999999,-0.14859180912,-0.4032235736,2.968805,-1.2174544,-4.1471643
66,1747666071180,0.6507726893442624,-0.3099567093442622,-0.40972411721311475,2.2892925573770495,-0.9797176786885247,-4.023639267213115
67,1747666071190,0.5864696,-0.3995217,-0.32557237,1.1368202,-0.5644395,-3.8001926
68,1747666071200,0.5864695999999999,-0.3995217,-0.32557237,0.7911010185000001,-0.39407427058333333,-3.384631195
69,1747666071210,0.3815575055737705,-0.7406057028688525,0.1682054524262295,0.21247094721311474,-0.20296748590163932,-1.9316460062295082
70,1747666071220,0.467290831496063,-0.8289491087401575,0.2622347121259842,0.3151872278740157,-0.40032836866141736,-0.40590793527559055
71,1747666071230,0.8009918578512397,-0.8553259143801653,0.3219034347107438,0.5658429631404959,-0.5881521386776859,0.9016472264462809
72,1747666071240,0.92937,-0.8498074,0.33265,0.6805039,-0.63346726,1.2449434
73,1747666071250,1.0605279227642275,-0.8306160731707317,0.30866097325203257,0.832336177886179,-0.6345300666666667,1.5161625910569105
74,1747666071260,1.201678355284553,-0.7566012466666667,0.16496882206504065,1.0861184,-0.4422664566666667,1.8957184
75,1747666071270,1.064659046984127,-0.5568688866666667,-0.1347544743809524,1.0668810531746031,-0.014428058015873015,2.100940126190476
76,1747666071280,0.8456173568907562,-0.406277387394958,-0.3054612457142857,0.7504300109243697,0.356447563697479,2.4531424613445374
77,1747666071290,0.7107636195967743,-0.3137415033064516,-0.38404968661290323,0.5100626332258065,0.5222946991935483,2.721468689516129
78,1747666071300,0.5450418587301586,-0.16532747142857146,-0.42377633841269835,-0.1881464957142857,0.7171121285714286,3.5201981428571427
79,1747666071310,0.6052719868032788,-0.04884145665573771,-0.31980899836065574,-1.028076244590164,0.5454626262295081,4.533220655737705
80,1747666071320,0.717342345952381,-0.024080315595238093,-0.23614280523809525,-1.421037442063492,0.34931310992063497,5.020454309523809
81,1747666071330,0.8415658700826446,-0.019677871314049585,-0.1646902252892562,-1.639723876033058,0.18732359214876035,5.296812648760331
82,1747666071340,1.0043072984,-0.016884856096,-0.10038562472,-1.8361143088,0.033685554864,5.536398763999999
83,1747666071350,1.1131451,-0.014399378000000001,-0.06833603,-1.9474384,-0.049480084,5.666386
84,1747666071360,1.1131451,-0.014399378,-0.06833603,-1.9474384,-0.04948008400000001,5.666386
85,1747666071370,1.4506500752066116,0.09935550438016529,0.18302680381818182,-2.2768664528925617,-0.3522572259173554,6.046667252066116
86,1747666071380,1.5131549,0.1615659,0.27944556,-2.299445675609756,-0.40014157674796746,6.176533000813008
87,1747666071390,1.6373345170731706,0.3230960818699187,0.45169442878048777,-2.156393956097561,-0.665197487804878,6.491789195121951
88,1747666071400,1.7066459126984126,0.3858002807936508,0.5036218412698412,-2.0928242,-0.8185594,6.586349
89,1747666071410,1.8241652333333331,0.4669140326666667,0.57957084,-2.0522678483333334,-0.8860040275000001,6.6067774
90,1747666071420,1.91829,0.52423495,0.626739,-1.7776178,-1.3390167,6.74212
91,1747666071430,2.147562694214876,0.6491277342975206,0.621474617355372,-1.3891377834710743,-1.4903193446280991,6.460869256198347
92,1747666071440,2.2265344,0.69214636,0.61966133,-1.2553280000000002,-1.5424347,6.363994
93,1747666071450,2.2371538552845527,0.789128351707317,0.6001526350406504,-1.1460874312195122,-1.4387266918699189,6.06414859105691
94,1747666071460,2.1928104139344264,1.2117642024590165,0.500887518852459,-0.7325876471311475,-0.9594089937704919,4.809877877049181
95,1747666071470,1.8254945682926829,1.451587012195122,0.37650295902439024,-0.7537778963414634,-0.5891274112195122,4.301146731707316
96,1747666071480,1.6413054521008401,1.5439758361344538,0.29260618663865545,-0.8797691359663865,-0.45445809411764704,4.133088430252101
97,1747666071490,1.5108002967999998,1.6074410232,0.23695030008,-0.98837996,-0.3848451,4.0201044
98,1747666071500,1.3670847180327867,1.6807382672131148,0.21767905622950817,-1.262408126557377,-0.25963275540983605,3.6660627262295082
99,1747666071510,1.2608551773109242,1.7411187420168068,0.29064346941176467,-1.3682816798319328,-0.12519657996638656,3.239700729411765
100,1747666071520,1.2360992184,1.789171908,0.38329677423999997,-1.3334845872,0.008957727128000002,2.8224417616
101,1747666071530,1.280687328205128,1.8484415615384617,0.43393795264957263,-1.1081982948717948,0.1677477703076923,2.308772953846154
102,1747666071540,1.291551,1.8838779,0.44467232,-0.9718866,0.2406809,2.0402899
103,1747666071550,1.2531616059322033,1.951796259322034,0.4311891708474576,-0.14963092244067797,0.42168338847457626,0.6983432167796609
104,1747666071560,1.1829141897435895,2.02596321025641,0.37731874393162396,0.05031023353846154,0.4126786323076923,0.3313604646153846
105,1747666071570,1.0535950763779527,2.1023283196850393,0.2187483133070866,0.25795829574803153,0.31876584141732284,-0.30385976251968505
106,1747666071580,1.0612108974358974,2.109712087179487,0.17755477743589743,0.2725451106837607,0.2771291972649572,-0.702996251965812
107,1747666071590,1.1446284,2.0920587,0.14399378,0.20097467,0.258396,-1.4624114
108,1747666071600,1.2316781709677418,2.0271847403225807,0.17590425653225805,0.13062663451612902,0.35667633870967747,-1.9150181338709678
109,1747666071610,1.4284869097560977,1.8086666186991869,0.3056926251219512,0.08813345357723577,0.5368114780487806,-2.4458696617886178
110,1747666071620,1.4396937,1.7933327,0.31556603,0.08246681,0.5516113,-2.4904976
111,1747666071630,1.4466462663865547,1.7182861042016806,0.38260793848739494,0.21077417420168068,0.6858425285714286,-2.9873261302521006
112,1747666071640,1.4743499,1.3925906,0.673598,0.66523224,1.0476339,-4.488638
113,1747666071650,1.4462445047619048,1.282416215873016,0.712004080952381,0.9271916755555555,1.0375739706349205,-4.727660873015873
114,1747666071660,1.4218775,1.1912434,0.7294871,1.0629056,1.0323622,-4.851492
115,1747666071670,1.4587518338709677,1.0771979008064516,0.6371035538709677,1.9333983322580646,1.2406279153225808,-5.682608572580645
116,1747666071680,1.4889933,1.0318741,0.56694496,2.1740694,1.3988814,-6.042068
117,1747666071690,1.5565263048387097,0.9561730141129032,0.5119297458064517,2.227988124193548,1.5537259322580643,-6.335992856451613
118,1747666071700,1.6259863789473683,0.8492035684210526,0.4879089842105263,2.2171837342105265,1.7117569078947368,-6.6778180526315785
119,1747666071710,1.6537318,0.7490117,0.4834774,2.1966715,1.8380935,-6.899723
120,1747666071720,1.5602233173228346,0.5444109908661416,0.6492749143307086,2.402581175590551,1.989357177952756,-7.115305583464567
121,1747666071730,1.4763023,0.4502856,0.7787867,2.6945267,1.9700404,-7.1611733
122,1747666071740,1.4547883569767441,0.4473200313953488,0.7924822755813954,2.781979825581395,1.917363923255814,-7.126140904651162
123,1747666071750,1.4547883569767441,0.4473200313953488,0.7924822755813954,2.781979825581395,1.917363923255814,-7.126140904651162
124,1747666071760,1.39924119375,0.48050295875,0.16389969137500002,4.781891412499999,-0.42932373125,-5.860641
125,1747666071770,1.39924119375,0.48050295875,0.16389969137500002,4.781891412499999,-0.42932373125,-5.860641
126,1747666071780,1.3676789536585368,0.4870073202439025,0.03071549804878048,4.734876146341463,-0.6277608853658537,-5.786979451219512
127,1747666071790,1.2508848625,0.4285645234375,-0.41276182499999997,3.58640884375,-1.1647290562500001,-5.354310359375
128,1747666071800,1.259836846875,0.3322591646875,-0.5299951378125,2.8565111062499997,-1.18930207890625,-5.1643314296875
129,1747666071810,1.3063041683333334,0.16623348920833333,-0.5235129463333333,1.482753175,-0.9588548223333333,-4.888775055
130,1747666071820,1.2983845,0.117635585,-0.4881145,1.0983357,-0.8643743400000001,-4.8185053
131,1747666071830,1.2177044603305784,-0.011323455,-0.3037766434710744,0.4427611836363637,-0.5903836014876034,-4.521897405785124
132,1747666071840,1.1297861478991595,-0.1930164657142857,-0.05942896100840336,-0.25814446907563027,-0.2507884190252101,-4.091005727731092
133,1747666071850,1.024009988888889,-0.5271093983333333,0.3104001444444444,-0.4300830666666667,-0.05650503538888889,-3.348865072222222
134,1747666071860,0.919828407826087,-0.7220677666956522,0.43982723739130436,-0.16585788173913044,-0.23003591217391306,-2.8492030469565215
135,1747666071870,0.7897216170731707,-0.8230979570731707,0.339340762195122,0.39841824146341465,-0.6538492926829268,-1.984164831707317
136,1747666071880,0.6977704690265486,-0.8452782495575222,0.24547407008849556,0.5378695814159292,-0.7819669734513275,-1.6171495389380528
137,1747666071890,0.592571,-0.8339436,0.14399378,0.5899213214285715,-0.8933159831932773,-1.1526206596638655
138,1747666071900,0.2822579985714286,-0.606799907936508,-0.11994444365079367,0.11905569373015874,-0.8345534555555556,0.2838729571428572
139,1747666071910,0.221701588,-0.5466394080000001,-0.16093133800000003,-0.07908159216666667,-0.7521278525,0.72799865
140,1747666071920,0.15782630967741937,-0.39596318967741934,-0.17251698967741935,-0.5157278677419355,-0.4514491322580645,1.6327836999999998
141,1747666071930,0.15448824,-0.37316352,-0.1696198,-0.6072,-0.37384954,1.8319849
142,1747666071940,0.15448824,-0.37316352,-0.1696198,-0.6072,-0.37384954,1.8319849
143,1747666071950,0.15821114669491523,-0.36743644805084746,-0.16697653559322032,-0.6156382242372881,-0.3646037318474576,1.8628957161016948
144,1747666071960,0.47733328924999996,-0.058720173025,-0.0341558108,-0.9633090261666666,-0.05555819403333333,3.6667898675
145,1747666071970,0.60113742,0.024621309866666666,-0.03289484808333333,-0.8644710568333334,-0.37557522433333335,4.314398598333333
146,1747666071980,0.7467655474576271,0.12614450483050849,-0.06597818957627119,-0.8337171725423729,-0.6737325850847458,4.636870983050848
147,1747666071990,0.8454707950413223,0.18247817181818182,-0.0872353408264463,-0.8367137294214876,-0.8695085983471075,4.849911652892562
148,1747666072000,0.9887007381355931,0.20709910559322034,-0.102425445,-0.9110692978813559,-0.9800504449152543,5.114722859322034
149,1747666072010,1.0970007149999998,0.176795067,-0.128776804,-0.93780034,-0.95038414,5.25417424
150,1747666072020,1.1920121622047242,0.1436248096062992,-0.170609465511811,-0.9416078995275591,-0.8725512433070867,5.557844448818897
151,1747666072030,1.2010058,0.14008885999999998,-0.18060236,-0.93767816,-0.8442157499999999,5.6767707
152,1747666072040,1.2105100951219514,0.143446132601626,-0.24305126219512194,-0.9562772554471545,-0.9573798029268292,5.921092088617886
153,1747666072050,1.2823920212598425,0.17234668952755905,-0.2886928159055118,-1.1357476433070868,-1.3401614212598425,6.259598850393701
154,1747666072060,1.3643454260162602,0.19926579512195122,-0.22558429975609756,-1.22345887398374,-1.5307886349593496,6.373390829268293
155,1747666072070,1.5455003217741936,0.27127947661290325,-0.02170928475806452,-1.3332429903225806,-2.032920129032258,6.651455667741936
156,1747666072080,1.598819,0.3014107,0.03904916,-1.2932017,-2.112372,6.7085223
157,1747666072090,1.6940948550000001,0.37772739666666666,0.10624626206666667,-1.1728866658333332,-2.1471505858333333,6.790994026666667
158,1747666072100,2.0032819016393444,0.617300805737705,0.27640883,-0.7510137559016393,-2.0894144967213113,6.876139606557376
159,1747666072110,2.2352328416666665,0.8153037780833333,0.34081373916666663,-0.33357823999999997,-1.99708645,6.613629475
160,1747666072120,2.286701015748031,0.9051065086614173,0.3281820508661417,-0.16822363188976378,-1.908419955905512,6.307342409448818
161,1747666072130,2.289406119008264,1.002272551570248,0.29928679801652897,-0.0392367338016529,-1.7730237041322314,5.947222438016529
162,1747666072140,2.2030392544715447,1.1297291398373983,0.24507712813008126,0.031581237032520325,-1.5541056918699188,5.5121004878048785
163,1747666072150,1.851807738888889,1.3350240968253968,0.1510210784126984,-0.16938420003968252,-0.9741846238095238,4.791961367460317
164,1747666072160,1.5302390210526315,1.4816330578947368,0.0971733205263158,-0.4738706557894737,-0.4342608789473684,4.415784042105263
165,1747666072170,1.3542837147540985,1.6023718663934425,0.21038134450819673,-0.6914744040983606,-0.12220809181967211,4.364642147540984
166,1747666072180,1.2556745617391305,1.7104931947826088,0.3636304286956522,-0.8666956,0.2269975236,4.22132312
167,1747666072190,1.3153334206611569,1.7896152809917356,0.5449031595041323,-0.8835585161983471,0.47083574776859505,3.9565994074380164
168,1747666072200,1.3825708214285715,1.8882747682539682,0.6646705432539683,-0.6951646614285715,0.4800673778571429,3.6341101166666667
169,1747666072210,1.3894179,1.9849175,0.71142685,-0.23849282073770492,0.4795893109836066,2.9288583868852456
170,1747666072220,1.3470101357142856,2.1123794714285715,0.6737839202380952,0.07574729,0.48930305,2.415972
171,1747666072230,1.2939735172131146,2.3233769844262295,0.40434283934426224,0.5114744583606556,0.7698855045081967,0.8351879676229508
172,1747666072240,1.2365433655172415,2.4392175568965517,0.18833436051724137,0.534686148275862,0.9800385151724138,0.05301888551724139
173,1747666072250,1.215666704,2.4437628448,0.14651440848,0.50269812016,1.1087595352000001,-0.39334834911999994
174,1747666072260,1.1759024274999998,2.397480251666667,0.05604368110833333,0.40247875758333335,1.2787599,-1.0004700041666665
175,1747666072270,1.219054470866142,2.200721909448819,0.03881470823622047,0.03672887381102362,1.5075288779527558,-2.352653653543307
176,1747666072280,1.244936,2.1254945,0.065407336,-0.019547688,1.5479325,-2.656042
177,1747666072290,1.2714906341463414,1.9879077699186993,0.12758637655284552,-0.06578472380487806,1.6258054512195124,-3.095537182113821
178,1747666072300,1.368788357480315,1.7692708795275591,0.27054417889763777,-0.00982675390551181,1.717757896850394,-3.679890654330709
179,1747666072310,1.6331298033898303,1.5476103966101695,0.47554348050847456,0.31965336254237287,1.7520288305084746,-4.622991766949153
180,1747666072320,1.7138107183333333,1.4886434366666665,0.5034413066666666,0.45610253916666665,1.7066149716666668,-4.824175776666666
181,1747666072330,1.8488224454545454,1.2719820090909089,0.48977855818181815,0.7639904702479339,1.6225893471074382,-5.334893190082644
182,1747666072340,1.9026455491525422,1.0255657423728812,0.422694760338983,1.1247167745762712,1.562914186440678,-6.008646540677966
183,1747666072350,1.8204944219512196,0.7732388546341463,0.33943005926829267,1.3013912666666667,1.4417611967479675,-6.477312253658537
184,1747666072360,1.8063321975206614,0.7226656261157025,0.3295337657024794,1.3914500719008265,1.3726293066115702,-6.703347355371902
185,1747666072370,1.7311237137096773,0.5654629213709678,0.29746641096774196,1.4150742604838709,1.363682733064516,-6.73837564516129
186,1747666072380,1.6896082999999997,0.48225713,0.26943922,1.4593570000000002,1.3518448,-6.790989
187,1747666072390,1.6968033201923076,0.3889521620192308,0.26865306423076923,1.4923437538461537,1.3653778230769231,-6.828627692307692
188,1747666072400,1.7027875,0.33118566999999993,0.28871974,1.625340823140496,1.4164248950413223,-6.9682256727272724
189,1747666072410,1.5254589658536586,0.26729030000000004,0.25611724975609756,1.7991123617886178,1.425978012195122,-7.067775517073171
190,1747666072420,1.4200153645669291,0.2564119145669292,0.2064993377952756,1.91379752992126,1.4382557803149605,-7.118845694488189
191,1747666072430,1.232604975,0.26940868825000003,0.115597715,2.098235589166667,1.46277792,-7.174261105833334
192,1747666072440,0.9951491952380952,0.32761781523809524,0.06754574747619048,2.187106007936508,1.3059910849206349,-7.02857201984127
193,1747666072450,0.8336181922764229,0.3808801150406504,0.04631531992682927,2.3427973959349595,0.8819602918699188,-6.6171952349593495
194,1747666072460,0.7074583108695651,0.40628102478260864,0.011120521956521738,2.517758120869565,0.44409370540869564,-6.1777120147826095
195,1747666072470,0.6811638,0.33631086,-0.061746486,2.7910433,0.055588737000000006,-5.778785
196,1747666072480,0.8038917681512605,0.29479039428571424,-0.20618324931092435,3.0914554983193274,-0.5282598138235294,-5.355589226890756
197,1747666072490,0.936792570661157,0.2936371867768595,-0.3627275325619835,3.2319113338842977,-1.1303681983471074,-5.033782246280992
198,1747666072500,1.1145460661417324,0.3238313023622047,-0.8392975195275592,2.238446018110236,-2.2892583385826772,-4.44224067007874
199,1747666072510,1.1691045963963964,0.3064501625225225,-1.023622320720721,1.0920454918918918,-2.4875918297297295,-4.117793075675675
200,1747666072520,1.1884012967741935,0.21795101225806449,-1.02892965483871,0.3123492,-2.243944480645161,-3.939627722580645
201,1747666072530,1.0871641,-0.17066256272727273,-0.5418292745454546,-1.5510423545454544,-0.8813674945454545,-3.2248132545454546
202,1747666072540,1.0285405373015872,-0.26739181817460317,-0.3981212809523809,-1.8340840626984125,-0.584297466984127,-3.031394615079365
203,1747666072550,0.8175580273170732,-0.44645213967479674,-0.10425808533333333,-1.9903627967479673,-0.11047225069105691,-2.279168024390244
204,1747666072560,0.6547487908620689,-0.5521353481034482,0.09376005894827585,-1.96271,-0.032986723,-1.981036
205,1747666072570,0.56767714,-0.6067263,0.21037734,-1.96271,-0.032986723,-1.981036
206,1747666072580,0.5505104010169491,-0.5909246322033899,0.22535170271186442,-1.723193883898305,-0.22020138577118645,-1.5330647022372883
207,1747666072590,0.46639338,-0.51349646,0.29872608,-0.5412266,-1.1490375,0.65240407
208,1747666072600,0.4494808366115703,-0.4694451327272728,0.2508726985950413,-0.3601681647933885,-1.2078774818181819,0.9156819475206611
209,1747666072610,0.3693002903252033,-0.33144164861788616,0.11924081325203251,-0.04767728874796748,-1.199307225203252,1.6084330073170732
210,1747666072620,0.2231017875,-0.11259699116935484,-0.06542899354838709,-0.06300779541935483,-0.9845768448387097,2.485640203225807
211,1747666072630,0.22036553752066115,-0.038111252309917354,-0.09814933396694216,-0.21252557396694216,-0.8117591319008264,3.1693304900826447
212,1747666072640,0.24747404,-0.0134231495,-0.09298581,-0.28710666,-0.74036866,3.5051448
213,1747666072650,0.26267197856,-0.010088351068,-0.082052045648,-0.28710666,-0.74036866,3.5051448
214,1747666072660,0.31532198,0.0014643435,-0.044174362,-0.28710666,-0.74036866,3.5051448
215,1747666072670,0.6274536184,0.103710660908,0.057005915264,-0.06270409272000001,-0.8788102942400001,4.8204205064
216,1747666072680,0.7717653237606837,0.14946732880341881,0.07935197794871796,0.08767743839316239,-0.9517907205128205,5.230885757264958
217,1747666072690,0.8537123,0.18548352000000004,0.07004443,0.24373524,-0.9993755,5.4012704
218,1747666072700,0.9024211957983194,0.20320330655462185,0.025129694453781517,0.3283375016806723,-1.0328653075630252,5.560228875630251
219,1747666072710,1.0208915,0.24503349,-0.09518232,0.57360244,-1.1307116,6.024964
220,1747666072720,1.0717360603305786,0.26303321776859506,-0.15205774644628098,0.5145252175206612,-1.198613538842975,6.1749944628099165
221,1747666072730,1.2185334611570249,0.3177040450413223,-0.2326268943801653,0.12869062757851238,-1.4628253743801654,6.691963237190083
222,1747666072740,1.3330956600000001,0.36554282400000004,-0.2050568915,-0.061534490799999994,-1.5483398133333333,6.85346032
223,1747666072750,1.415044,0.42807645,-0.11836776,-0.24740042,-1.536937,7.001127
224,1747666072760,1.415044,0.42807645,-0.11836776,-0.24740042,-1.536937,7.001126999999999
225,1747666072770,1.615344332231405,0.5900598182644627,0.1021490532231405,-0.5418929919834712,-1.116530467768595,7.14034840909091
226,1747666072780,1.7371994,0.72533816,0.2774931,-0.6123273272131148,-0.6402768859016393,7.133874906557378
227,1747666072790,1.7371994,0.72533816,0.2774931,-0.51068336,-0.46853364,7.1208563
228,1747666072800,1.9409314262711863,0.9335624161016949,0.4210566744067797,-0.2665702101016949,-0.4695379490677966,6.977375327966102
229,1747666072810,2.1426877585365856,1.1776476520325203,0.5148020742276422,0.16745157521951218,-0.5352371668292683,6.6335496097560975
230,1747666072820,2.1509713561983475,1.4938219289256198,0.4157969083471074,0.7930697069421487,-0.7159744327272727,5.799998981818182
231,1747666072830,2.0993805,1.5761217,0.33191785,0.95478237,-0.7012732999999999,5.415931
232,1747666072840,2.0993805,1.5761217,0.33191785,0.95478237,-0.7012732999999999,5.415931
233,1747666072850,1.3881977,1.9736910000000003,-0.23478306999999998,0.238438162,-0.02909463657142857,3.8867086914285713
234,1747666072860,1.3881977,1.9736910000000003,-0.23478306999999998,0.238438162,-0.02909463657142857,3.8867086914285713
235,1747666072870,1.2616772083333334,1.9958595214285715,-0.24363596702380952,-0.3419754675,0.2589414117857143,3.390447660714286
236,1747666072880,1.2051547,2.0102994,-0.21867529999999996,-0.7432100409174311,0.47519709779816516,2.9717921880733944
237,1747666072890,1.1214572190082646,2.03064712892562,-0.1695895347107438,-1.1050552,0.7147123,2.4990497
238,1747666072900,1.0262607,2.0522776,-0.070532545,-1.3744467,0.9071349,2.0518963
239,1747666072910,0.8744283542016806,2.098949888235294,0.2976575268487395,-1.57491323697479,1.3455821655462183,0.7625805742857144
240,1747666072920,0.8710402634920634,2.1050132666666665,0.3645517711111111,-1.554797465079365,1.4160632238095239,0.4859384712380953
241,1747666072930,0.959974323539823,2.1034193690265486,0.5331225309734514,-0.9599125734513274,1.3321943831858407,-0.7341789438230089
242,1747666072940,1.012659916,2.0770111656,0.5523171768,-0.52899466064,1.149154836,-1.4748388487999997
243,1747666072950,1.0704216763779528,2.0346092385826773,0.5391301492913386,-0.17137896637795277,0.9264613313385827,-2.039813726771653
244,1747666072960,1.1243521225806452,1.9874526330645161,0.5015868466935484,0.14952404975806452,0.7099880010483871,-2.5693928137096775
245,1747666072970,1.1685461,1.9412313,0.42880859999999993,0.42149702,0.54000485,-3.0702088
246,1747666072980,1.1685461,1.9412313,0.4288086,0.5194839501694916,0.6032035550847458,-4.023406820338983
247,1747666072990,1.349836052173913,1.6565332304347826,0.07660426767826087,0.21781330243478264,0.9988603391304348,-4.623181971304348
248,1747666073000,1.4955451455284554,1.4465649479674798,0.01378427469105691,-0.06389749861788617,1.4110738837398376,-5.093816284552846
249,1747666073010,1.5404815096774194,1.3872725193548388,0.05238570814516129,-0.13505048496774194,1.585840633064516,-5.270146064516129
250,1747666073020,1.728751864516129,1.0954628193548386,0.25400061225806453,0.091748014,2.1974203548387097,-6.052728716129033
251,1747666073030,1.741437170909091,0.9963615054545454,0.2881606189090909,0.3509698381818182,2.2168299545454544,-6.31290369090909
252,1747666073040,1.7390268162393163,0.9420839055555555,0.29309608,0.598522623076923,2.151717874358974,-6.511197210256411
253,1747666073050,1.7345148,0.8829991,0.26065314,0.8772025,2.0048597,-6.69264
254,1747666073060,1.8129618252100839,0.7932926966386555,0.15322692403361343,1.167045193277311,1.6569592016806722,-6.969531025210084
255,1747666073070,1.8369752000000001,0.6936166456097561,0.04759116436585366,1.3743028016260164,1.3581123382113822,-7.341368731707317
256,1747666073080,1.8185456153846153,0.6489857823076923,0.021758641923076923,1.4184291,1.3041973,-7.4721036
257,1747666073090,1.7587544504201682,0.5884363848739494,0.00905062725210084,1.439275505882353,1.290989268067227,-7.530187101680672
258,1747666073100,1.658805742857143,0.5299241915966386,0.013468268058823528,1.51810276302521,1.2382495369747901,-7.697327969747899
259,1747666073110,1.305098199122807,0.43102649824561406,0.0464971877631579,1.7787002736842104,1.0190089771929824,-7.686495894736842
260,1747666073120,1.1476811909836064,0.4001498622950819,0.05916387721311475,1.9742013163934424,0.7913158155737705,-7.556047549180328
261,1747666073130,1.0833701,0.39171189999999995,0.06931226,2.081218,0.64873886,-7.461108
262,1747666073140,0.9725952233333333,0.3515238019444445,0.055014572111111104,2.2690703666666665,0.1109738412962963,-7.08368378425926
263,1747666073150,0.7440753713043479,0.23016297730434782,-0.1188601244173913,2.4222613947826086,-0.8050778895652173,-6.302445491304348
264,1747666073160,0.6640274544642857,0.089586445625,-0.36643668526785717,2.088771919642857,-1.2796808169642857,-5.536473447321428
265,1747666073170,0.6574902,0.07834238,-0.3863426,2.0463986,-1.3151928,-5.4648004
266,1747666073180,0.6857041762376238,-0.25467735702970296,-0.5838598293069307,0.8161462138613861,-1.5338886178217823,-3.9744465346534654
267,1747666073190,0.7325026491525424,-0.3476574754237288,-0.5937788474576271,0.17455733627118641,-1.4745872262711865,-3.253390611864407
268,1747666073200,0.8778251066666667,-0.43481239866666666,-0.4359187806666666,-0.5981439835,-1.20925355,-2.332817965
269,1747666073210,1.0035634,-0.48909074,-0.28701133,-1.128879,-0.9981538,-1.6426166
270,1747666073220,1.0993024123966944,-0.5530054936363638,-0.08981710431404959,-1.3117750537190083,-0.8441703246280992,-1.1269655851239668
271,1747666073230,1.1651292999999998,-0.61502427,0.09469421,-1.4361442,-0.6951646,-0.6200282
272,1747666073240,1.127869235967742,-0.6150675718548387,0.11883422717741936,-1.4130741887096774,-0.6757400758064517,-0.5579810429838711
273,1747666073250,0.6305160771428572,-0.5704625111111111,0.36917725904761906,-0.8803732114285714,-0.3608371353968254,0.4658962526190476
274,1747666073260,0.3694226909243698,-0.44873512268907567,0.3493320383193277,-0.3065003528571429,-0.19461447638655463,1.2206165302521008
275,1747666073270,0.1938395696031746,-0.3328921393650794,0.29414126349206343,0.009773843333333337,-0.17121680285714286,1.6913695333333332
276,1747666073280,0.0874650722637931,-0.24715635043103448,0.24292532103448275,0.19398130913793102,-0.16409631431034483,1.9836533206896552
277,1747666073290,0.037761956772580645,-0.057762839959677424,0.0322588577016129,0.7069139402419355,-0.34939028887096774,3.2414234338709678
278,1747666073300,0.06418706,-0.011470691,-0.043930303,0.8240572,-0.4288274,3.6047158
279,1747666073310,0.08270829111111111,-0.006074314222222222,-0.06472940377777778,0.8436727555555555,-0.4176960777777778,3.7148751555555557
280,1747666073320,0.23087814,0.0370967,-0.23112221,1.0005972,-0.3286455,4.59615
281,1747666073330,0.4304627335042735,0.03362566656410256,-0.3650241272649573,0.9655325654700855,-0.13974717145299145,5.226145452991453
282,1747666073340,0.619376601984127,0.032810205031746024,-0.39041024761904763,0.625225433015873,0.004324538015873016,6.470701571428571
283,1747666073350,0.792501910472441,0.02343526188188976,-0.3387014986614173,0.3650424864566929,-0.06284696979527558,6.920905874015748
284,1747666073360,0.92156017,0.016839951,-0.27529657,0.08663271196721312,-0.17819239196721312,7.417806557377049
285,1747666073370,1.20259211328125,-0.0063302353203125005,0.009659331562499991,-0.11789699,-0.32375857,7.995004
286,1747666073380,1.3851912486725664,-0.020576402066371683,0.19688076185840708,-0.11789699,-0.32375857,7.995004
287,1747666073390,1.7797001204724412,0.009412538531496062,0.2688569264566929,0.37294043622047246,-0.1264106203937008,8.65956342519685
288,1747666073400,2.0471848,0.05236248256666667,0.23555999125000002,0.66523224,0.21380283,8.864265
289,1747666073410,2.3634904491803277,0.4480370901639345,0.07480954483606557,1.006065035737705,0.8496384363114754,8.527338081967214
290,1747666073420,2.3852623209302326,0.6790353499999999,0.04866955353488372,1.0647665837209301,0.8089702627906977,8.329488162790698
291,1747666073430,2.459430474789916,0.8389621613445378,0.06590365907563026,1.1082995042016808,0.6199563618487395,8.161195487394957
292,1747666073440,2.6171428842975204,1.17079506446281,0.04671376576859504,1.3649960909090908,-0.00011611520661158318,7.335214297520661
293,1747666073450,2.6353146152,1.2887159776000001,0.005738274304,1.4746335959999999,-0.16733310064,6.9652518
294,1747666073460,2.3806943704918035,1.497843375409836,-0.2592328203278689,1.4321083819672131,-0.03355252515163934,6.151828672131147
295,1747666073470,2.3375802,1.5221851,-0.294089,1.4080443,-0.0061086523,6.038403
296,1747666073480,2.3375802,1.5221851,-0.294089,1.4080443,-0.0061086523,6.038403
297,1747666073490,2.0633486165289256,1.647243285123967,-0.47136730909090907,0.9684636991735538,0.1744348429661157,5.602568233057852
298,1747666073500,1.512068422580645,1.941981270967742,-0.5506462824193548,-0.39675697,0.580627415,4.4513750000000005
299,1747666073510,1.3179925105691057,2.0394872674796747,-0.35483940170731704,-0.9688471707317072,0.6823811609756097,3.856154
300,1747666073520,1.2939916,2.0498369,-0.32410803000000005,-1.1160508,0.6951646,3.581503
301,1747666073530,1.1458445185840709,2.097088985840708,-0.16160261603539822,-1.2519062008849557,0.6592208819469028,2.7652627
302,1747666073540,0.988330712195122,2.1312269341463415,0.025060513878048776,-1.262817436585366,0.5513629891056911,1.7138346130081301
303,1747666073550,0.9232705412698413,2.1227284476190476,0.1111816269047619,-1.0627746488095238,0.4059926857142857,1.117927
304,1747666073560,0.9016424027777779,2.111942491666667,0.13525516166666665,-0.8305731272222223,0.2741427588888889,0.5850731555555555
305,1747666073570,0.8808026,2.0810761,0.15668476,-0.46792278,0.09590584,-0.1966986
306,1747666073580,0.9148485824999999,2.0706731975,0.15195615175,-0.25677719974999996,0.030573805000000003,-0.6270378875
307,1747666073590,0.9247329,2.067653,0.15058333,-0.138241242224,-0.006533813951999999,-0.8924056920000001
308,1747666073600,1.1250071172413791,2.0465462931034484,0.058241315344827585,0.14949346924999998,-0.07234539880172414,-1.770634992241379
309,1747666073610,1.3440501084745764,1.9640321042372881,-0.03116487470338983,0.15660411398898305,-0.023849627838983048,-2.303303576271186
310,1747666073620,1.569278344,1.776795312,-0.023937133840000003,-0.0275964473888,0.25058669192000005,-4.0117768272
311,1747666073630,1.6250144888888889,1.6377326,0.052065546666666664,-0.06448544051282051,0.36968311282051286,-4.6611265264957265
312,1747666073640,1.6275364047619048,1.3598579047619048,0.21855324666666667,0.11677221936507935,0.395860073015873,-5.4704342539682544
313,1747666073650,1.636373541322314,1.2116353553719008,0.29036356859504137,0.312389402892562,0.33227535421487603,-5.842522312396694
314,1747666073660,1.6650835487804878,1.116194882113821,0.2953469640650407,0.6356276240650407,0.18155113406504067,-6.163943334146341
315,1747666073670,1.6989986000000001,1.031946074262295,0.26488612672131145,0.8459782714754098,0.09171991475409837,-6.371324663934426
316,1747666073680,1.7207959491525424,0.9548161172881355,0.20588090144067797,0.989612044237288,0.041471536067796605,-6.537914584745763
317,1747666073690,1.7433008000000003,0.84809893,0.13667206,1.1337659,-0.037873644,-6.731735
318,1747666073700,1.7954091372881356,0.7052137742372881,-0.0007900832050847451,1.1691753627118646,-0.16652806962711864,-6.941240915254237
319,1747666073710,1.8038291724137934,0.6916940170689656,-0.016581164559482758,1.1076672,-0.13748680351724138,-7.008162013793103
320,1747666073720,1.8560555,0.6242984,-0.10348027,0.8765916,0.026267206,-7.2149296
321,1747666073730,1.6921918853658537,0.4511844785365854,-0.15457753170731708,0.5867931752845528,0.3561145761463414,-7.348982126829268
322,1747666073740,1.5562975422764227,0.39482113788617884,-0.11582599910569107,0.4564703002439024,0.5183315803252032,-7.3084266178861785
323,1747666073750,1.43426345,0.36225723375,-0.031102044625000002,0.344862076796875,0.659806055,-7.1687852898437505
324,1747666073760,1.2821483105263158,0.3845956833333333,0.1374470485614035,0.4830658122807018,0.605613950877193,-6.946877543859649
325,1747666073770,1.2061309,0.40098605,0.22184804,0.6713409,0.516792,-6.71402
326,1747666073780,1.178983192173913,0.3736176813043478,0.24325716347826087,0.959138093478261,0.25967084869565216,-6.499287695652174
327,1747666073790,1.1269770601626017,0.26060153674796743,0.13233260624227644,1.5060807479674796,-0.36863483796747964,-6.174918882113821
328,1747666073800,1.0521138651162791,0.16885356093023254,-0.06200757184651162,1.8664253441860466,-1.204512653488372,-5.7364934085271315
329,1747666073810,0.9262092672131148,0.09867114475409836,-0.466189368852459,1.8545768770491802,-1.895064257377049,-5.3072171868852465
330,1747666073820,0.8603018,0.06418706,-0.6157564,1.4526376,-2.1887302,-4.9895473
331,1747666073830,0.8364010413793104,-0.018287462068965515,-0.661538227586207,0.7563933768103449,-2.2983383948275864,-4.6328705336206895
332,1747666073840,0.7868624085365854,-0.19931342202439023,-0.5164767130081301,-0.400543833495935,-2.1442462341463413,-3.9966332463414633
333,1747666073850,0.7886178196581196,-0.32706175008547006,-0.16235647189743588,-1.3918485871794872,-1.5244377641025642,-3.2575563666666665
334,1747666073860,0.8185120201834862,-0.4156563636697248,0.01989850474311927,-1.5847357422018347,-0.9974196348623853,-2.8204937137614676
335,1747666073870,0.8019721,-0.503002,0.14497001,-1.5974126000000002,-0.5717699,-2.4514022
336,1747666073880,0.8019721,-0.503002,0.14497001,-1.5974126000000002,-0.5717699,-2.4514022
337,1747666073890,0.4192667467741935,-0.610103754516129,0.24047512709677418,-0.8237025419354838,0.2030043093548387,-0.5653065122580645
338,1747666073900,0.4192667467741935,-0.610103754516129,0.24047512709677418,-0.8237025419354838,0.2030043093548387,-0.5653065122580645
339,1747666073910,0.30629185,-0.57329047,0.17913802,-0.5363397,0.16065755,0.10873400999999999
340,1747666073920,0.30629185,-0.57329047,0.17913802,-0.5363397,0.16065755,0.10873401
341,1747666073930,0.14345765228688523,-0.44344601885245905,0.07384332109426231,-0.3136793103278689,0.22959019672131148,0.9677957786885245
342,1747666073940,-0.06610684488188977,-0.21260653881889763,-0.0730615168503937,-0.08307768,0.38423425,2.125811
343,1747666073950,-0.09274176,-0.14497001,-0.10470056,-0.08307768,0.38423425,2.125811
344,1747666073960,-0.06070869675675676,-0.12777606572972974,-0.1100456326126126,-0.05731127232432433,0.4234672,2.4393389792792792
345,1747666073970,0.17980523419354838,-0.031180279258064516,-0.14696379298387097,0.1896293280645161,0.6436844482258064,4.776887416129032
346,1747666073980,0.34009063905982906,-0.026967282341880342,-0.17038116564102565,0.3289848788888889,0.5841229155555555,5.241427388888889
347,1747666073990,0.5836222235772358,-0.01774673206504065,-0.23122341105691058,0.5126450719512196,0.3989595681300813,5.721269493495934
348,1747666074000,0.7169389951219511,-0.01079209256097561,-0.27176668,0.5995418951219511,0.26775267439024386,5.930279936585365
349,1747666074010,1.1240558823529412,0.03587641558823529,-0.500274294117647,0.6717567058823529,-0.21009658487394958,6.434803131932773
350,1747666074020,1.1945736032258065,0.07146547548387097,-0.5636265677419354,0.5900958,-0.3115413,6.5240407
351,1747666074030,1.2437943406779661,0.1265085227118644,-0.6110697069491525,0.25833389194915257,-0.48932894406779665,6.709650685593219
352,1747666074040,1.2673893,0.1466784,-0.59794027,-0.073303826,-0.60048056,6.8875055
353,1747666074050,1.2673893,0.1466784,-0.59794027,-0.073303826,-0.60048056,6.8875055
354,1747666074060,1.6310155139130436,0.19272669956521737,-0.16055996104347825,-0.9819313695652174,-0.4478067151304348,7.604252437391304
355,1747666074070,1.8741636133858268,0.24145333291338583,0.06918157968503938,-1.242548024409449,-0.27000725212598425,7.900267477952756
356,1747666074080,2.1334772791666667,0.3473442991666667,0.287326565,-1.0694265391666666,-0.1831374059166667,7.898487550833334
357,1747666074090,2.427032337398374,0.6146532169918698,0.5264632126829268,-0.3666035718699187,-0.29476980373983735,7.499692051219513
358,1747666074100,2.513364548387097,0.8108369122580645,0.5894454516129032,0.14325774596774193,-0.4004270966129032,7.167503838709677
359,1747666074110,2.4408669206611573,0.9364093358677686,0.5229985140495867,0.9046157096694214,-0.5608298302479339,6.533617603305785
360,1747666074120,2.3629622,1.001855,0.45297024,1.1176895023809525,-0.5995836540476192,6.328350547619047
361,1747666074130,2.2076465284552844,1.0923029918699185,0.30418064348292684,1.4658828390243903,-0.5425923751219511,5.726514247154472
362,1747666074140,1.8530917142857142,1.2977220571428572,-0.048009545142857143,1.3649734793650794,-0.4039176873015873,5.505573479365079
363,1747666074150,1.654428399186992,1.405672475609756,-0.24735499089430896,0.8656258593495936,-0.008477608373983741,5.0857067512195115
364,1747666074160,1.4828918615384616,1.5086492435897434,-0.3623311364102564,0.29346593684615385,0.4258513905128205,4.637986623076923
365,1747666074170,1.3476186560975612,1.642362392682927,-0.32723314,-0.2637149971626016,0.8505031768292683,4.105168363414634
366,1747666074180,1.2520731571428572,1.7218997537815124,-0.28044228218487394,-0.4927423970588235,1.032608649579832,3.8429327327731095
367,1747666074190,0.9956255324590164,1.953590242622951,-0.10918961426229508,-0.704127375409836,1.2042958672131148,3.5620654459016396
368,1747666074200,0.9564603600000001,1.9978526,-0.07590181,-1.1081096,1.5222762,2.8808405000000006
369,1747666074210,0.95646036,1.9978526,-0.07590181,-1.1081096,1.5222762,2.8808405
370,1747666074220,1.008252916859504,2.1804598330578515,0.14430842740495867,-1.1688325619834712,1.4752648694214876,2.258429338016529
371,1747666074230,1.0706791,2.2587497,0.25601605,-1.0766271768595042,1.3147031570247933,1.577218695041322
372,1747666074240,1.1904083446280993,2.2796339396694214,0.31983804735537186,-0.9538382958677686,1.172346350413223,1.136714191735537
373,1747666074250,1.3745303999999998,2.2604582,0.35876414,-0.7447348637704918,0.9786261614754097,0.3537810932786885
374,1747666074260,1.4605901177419356,2.1622941475806448,0.3471025533064516,-0.4717653127419355,0.9615216178225806,-1.1096613193548388
375,1747666074270,1.500643719379845,2.0095750279069766,0.3364168395348837,-0.2654280447286822,0.9917989537209302,-2.233953111627907
376,1747666074280,1.4315878401639344,1.6806322155737705,0.3075021226229508,-0.07534171479508198,1.14704468852459,-3.0280541024590164
377,1747666074290,1.405087256910569,1.5280285284552846,0.2785566144715447,0.03855900593495935,1.2610045821138212,-3.4279920569105693
378,1747666074300,1.3966165903999999,1.3375684624,0.18971448272,0.2692449576,1.500187348,-4.35063108
379,1747666074310,1.3990767694915256,1.2879314813559322,0.16683174338983053,0.2922575986440678,1.5203245432203392,-4.54232665338983
380,1747666074320,1.420651380487805,1.1730760341463413,0.14143415073170734,0.29932398,1.5286530024390244,-4.865824907317073
381,1747666074330,1.4775226,1.018451,0.18353106,0.29932398,1.5210545,-5.318193
382,1747666074340,1.490316749593496,1.0045615307317073,0.1908686505691057,0.3262020502439025,1.5361324365853657,-5.427999726829268
383,1747666074350,1.6749012294117647,0.8459413514285715,0.2913387409243698,0.45963247478991603,1.6715069747899158,-5.805878946218487
384,1747666074360,1.7807970572580645,0.7651312927419354,0.35558353927419356,0.7997802551612904,1.897189758064516,-6.271290306451613
385,1747666074370,1.7803975333333333,0.7265584333333333,0.38170553333333335,0.9630629833333333,1.9355265722222221,-6.477954511111111
386,1747666074380,1.7772248,0.71045065,0.39342028,1.0085385,1.9401081,-6.5356474
387,1747666074390,1.702141681889764,0.6317489158267717,0.41291603299212604,1.1459398984251967,1.769440957480315,-6.677252752755905
388,1747666074400,1.561912177777778,0.49077201333333337,0.44472653666666667,1.373254165873016,1.459686699206349,-6.91589656031746
389,1747666074410,1.3600443256198347,0.3917784358677686,0.4423951328099174,1.267020341322314,1.182529115702479,-6.87024
390,1747666074420,1.2969202,0.3704789,0.44442827,1.2406673,1.151481,-6.850854
391,1747666074430,1.1426861841666667,0.369525039,0.4950233729166667,1.1615297241666667,1.143499015,-6.658492335
392,1747666074440,0.8251806582677166,0.3930397801574803,0.6574960102362204,1.101822881889764,1.243360879527559,-5.898596564566929
393,1747666074450,0.7987993999999999,0.3904916,0.7080101,1.178359,1.3701707,-5.2968125
394,1747666074460,0.8403305186440678,0.3623629559322034,0.7675765813559322,1.41690706779661,1.4136560559322033,-5.0011125000000005
395,1747666074470,0.99243048392,0.29590085696,0.84117158112,2.3372290951999997,1.2226150184,-4.551723008
396,1747666074480,1.04008045,0.2703544179166667,0.8105445708333333,2.8394238400000003,0.9859975875,-4.4280095
397,1747666074490,1.048509322580645,0.15486613193548388,0.07668908129032256,3.9025224193548387,-0.7781832064516129,-4.296707919354839
398,1747666074500,0.9594678225806451,0.15309474806451615,-0.24971780419354841,3.6871333112903226,-1.4247397387096774,-4.206304747580645
399,1747666074510,0.8752766126829268,0.11202822845528455,-0.47237577577235773,3.102465392682927,-1.6389812650406503,-3.9617392601626014
400,1747666074520,0.7500692888888889,-0.11649666222222223,-0.7321175111111111,1.8014707023809524,-1.6198837214285713,-3.360864207142857
401,1747666074530,0.7362076485365854,-0.23218773560975609,-0.7470056892682927,1.0012082,-1.2388347,-2.8802297
402,1747666074540,0.7537998628571428,-0.42571718,-0.697132059047619,0.540703044047619,-0.8456071692063492,-2.493949511111111
403,1747666074550,0.7782440634710743,-0.5078427796694215,-0.5651014327272726,-0.6380765272727273,0.20452879545454547,-1.3604524545454546
404,1747666074560,0.9003191092561983,-0.5204329214876033,-0.2951842116528926,-1.4402284049586778,0.763162535123967,-0.19142802181818183
405,1747666074570,0.932142488,-0.49119938640000005,-0.1895836712,-1.591304,0.84421575,0.08674286
406,1747666074580,0.898014725,-0.47110982675,-0.128026326625,-1.60167345,0.85330237825,0.2726444395
407,1747666074590,0.810026,-0.45077375,-0.073461235,-1.5283848,0.82527894,0.40378192
408,1747666074600,0.4327820731404959,-0.29459122181818176,0.008245504132231405,-0.8233857642975206,0.209309692892562,1.2339528785123968
409,1747666074610,0.2940828869166667,-0.18961214375,-0.02495892236666667,-0.5011487515,-0.13846789058333334,1.7321847891666666
410,1747666074620,0.248831615,-0.126650455625,-0.077015317375,-0.264767130546875,-0.425329239140625,2.23036920390625
411,1747666074630,0.377356166504065,-0.03441604006504065,-0.2099685974471545,-0.006585425609756096,-0.7423502634146341,3.1680663439024395
412,1747666074640,0.4470586444444444,-0.012433360333333334,-0.24488433055555556,0.08959356666666667,-0.8539896266666667,3.7763688666666666
413,1747666074650,0.5866818552845529,0.031927846731707316,-0.30549023284552845,0.08595320770731708,-0.8462718531707316,3.9844454715447153
414,1747666074660,0.6892851406504066,0.10450610390243903,-0.3755902097560976,0.03187922013821138,-0.8063023951219512,4.1498260609756095
415,1747666074670,0.6941560437500001,0.17663834960937502,-0.41794042984375,-0.126754537703125,-0.7980477162499999,4.3060845078125
416,1747666074680,0.6757945447368422,0.20741656052631577,-0.43636795,-0.39095375,-0.8391252266666667,4.518774
417,1747666074690,0.6427376691056911,0.24093411512195123,-0.46099039414634146,-0.795823304390244,-0.9064048715447154,4.8375267479674795
418,1747666074700,0.6351087907563026,0.24617378403361345,-0.3884406944537815,-1.1875734092436976,-0.9758135798319328,5.263265936134454
419,1747666074710,0.6981443584745762,0.23699614677966102,-0.2952389359322034,-1.6433517186440678,-1.1114744983050848,5.867153554237288
420,1747666074720,0.8678676,0.21037734,-0.102992155,-1.9608774,-1.2290609,6.373157
421,1747666074730,1.0848513808695652,0.2192398108695652,0.18047927286956522,-1.8595800086956522,-1.2605443860869565,6.683673191304347
422,1747666074740,1.203558401612903,0.23268102846774194,0.3214588299193548,-1.7171815927419356,-1.2938766629032257,6.774485667741936
423,1747666074750,1.4643001451612903,0.3681682161290322,0.5559427112903225,-0.8081156161290323,-1.6164381241935484,6.61462625483871
424,1747666074760,1.6026759535714288,0.4811850021428571,0.6667948589285714,-0.22771093017857144,-1.8574449089285714,6.474637321428572
425,1747666074770,1.6728620976,0.63531613744,0.696266068,0.4956316188,-2.2749990664000004,6.31635656
426,1747666074780,1.7598969,0.82857436,0.64943635,1.089202775409836,-2.6284530852459014,6.229263204918032
427,1747666074790,1.9625410540322579,1.1770409198387097,0.2531956074193548,1.8140825677419354,-2.6741708903225807,6.006509701612903
428,1747666074800,2.0181093,1.2734908,0.12764193,1.9443841,-2.5308146,5.900347
429,1747666074810,1.9802474050847458,1.353655202542373,-0.04857980317796611,1.6840519644067797,-1.8947693525423728,5.710751311864406
430,1747666074820,1.9417214884297522,1.3731709702479338,-0.10252824801652893,1.2272283,-1.0500773,5.5234437
431,1747666074830,1.9543721280991735,1.386124161983471,-0.11095326301652893,0.9983305165289256,-0.690646232892562,5.408075916528926
432,1747666074840,1.9236295609756098,1.521482643902439,0.0623477003902439,0.06798979300813007,0.5984244577235773,4.402123485365854
433,1747666074850,1.771423738888889,1.5937615936507936,0.15978195088888889,-0.25914261111111114,0.9560041,3.5413895222222225
434,1747666074860,1.6026588616666666,1.6288888783333333,0.22196801583333334,-0.289916644,0.9952216400000001,3.12042196
435,1747666074870,1.4038172999999998,1.6525116,0.2796896,-0.24740042,0.956615,2.7397306
436,1747666074880,1.1381320177966103,1.7334559372881357,0.2502848461864407,0.08603882083050848,0.5583204906779661,1.9593554932203388
437,1747666074890,1.1045204377952758,1.7710485047244096,0.20405107582677168,0.29675545039370077,0.3503432339370079,1.3774049133858268
438,1747666074900,1.13570864516129,1.7953776330645164,0.16377422556451615,0.3483015677419355,0.3166104578225806,1.1483034758064516
439,1747666074910,1.1755403569105691,1.8838163804878048,0.008672958455284556,0.37082005333333334,0.4075216185365854,0.06879932276422765
440,1747666074920,1.1673661462809917,1.921254965289256,-0.08568023016528925,0.3228902644628099,0.5006469808264463,-0.5083862788429753
441,1747666074930,1.1610414137931033,1.9060492103448277,-0.1327629345689655,0.1507362661637931,0.6376801077586207,-1.2168383206034483
442,1747666074940,1.2027954,1.8262804000000001,-0.14204132333333333,-0.005497786666666662,0.7240789333333334,-1.8049032
443,1747666074950,1.2486257423728813,1.6984853186440678,-0.11168514601694916,-0.22697267322033896,0.8436359559322034,-2.7327522508474575
444,1747666074960,1.2208100292682924,1.6302666560975612,-0.07290763775609756,-0.2761111,0.8784242,-3.0671544
445,1747666074970,1.1734272,1.5214529,-0.011714748,-0.29993483,0.8912524,-3.5253034
446,1747666074980,1.135134715,1.4327950600000001,0.0398870884,-0.25478171066666666,0.8650971851666667,-3.838392073333333
447,1747666074990,1.186528993495935,1.2413942357723575,0.11276834162601626,-0.059760501707317074,0.7370610634146342,-4.476718304878048
448,1747666075000,1.2422853893442622,1.1633368729508198,0.1275999393442623,0.04857880926229508,0.6731134114754098,-4.753713229508196
449,1747666075010,1.3059802991803278,1.085522606557377,0.13447355590163934,0.12508717893442622,0.643090886885246,-4.974486196721311
450,1747666075020,1.4416481112,0.969272428,0.13451068576,0.22098172288,0.62749052048,-5.3208071200000004
451,1747666075030,1.5022609548387096,0.8930901491935483,0.12795684153225806,0.2779437,0.63529986,-5.601023
452,1747666075040,1.4118145543999998,0.79344769648,0.11292040744000001,0.33340536088,0.6916314118400001,-6.2368070048
453,1747666075050,1.2803682901639344,0.762552875,0.12526738024590164,0.3369773030327869,0.7267043427868853,-6.532878364754098
454,1747666075060,1.2495731,0.75438094,0.13154685,0.33292156,0.72692966,-6.563747
455,1747666075070,1.2115002,0.73729694,0.1381364,0.30848694,0.6908886,-6.573521
456,1747666075080,1.2115002,0.73729694,0.1381364,0.30848694,0.6908886,-6.573521
457,1747666075090,1.3100484875,0.6000316847222222,0.23206454708333332,0.3362643541666667,0.6566801666666666,-6.561286583333334
458,1747666075100,1.3650122,0.5640163,0.2630937,0.50762904,0.65179324,-6.5839057
459,1747666075110,1.3650122,0.5640163,0.2630937,0.50762904,0.65179324,-6.5839057
460,1747666075120,1.3650122,0.5640163,0.2630937,0.5348348928455284,0.6389005066666668,-6.580245499186991
461,1747666075130,1.4583396581818182,0.32231974836363636,-0.02600319678181818,1.5101699612727273,-0.34844310963636366,-6.3259429627272725
462,1747666075140,1.5873483,0.27871338,-0.024893839,1.7525724,-0.6914995,-6.2351017
463,1747666075150,1.3092636888,0.1516552224,-0.33119934320800004,1.5319571568,-0.8653468264,-5.8548307672
464,1747666075160,0.8517705061403509,-0.0402244879122807,-0.7780780666666667,0.5027420730877193,-1.1361718254385964,-4.617342831578948
465,1747666075170,0.770377262440945,-0.09982133413385827,-0.8169883818897637,-0.41410895097637795,-1.0886051874015747,-3.754805816535433
466,1747666075180,0.8856611418487396,-0.2694986655462185,-0.5785941320168068,-1.3626504453781514,-0.7945765868907562,-2.8601685344537815
467,1747666075190,0.9468510579365079,-0.3829471044444444,-0.3836308850793651,-1.983654038095238,-0.5067854419047619,-2.1931226476190475
468,1747666075200,0.9499068180327869,-0.4316812291803278,-0.28427067819672136,-2.1180151049180327,-0.3874037175409836,-1.972328789344262
469,1747666075210,0.8983747,-0.5103237,-0.10323621,-2.2272146,-0.1740966,-1.5485435
470,1747666075220,0.8983747,-0.5103237,-0.10323621,-2.2272146,-0.1740966,-1.5485435
471,1747666075230,0.650237070661157,-0.555996651570248,0.1884686747933884,-2.1356756917355373,0.022516189677685948,-0.9970936256198347
472,1747666075240,0.468735166446281,-0.4907486780991735,0.35947413330578515,-1.2545203280991735,-0.0021657980991735583,0.45066206338842985
473,1747666075250,0.38853914,-0.42368335,0.41538543,-0.5717699,-0.1459968,1.3316863
474,1747666075260,0.37122763999999997,-0.3743548457627119,0.389511223220339,-0.1999703661016949,-0.2783164322033898,1.6736673084745763
475,1747666075270,0.4150744629032258,-0.24771022709677418,0.19632436962903227,0.5214917177419355,-0.540054153548387,2.3745908629032253
476,1747666075280,0.46699822217391307,-0.14639189921739132,0.018092070860869565,1.0399316695652174,-0.7249111391304347,2.909205839130435
477,1747666075290,0.5194514379999999,-0.088934462,-0.11905112300000001,1.1717138782608696,-0.7128000737391305,3.277212398260869
478,1747666075300,0.53643787,-0.06931226,-0.1786499,1.1850786,-0.6597345,3.450167
479,1747666075310,0.552380781754386,-0.009120033921052631,-0.2500516304385965,1.1337284403508772,-0.5155113379824561,3.7525505350877197
480,1747666075320,0.5508652144262295,0.047235078032786884,-0.2693831957377049,1.0065807983606556,-0.2817490839344262,4.389026639344263
481,1747666075330,0.5525456,0.08151512,-0.2762728,0.9621128,-0.24434610000000004,4.62425
482,1747666075340,0.6089620424107143,0.11743729276785715,-0.27058539732142856,0.8903797142857143,-0.30822514285714286,5.030868178571429
483,1747666075350,0.77170897,0.14472595,-0.2630937,0.7556403,-0.5369505,5.6596665
484,1747666075360,0.77170897,0.14472595,-0.2630937,0.7556403,-0.5369505,5.6596665
485,1747666075370,1.0001465537606837,0.17013502846153847,-0.24940982213675214,0.5842743512820513,-0.8101796290598291,5.926964564957264
486,1747666075380,1.040416,0.174745,-0.24698593999999996,0.4975949937037037,-0.9231418398148149,6.024850885185185
487,1747666075390,1.1675332491666666,0.24844621925,-0.21318806941666665,0.37468436558333335,-0.9917193333333334,6.178051985833333
488,1747666075400,1.4912223533333335,0.47525473166666665,-0.028164207825000002,0.28863382816666666,-0.9753888833333334,6.742384466666667
489,1747666075410,1.5172693683333334,0.4935366579166667,-0.014322093725,0.3005457,-0.9822713,6.7897673
490,1747666075420,1.6874118,0.6160005,0.05296042,0.5037732576,-1.0833572808,6.8613166496
491,1747666075430,2.019794801886792,0.8764003232075472,0.07603534726415094,0.7259499690566037,-1.1153246433962265,6.590129486792453
492,1747666075440,2.228025353125,1.058312246875,0.0740866284375,0.8653956140625,-1.052167673828125,6.1586240765625
493,1747666075450,2.2907214,1.1263242,0.06345488,0.8875872,-0.97127575,5.8991256
494,1747666075460,2.270919291935484,1.183616669354839,0.058613102241935486,0.8773355142741935,-0.865004891532258,5.688500196774193
495,1747666075470,2.0827017984251968,1.4178610598425199,0.026717542173700787,0.7766983078740157,-0.28389843653543306,4.878793237795276
496,1747666075480,1.9564129512820514,1.5249009615384614,-0.005995047212051282,0.6852916076068376,-0.03240196445299146,4.488460384615385
497,1747666075490,1.831398964864865,1.593073764864865,-0.019524580837837837,0.6367031867567567,0.0717188784054054,4.0912123027027025
498,1747666075500,1.6099759285714286,1.6294656142857142,-0.086117347,0.5845108,0.09058258857142856,3.4950218428571427
499,1747666075510,1.4741058,1.645678,-0.13349932,0.5510005,0.093462385,3.131906
500,1747666075520,1.3839607704,1.6567485616,-0.18189293848,0.4417728728,0.1357440292,2.8273776008
501,1747666075530,1.2261671903225806,1.6790588129032258,-0.2293665677419355,0.23311406129032258,0.2233500737096774,2.394926756451613
502,1747666075540,1.1883147,1.6847272,-0.23673552,0.20952678,0.23335053,2.348166
503,1747666075550,0.8989694831932774,1.7287149672268907,-0.25143227336134455,-0.5385162395294117,0.6534563914285715,1.1978811361344537
504,1747666075560,0.8481500947580645,1.757349968548387,-0.20714752241935483,-0.7470290693548387,0.7837203951612902,0.8120172612903225
505,1747666075570,0.7932973745599999,1.8207335056,-0.093714078016,-0.9613063867999999,0.92309067784,0.17057312431999996
506,1747666075580,0.79181936,1.85073494,-0.0252355194,-1.0263066739130435,0.9670528052173912,-0.21789297304347824
507,1747666075590,0.8907411317460318,1.8611959587301588,0.10185903413492063,-0.9161912042857143,0.8562003877777777,-0.9546369326984128
508,1747666075600,1.0679709548387097,1.819013841935484,0.2464033335483871,-0.4976581214516129,0.4378918593548387,-2.1519303822580644
509,1747666075610,1.0958171,1.8067559,0.26114124,-0.3368843507692308,0.2821570935897436,-2.5062703717948716
510,1747666075620,1.1535942392,1.7560543927999999,0.22625473104,-0.17150652008,0.12410338547999998,-2.891811592
511,1747666075630,1.3022895,1.5941819,0.06613952,-0.022602014,-0.014049901,-3.3664784
512,1747666075640,1.3022895,1.5941819,0.06613952,-0.021500453737704917,-0.015171489590163935,-3.380578367213115
513,1747666075650,1.4604861520325203,1.3608155585365853,-0.12510214993495936,-0.3882421236097561,0.3814629972195122,-4.7724964439024395
514,1747666075660,1.5072975,1.2908187,-0.16693515,-0.4850270199999999,0.48563787,-5.009095
515,1747666075670,1.579854405042017,0.977560049579832,-0.14375587485714286,-0.9907002235294117,1.0463248697478993,-5.799467288235294
516,1747666075680,1.6101688165217392,0.86901148,-0.0820159726173913,-1.1157851808695651,1.200498907826087,-6.100604920869565
517,1747666075690,1.6321993504065042,0.7804315577235772,-0.019675378243902437,-1.1194775951219513,1.2542851609756098,-6.3257481097560975
518,1747666075700,1.6427731707317075,0.6216296627642276,0.07820745006504065,-0.8952056528455283,1.2311020739837397,-6.757361474796748
519,1747666075710,1.641285,0.55962324,0.111046046,-0.7703011,1.2027937,-6.9272118
520,1747666075720,1.5991379258064518,0.5139215638709678,0.11493915087096775,-0.610707575,1.157067447580645,-7.047355430645161
521,1747666075730,1.4884026302521007,0.4369650251260504,0.0910559105882353,-0.3039850168907563,1.0728334142857143,-7.192445509243698
522,1747666075740,1.3847629707317073,0.38164602113821133,0.0679987119105691,-0.10365340292682927,1.001118812195122,-7.229545409756097
523,1747666075750,1.2010058,0.29530928,0.033191785,0.24740042,0.8374963,-7.199658
524,1747666075760,1.0520315415254238,0.2576913766101695,-0.039541410042372875,0.4050657755932204,0.717300770338983,-7.119365271186441
525,1747666075770,0.9432813,0.24137263,-0.10152781,0.5403560233070865,0.5504665488188977,-6.977668207874016
526,1747666075780,0.9424126211864406,0.24124232822033898,-0.10226411830508474,0.5583412061016948,0.513075039661017,-6.9395118440677965
527,1747666075790,0.6450433,0.21330604,-0.31019676,0.4924446666666667,0.1140281768095238,-6.268393480952381
528,1747666075800,0.6450433,0.21330604,-0.31019676,0.48991394,0.108123146,-6.2564816
529,1747666075810,0.6126291908474576,0.21767424949152542,-0.3120333986440678,0.48991394,0.108123146,-6.2564816
530,1747666075820,0.4746951966929134,0.24046941393700788,-0.2827316911023622,0.46169869818897635,0.00914854603149607,-5.980649571653543
531,1747666075830,0.45620301016393444,0.2407364836885246,-0.02440972516393443,0.4614736336065574,-0.6945838385245902,-4.284208331147541
532,1747666075840,0.7302193,-0.028798755,0.019280521,0.8503244,-1.3836098,-3.3286047
533,1747666075850,0.8443236065486726,-0.20442926884955756,-0.03129548269911504,0.8871547349557523,-1.7905270938053097,-2.4659224699115043
534,1747666075860,0.9055909145945945,-0.26461743297297297,-0.06898244875675676,0.7177006213513514,-1.8961422216216217,-1.645439854054054
535,1747666075870,0.96622264,-0.2638259,-0.10396838,0.45142943,-1.8894062,-0.7134906
536,1747666075880,0.96622264,-0.2638259,-0.10396838,0.45142943,-1.8894062,-0.7134906
537,1747666075890,1.0945967,-0.26577836,-0.10372432,0.12156218,-1.5131133,-0.01160644
538,1747666075900,1.0945967,-0.26577836,-0.10372432,0.12156218,-1.5131133,-0.01160644
539,1747666075910,1.077807251724138,-0.2703354805172414,-0.08669502948275862,-0.20799962413793102,-0.8794563470689655,0.5568458137931035
540,1747666075920,0.6662017642105263,-0.1697071305263158,0.08029997468421052,-0.4875476402105264,0.835728007368421,1.8398426042105263
541,1747666075930,0.5134761005833333,-0.12713755196666668,0.12591930229166665,-0.4709160280833334,1.2982414066666665,2.42145467
542,1747666075940,0.38622924440944884,-0.07600557314960629,0.13139311362204723,-0.13067225062992124,1.2265115925196848,3.231179078740158
543,1747666075950,0.41123646,-0.065163285,0.11373068,0.31215215,0.75136423,3.9632938
544,1747666075960,0.5098058467826087,-0.04075331506956522,0.07479187457391304,0.5775969992173913,0.3552260995652174,4.276205533913044
545,1747666075970,0.5825021471999999,-0.01836286680512,0.032475232992,0.93938367952,-0.18686612304,4.6771703888000005
546,1747666075980,0.7028911764102564,0.04832959463179488,-0.1412465637948718,1.1984236384615383,-0.4896006661538462,5.214361266666667
547,1747666075990,0.7831851379259259,0.08278060325925925,-0.24664968474074073,1.1621779562962962,-0.45608556333333333,5.535516089629629
548,1747666076000,0.8782651977777778,0.11380040095238095,-0.3507993644444445,0.9583700199206349,-0.2817300670634921,5.78802108015873
549,1747666076010,0.9115577842741935,0.12016866633064517,-0.3677037337096774,0.7374424128225806,-0.11981825548387097,5.952517427419355
550,1747666076020,0.9829281152755905,0.12832222937007873,-0.3716011874015748,0.5668684829921259,-0.004285675590551178,6.069850653543307
551,1747666076030,1.0731624025,0.1473251555,-0.29288089516666665,0.313272065,0.14212798166666665,6.2645250500000005
552,1747666076040,1.1797727,0.20525214,-0.19304928,0.07147124,0.24801129,6.5307603
553,1747666076050,1.2147697436507936,0.22487163277777777,-0.17654829912698414,0.05369796960317461,0.22730489725396827,6.616712866666666
554,1747666076060,1.4097780898305083,0.33404405423728817,-0.09092580457627118,-0.024962643559322033,0.09454951518644067,7.067834864406779
555,1747666076070,1.5886467088,0.4251613992,-0.056795052639999996,0.0483072246,-0.13891075736,7.285716536
556,1747666076080,1.7428128,0.4888467,-0.03734076,0.093462385,-0.23640484999999997,7.3548174
557,1747666076090,1.9044064780487804,0.5467854447154472,-0.0489602645203252,0.1599721976829268,-0.29385598626016257,7.322555806504065
558,1747666076100,2.0915706,0.6145361,-0.08053889,0.23457226,-0.31703907,7.219816
559,1747666076110,2.250631423140496,0.7719994520661158,-0.15712043247933885,0.16637747741322315,0.05327148710743802,6.719562972727273
560,1747666076120,2.27153230546875,1.021808584375,-0.1922408384375,-0.05436700875,0.5413793325,5.902943425
561,1747666076130,2.2477672,1.0823939,-0.19036464,-0.092240654,0.5925393,5.792835
562,1747666076140,2.2477672,1.0823939,-0.19036464,-0.092240654,0.5925393,5.792835
563,1747666076150,2.0313024827868853,1.2869018680327868,-0.21220176622950818,-0.6347591066229508,0.9620626639344262,4.98008375
564,1747666076160,1.7923565000000001,1.5053451,-0.23356278,-1.1484267,1.3029755,4.232685
565,1747666076170,1.6867426161290322,1.5591675862903225,-0.19246079209677422,-1.3274643596774194,1.3788016266129033,3.9584164782258062
566,1747666076180,1.4872849,1.6691074,-0.08029483,-1.6230689,1.4618006,3.4324517
567,1747666076190,1.3498661094017093,1.7494461247863249,0.12863485871794875,-1.7020951085470086,1.304197294017094,2.8325717102564103
568,1747666076200,1.29871575,1.8369665357142857,0.32829185285714285,-1.5643967714285716,1.0006021007936508,1.8889262087301588
569,1747666076210,1.3001515176,1.8731002608,0.39308249912000004,-1.4109960648000002,0.88242662576,1.36269861376
570,1747666076220,1.2898425,1.8955926,0.45174995,-1.2840388,0.8142834,0.97249746
571,1747666076230,1.2793308097345133,1.898082853982301,0.5197533867256637,-0.9996188366371682,0.7143123285840708,0.3546748374336283
572,1747666076240,1.2725144677419353,1.8830473935483871,0.6558172620967742,-0.5112942,0.54305923,-0.70432764
573,1747666076250,1.2766634,1.8765562999999998,0.6616392,-0.38638778949152547,0.5059103198305085,-0.9557556427118644
574,1747666076260,1.3104491477876106,1.7641451513274335,0.6052295932743362,-0.03786283097345133,0.3950460010619469,-1.7039843433628319
575,1747666076270,1.3489773874015747,1.6020820669291338,0.5029693392125985,0.4306551781102362,0.21582301866141734,-3.2843145307086616
576,1747666076280,1.3742090341666668,1.5101509841666667,0.45083474000000007,0.463891061,0.24489586900000002,-3.761341585
577,1747666076290,1.4338363,1.3950312,0.40513504,0.44959682000000006,0.29810223,-4.0646973
578,1747666076300,1.4738253925619835,1.3046614628099173,0.381939505785124,0.4206993540495868,0.36820533,-4.254403879338843
579,1747666076310,1.5856257983471074,1.0052617636363637,0.3617573770247934,0.3019441269421487,0.8000466861983471,-5.136155040495868
580,1747666076320,1.6218224090163935,0.7923698610655737,0.3919439392622951,0.3642759701639344,0.9980536577868853,-5.618618413934426
581,1747666076330,1.627101409090909,0.7003757264462809,0.3977830442975207,0.43314888809917357,1.0400863768595041,-5.797106338842974
582,1747666076340,1.6699159784,0.41623280879999996,0.36677900096000005,0.69800881872,1.0319028552,-6.2528996800000005
583,1747666076350,1.6753403134453781,0.39051826084033614,0.35676042773109246,0.8901333440336134,0.97116278697479,-6.554322365546218
584,1747666076360,1.6830186999999999,0.3346024799999999,0.3219115,1.0115929,0.90408057,-6.7616673
585,1747666076370,1.6533365008264462,0.30977116925619835,0.27905625922314053,1.0261324834710743,0.8976992979338844,-6.789938731404959
586,1747666076380,1.4729413822033899,0.23113048559322033,0.09464457507627118,1.126052359322034,0.8433978323728814,-7.039326226271187
587,1747666076390,1.3486254523809524,0.17641852285714285,0.0395837610952381,1.138323187301587,0.8015618603174604,-7.1319292984126985
588,1747666076400,1.325963,0.16595893,0.030751212999999996,1.1398746,0.7996226,-7.1232996
589,1747666076410,1.19492705,0.11944947610169492,0.0004943190483050839,1.2092543110169491,0.7650155323728813,-7.013695844067796
590,1747666076420,0.9826326333333333,0.05642371161904762,-0.090556862,1.4423206555555557,0.5398012333333334,-6.629177477777778
591,1747666076430,0.8712556823529412,0.06649841952941177,-0.17481677235294119,1.5958880159663866,0.21324330129411767,-6.307892024369748
592,1747666076440,0.806252069105691,0.11926066040650406,-0.2662684556097561,1.6525096634146341,-0.31583222919512194,-6.001020926829268
593,1747666076450,0.7992702111811023,0.12256286236220472,-0.2804679124409449,1.6552860417322837,-0.42205016283464564,-5.943358062992126
594,1747666076460,0.7414459,0.13276714,-0.4058672,1.4813483,-1.1844677,-5.43609
595,1747666076470,0.7104146239344262,0.11461888360655739,-0.4249116668852459,1.3559356409836067,-1.3308650590163935,-5.220459614754098
596,1747666076480,0.6154818783333333,0.03184947087083333,-0.47280600700000003,0.8959357,-1.7664593966666666,-4.46076225
597,1747666076490,0.5643026661417322,-0.08704196087007873,-0.3917387866141733,0.29840046324409447,-1.8512054488188976,-3.5219075078740154
598,1747666076500,0.5508778770833334,-0.1700672225,-0.25490762125,-0.13548991473333333,-1.8289712333333334,-2.7155809666666664
599,1747666076510,0.6119491408333333,-0.18243685941666668,-0.12300891975,-0.40498838400000003,-1.6508633149999998,-1.911580565
600,1747666076520,0.6926481320000001,-0.17630110008,-0.038303320776,-0.5630955623999999,-1.316267948,-1.1669725323999998
601,1747666076530,0.8420955361682243,-0.16876900850467288,0.04065263974766355,-0.6785970546728972,-0.5516341332710281,-0.2103374604672897
602,1747666076540,0.90117255632,-0.15991607384,0.09584420768000002,-0.70529036288,-0.048018897968,0.43138326176
603,1747666076550,0.9103335,-0.14863087,0.13593988,-0.69027776,0.111177474,0.6872234
604,1747666076560,0.8711695100840336,-0.08763501201680672,0.20612376672268906,-0.5310266739495798,0.19535881218487394,1.176269781512605
605,1747666076570,0.8429737,-0.05027579,0.2362474,-0.3744604,0.17592919,1.500285
606,1747666076580,0.7689174609917356,-0.030936775537190084,0.20909452528925618,-0.14235180181818186,0.1075678162892562,1.8007448603305785
607,1747666076590,0.5775957793750001,-0.00211643396484375,0.080346309921875,0.48643963437500004,-0.050377292250000004,2.67870133125
608,1747666076600,0.5466920748031496,-0.0013913184927559054,0.038232427716535435,0.5749348285826772,-0.056194792236220474,2.8976031992125986
609,1747666076610,0.4602749963478261,0.02731106726330435,-0.10226423495652175,0.5934051119130435,-0.07441401073043478,3.4141842817391304
610,1747666076620,0.4504336672131148,0.05582909721311475,-0.1769215076229508,0.41055652532786885,-0.13336890859016395,4.134936960655738
611,1747666076630,0.548928766557377,0.07011844719672132,-0.1703439531147541,0.24833675352459017,-0.19348905967213115,4.483550744262295
612,1747666076640,0.5674331029411765,0.07258549588235294,-0.1659732788235294,0.17783365210084032,-0.22311980840336137,4.623705893277311
613,1747666076650,0.6823014116935484,0.0899370644516129,-0.11151448187096775,0.05806668541129033,-0.31655628443548384,4.889094711290323
614,1747666076660,0.8266219,0.107629254,-0.008542004,-0.032986723,-0.48075095,5.1990743
615,1747666076670,0.899419051627907,0.1142471676124031,0.00810307903875969,-0.028933229558139536,-0.5521937882945737,5.306491682945736
616,1747666076680,0.9735148703448275,0.12748625198275862,0.025127377956896547,-0.014618637,-0.6133297855172413,5.474068889655173
617,1747666076690,1.01239828,0.18836339149999998,0.06155123748333333,0.0028252519791666666,-0.6359870908333333,5.647449341666667
618,1747666076700,1.0561751357142857,0.2790794835714286,0.10499110619047619,0.08063421542857144,-0.6410303476190476,6.209299528571428
619,1747666076710,1.1133437663716814,0.30448411451327434,0.1207262707079646,0.11235596061946904,-0.6540582873451327,6.339186263716814
620,1747666076720,1.3527934081300814,0.4038095861788618,0.15824236414634146,0.24117258365853658,-0.7229813585365854,6.676250439024391
621,1747666076730,1.6370129951999999,0.5434959660800001,0.185508896,0.34588656479999996,-0.73005237184,6.7251815640000006
622,1747666076740,1.8609622333333333,0.6552778692682927,0.19220202772357725,0.6411254089430893,-0.6669556058536585,6.63257109593496
623,1747666076750,1.9880903,0.72558224,0.19817449,0.7519751,-0.59742624,6.4696736
624,1747666076760,2.023157506140351,0.7626724952631578,0.19802462859649123,0.786939102631579,-0.5725629424561404,6.385760090350878
625,1747666076770,2.0157778190082647,0.9723401933884297,0.1220629135909091,0.9967402280991735,-0.37103752264462814,5.61406847107438
626,1747666076780,1.8506861,1.1036268,-0.0134231495,0.9492845999999999,-0.1740966,5.166087
627,1747666076790,1.731895527559055,1.1469306496062992,-0.09265143605905513,0.6656459196850393,0.1728411901338583,4.867913122047245
628,1747666076800,1.6898197543307087,1.1874384732283465,-0.12849902425196852,0.4795532631496063,0.41872648803149604,4.658193809448819
629,1747666076810,1.6503131744,1.2793148744,-0.11924246456,0.21033311568,0.66678141104,4.160915953600001
630,1747666076820,1.6128465,1.3475852523809524,-0.10632179452380952,0.03534291678571429,0.7886270428571429,3.7374481571428575
631,1747666076830,1.51731388852459,1.4237199221311474,-0.08182919229508197,-0.08784442658196721,0.8270814975409835,3.210252072131148
632,1747666076840,1.4516525,1.4540931,-0.06809197,-0.13396372047619048,0.8280423666666666,2.9277025523809526
633,1747666076850,1.2727251548387097,1.5696955443548386,0.0006869032193548385,-0.2243057776612903,0.7931937653225807,2.2401955201612904
634,1747666076860,1.2518149685483873,1.6148422798387099,0.009663879818548387,-0.24957293701612904,0.7815233108870967,1.9025940653225806
635,1747666076870,1.2509807209302324,1.6767299744186046,0.0018502944302325583,-0.3086006062790697,0.8267847988372093,1.273412553488372
636,1747666076880,1.2344415,1.7084008,0.012935034,-0.35697309355932205,0.8787451881355932,0.8310148457627119
637,1747666076890,1.1929598008196722,1.747207806557377,0.07291110160655738,-0.36777093770491803,0.9415737163934426,0.3083066836065574
638,1747666076900,1.1132427416000001,1.80334104,0.17538734544,-0.25692991311999996,1.0610778368,-0.641144604
639,1747666076910,1.1514157330578512,1.793933723966942,0.19683721603305784,-0.1369095407603306,1.0489717008264463,-1.193085405785124
640,1747666076920,1.2648149193548388,1.7505202322580644,0.20710224838709676,-0.018025452677419358,0.9872272177419356,-1.7564198596774194
641,1747666076930,1.3795807880000002,1.6115197533333332,0.22383628506666667,0.22937583279999998,0.7990280505333333,-2.920620062666667
642,1747666076940,1.3795807880000002,1.6115197533333332,0.22383628506666667,0.22937583279999998,0.7990280505333333,-2.920620062666667
643,1747666076950,1.4292856015384616,1.3760360415384616,0.21936241846153848,0.4902428509230769,0.5534438923076923,-4.291563372307692
644,1747666076960,1.4292856015384616,1.3760360415384616,0.21936241846153848,0.4902428509230769,0.5534438923076923,-4.291563372307692
645,1747666076970,1.4813261773584907,1.0116726037735848,0.15716365339622643,0.7059988235849056,0.4617103986792453,-5.297665350943396
646,1747666076980,1.526853947826087,0.9240029026086957,0.10615004580869566,0.7128797,0.5287861814782608,-5.567935580869565
647,1747666076990,1.5819466539062499,0.8420070265624999,0.05876441096875,0.6868368195312501,0.6104739214843751,-5.7923958828125
648,1747666077000,1.606114986178862,0.7984481585365852,0.04850985056910569,0.6568936894308943,0.6687534178861789,-5.937143235772357
649,1747666077010,1.6527557885245903,0.6348969102459017,0.12102238516393443,0.6712007262295081,0.6791218991803278,-6.376772267213115
650,1747666077020,1.6633002629921259,0.5062381563779527,0.22854135677165355,0.8742924577952756,0.4562922881102362,-6.8134752637795275
651,1747666077030,1.6480677541666666,0.4442147179166666,0.28198780916666666,1.15006073025,0.1635744425,-7.0532484625
652,1747666077040,1.608697358064516,0.4059813591935484,0.2894204067741935,1.4792003612903226,-0.16891409419354836,-7.245768290322581
653,1747666077050,1.5471311,0.3963140971428571,0.2215516872142857,1.6431839,-0.3156428042857143,-7.300363285714286
654,1747666077060,1.3862451,0.4024504,-0.014887493,1.9566014,-0.5681047,-7.356039
655,1747666077070,1.3058351496,0.40564852479999997,-0.14570607720800002,1.8636130408000002,-0.49419976056000003,-7.292543416
656,1747666077080,1.1013504285714286,0.40396600336134453,-0.33223573815126045,1.42886,-0.19793060647058824,-7.020771777310924
657,1747666077090,0.9275802799999999,0.41007038888888886,-0.3283654688888889,1.0803230358974358,-0.06218294866666667,-6.686217602564102
658,1747666077100,0.72485006,0.4170938,-0.19890665999999999,0.8686504,-0.15393804,-6.260147
659,1747666077110,0.6702028335483871,0.21283760911290325,-0.051505920846774196,1.220824064516129,-1.0793890322580646,-5.669932866129033
660,1747666077120,0.6733226610399999,0.13189049456000002,-0.026182459680000002,1.3732251,-1.4373659,-5.4648004
661,1747666077130,0.6922378879464286,-0.07646618796428573,-0.7316835883928572,1.9189022642857143,-2.5663975678571425,-4.097465875
662,1747666077140,0.7324829265,-0.0840024716,-0.862518625,1.74134775,-2.597551720833333,-3.57872855
663,1747666077150,0.8092938325,-0.09310784,-0.964331225,1.5100589,-2.5638015,-3.2375858
664,1747666077160,0.8029660748387097,-0.10994778774193549,-0.924447529032258,0.21751728387096772,-2.577403064516129,-2.637992079032258
665,1747666077170,0.77683425,-0.13593988,-0.8756774,-0.5009095,-2.5833492,-2.4141395
666,1747666077180,0.7158914776724138,-0.28032498948275864,-0.10147731241379312,-1.8303313103448273,-1.555357717241379,-1.2927804267241378
667,1747666077190,0.6972716,-0.32581642,0.22599702,-2.2143865,-1.2583824,-0.96883225
668,1747666077200,0.7509961462295082,-0.2871593726229508,0.5168532175409836,-1.6560857565573772,-0.9518582114754097,-0.22495863098360655
669,1747666077210,0.75694559275,-0.2798523160833334,0.7577916373333333,-0.52656585,-0.7519751,0.7134906
670,1747666077220,0.7772911272,-0.26950168408,0.72543574656,0.38132162552,-0.8886574584,1.1234934976
671,1747666077230,0.7806271573770491,-0.23219445721311474,0.5453039016393442,1.0612130901639345,-1.0550043221311478,1.4454924229508197
672,1747666077240,0.7336709371428571,-0.13734611333333333,0.07182256761904761,1.7348185341269842,-1.0038891465079365,2.250281988095238
673,1747666077250,0.71191496,-0.10396838,-0.09274176,1.8234328,-0.94989544,2.4526238
674,1747666077260,0.71191496,-0.10396838,-0.09274176,1.8234328,-0.9498954399999999,2.4526238
675,1747666077270,0.65945050224,-0.064638072,-0.28063264496,1.45698200864,-0.48619497312,2.8554138128
676,1747666077280,0.5688567426666666,-0.023716262833333335,-0.3801639193333333,0.9204771959166667,0.08312857783333333,3.3209332166666665
677,1747666077290,0.5161145454545455,0.024649782545454545,-0.28008895818181817,0.23914449060606058,0.5486125166666667,4.126135424242425
678,1747666077300,0.5058412233333334,0.0405745178,-0.252664313,0.197843982,0.56560012075,4.2007673875
679,1747666077310,0.54345449375,0.088196185,-0.209645175,-0.015933401316666665,0.6315226846666666,4.6592117250000005
680,1747666077320,0.5755877375396825,0.09620697583333335,-0.1852084663888889,-0.059253927,0.6401868,4.7580295
681,1747666077330,0.7587779483870967,0.10697580056451614,-0.08315266791935484,-0.09682214126612904,0.6007810576612903,4.906573231451612
682,1747666077340,0.83687234,0.12544543,-0.034168016,-0.19486602,0.46120325,5.3572884
683,1747666077350,0.8690756860000001,0.138173012,-0.01845072875,-0.15052738116666667,0.40218349416666666,5.42977771
684,1747666077360,0.9584941666666668,0.1963576088888889,0.012853681833333333,-0.05131268,0.28588495,5.589417
685,1747666077370,1.0247514888,0.23380879448,-0.019797924128,-0.027987401959999998,0.26527191256,5.702246280000001
686,1747666077380,1.1263242,0.2438132,-0.057109397,-0.058123067892561976,0.278847375785124,5.837519234710744
687,1747666077390,1.1263242,0.2438132,-0.057109397,-0.13622294,0.31703907,6.1233134
688,1747666077400,1.2680854639344261,0.3373591339344262,-0.04041948215573771,-0.27786357475409834,0.3649469086885246,6.4529399508196725
689,1747666077410,1.5721493097560977,0.530832427398374,0.05734948154471545,-0.3385137049593496,0.15323777682926829,6.7613444000000005
690,1747666077420,1.6776011066115704,0.5840551970247934,0.10123937818181819,-0.3004043409917356,0.07748396157024794,6.774495376859504
691,1747666077430,2.0779035,0.7497439,0.2853029,-0.015882496,-0.18203785,6.603453
692,1747666077440,2.18954502,0.810894892,0.30123496400000005,0.15582440124799998,-0.18472076664,6.410580906400001
693,1747666077450,2.3011377647058824,1.1123391109243697,0.20142925966386555,0.8409304605042016,0.025764141109243698,5.336524105042017
694,1747666077460,2.105043026612903,1.2738666201612905,0.04585520423387096,0.9764582008064516,0.1601058136935484,4.898863535483872
695,1747666077470,1.9042248818897638,1.3576193748031495,-0.05369835861417322,0.9624446866141733,0.34339765881889767,4.427248299212598
696,1747666077480,1.6210343663865547,1.4423579042016805,-0.25940416,0.4236068161344538,0.7707887512605042,3.7425763411764708
697,1747666077490,1.5868602,1.4511645,-0.28749946,0.30970868,0.8509353,3.6187658
698,1747666077500,1.5404698946902655,1.4619872088495576,-0.28649082575221235,0.16338212728318585,0.9470249300884955,3.4046872141592917
699,1747666077510,1.3884417,1.4975352,-0.28261828,-0.21563543000000002,1.1985176,2.837469
700,1747666077520,1.1736794578512397,1.5993192867768595,-0.22581143462809916,-0.6711187754545455,1.469524749586777,1.8702220132231404
701,1747666077530,1.0803183663716815,1.6933577097345132,-0.1777514322123894,-0.9406838097345134,1.5999857858407078,1.2512737292035396
702,1747666077540,1.073869649090909,1.7349186381818182,-0.13231009261818183,-1.0130367045454545,1.6160994999999998,1.0438576954545453
703,1747666077550,1.0801489882882882,1.7894585504504505,-0.043754402702702706,-1.1151537864864864,1.6212583675675676,0.6734486891891892
704,1747666077560,1.2761094634920633,1.800158511111111,0.3949659888888889,-0.7287961700000001,1.2890275166666667,-0.4827871694444445
705,1747666077570,1.3531861079999998,1.7930319216000001,0.5420941112000001,-0.41929301276000003,1.0764276736,-1.0418038096
706,1747666077580,1.4293782066666667,1.6996145333333335,0.5603229266666667,0.5803801738095239,0.5725261809523811,-2.240130219047619
707,1747666077590,1.4328601,1.688876,0.5544981,0.6365216,0.5448918,-2.307849
708,1747666077600,1.4328601,1.688876,0.5544981,0.6365216,0.5448918,-2.307849
709,1747666077610,1.3745704336363638,1.5339042163636365,0.29807600327272726,1.1505369072727272,0.2225659760909091,-3.377096309090909
710,1747666077620,1.3659766258064516,1.3381324475806453,0.033040232983870974,1.4318681,0.044593163,-3.9694023
711,1747666077630,1.4099207432203391,1.1946726389830509,-0.07965987542372882,1.2636317372881356,-0.019397561949152545,-4.6432695093220335
712,1747666077640,1.4855764,1.0186949,-0.16010156,0.97494096,0.028710667,-5.1734176
713,1747666077650,1.5393039039682541,0.8874405547619048,-0.1603979069047619,0.5496478242857142,0.3263765725,-5.634446392857144
714,1747666077660,1.5480591325,0.6476343970833334,-0.058533065258333336,-0.10641272473333332,0.9636399073333333,-6.346869633333333
715,1747666077670,1.4995691206349206,0.5221624350793651,0.05339430011111111,-0.1394809011111111,1.1055303444444444,-6.564290000000001
716,1747666077680,1.4129704328000001,0.41508670287999994,0.16656222807999999,0.13470311040000002,0.9558721616,-6.71458196
717,1747666077690,1.325768187394958,0.3265588302521008,0.25646723487394957,0.464216512184874,0.7424117361344538,-6.847707159663866
718,1747666077700,1.2603117,0.2923806,0.2562601,0.84788096,0.4111123,-6.908886
719,1747666077710,1.1841933419354838,0.27317091290322576,0.1482057330645161,1.2236567032258066,0.07168306649999999,-6.93585245564516
720,1747666077720,0.9688026587301588,0.2899400050793651,-0.2518748258730159,1.2868410277777778,-0.41920385246031744,-6.798513382539682
721,1747666077730,0.8782874247933884,0.29945219206611573,-0.36139028694214875,1.1960035305785124,-0.5212548190082644,-6.605558619834711
722,1747666077740,0.8576172,0.30165476,-0.38268176,1.1417072,-0.552833,-6.500828
723,1747666077750,0.8406581320000001,0.26939429712,-0.46120570384,0.8693541008,-0.64114949152,-5.964537175999999
724,1747666077760,0.8300387,0.24332508,-0.5227706,0.6585127,-0.70921457,-5.5497108
725,1747666077770,1.0164384119047618,0.0843992578095238,-0.4021443601587301,-0.21783163126984126,-0.8416123272222222,-4.766246971428571
726,1747666077780,1.066632535483871,0.01941436016129032,-0.33386244806451615,-0.6154910628225806,-0.8929913927419355,-4.45560669032258
727,1747666077790,1.1287541234782608,-0.14978960539130437,-0.11179733230434782,-1.04163148,-0.8566721173913043,-4.027487434782609
728,1747666077800,1.1758678,-0.30385128,0.070532545,-1.2993103,-0.6750061,-3.436117
729,1747666077810,1.1281099577235771,-0.39645213414634145,0.1703083065853659,-1.1949268715447154,-0.48475882227642275,-2.9865947317073167
730,1747666077820,1.1063287850393702,-0.42092379055118107,0.1916483538582677,-1.1247231382677165,-0.41689869921259837,-2.8034963086614173
731,1747666077830,1.0601847,-0.46370876,0.22453266,-0.98715824,-0.30176744,-2.4801128
732,1747666077840,0.9896389031007753,-0.4954097252713178,0.23792744372093022,-0.8575979888372093,-0.247215751627907,-2.1974100558139535
733,1747666077850,0.9830626,-0.4983649,0.23917611,-0.7086037,-0.18448131,-1.8723019
734,1747666077860,0.9249669103092782,-0.4779043497938144,0.20937344659793813,-0.5426561701597937,-0.1804697507216495,-1.3960285431958765
735,1747666077870,0.6029570158730159,-0.25587852380952386,0.009415573626984126,0.2809058988095238,0.0331321657936508,1.7360305793650794
736,1747666077880,0.614523957,-0.184409662,-0.0043320161200000006,0.38957931625000003,0.2053270875,2.4132995375000004
737,1747666077890,0.6786405211290323,-0.14020302096774193,-0.0026334563758064517,0.5418079103225807,0.27893882112903223,2.8804069516129034
738,1747666077900,0.7490116975,-0.069861387,-0.017022991875,0.73247513296875,0.26280569015625,3.2260270578125
739,1747666077910,0.79220198736,-0.039398649647999995,-0.046880467392,0.9159459975199999,0.204600768,3.4993831616
740,1747666077920,0.8847458996062992,-0.0011818517559055114,-0.13582266133858267,1.114035437007874,0.0975989535433071,3.8360365929133855
741,1747666077930,0.9936780635537189,0.05662732891735537,-0.2800446061983471,1.2468617909090909,-0.01160644,4.267549951239669
742,1747666077940,1.0086197120967741,0.08271374975806452,-0.32274210532258063,1.2274992137096774,-0.006611138629032259,4.381962924193548
743,1747666077950,1.0201317930434783,0.14151500530434785,-0.40061466782608696,1.0792183010434782,0.05097803365217391,4.648530714782608
744,1747666077960,1.0281095133333333,0.1889003225833333,-0.440043373,0.8221024476666667,0.10355183833333333,4.932879583333333
745,1747666077970,1.064896178125,0.299683248671875,-0.47386958398437495,0.4506658578125,0.1530026471875,5.29015015625
746,1747666077980,1.0906918,0.32215557,-0.46200037,0.32070425,0.16310102,5.407379
747,1747666077990,1.155849381395349,0.3498475516279069,-0.4198806218604651,0.16926649744186048,0.13164856604651162,5.533771511627907
748,1747666078000,1.1590278,0.35119838,-0.417826,0.16187929,0.1301143,5.539937
749,1747666078010,1.1590278,0.35119838,-0.417826,0.16187929,0.1301143,5.539937
750,1747666078020,1.57982065625,0.6692202290625,-0.06263881974999999,0.624113376875,-0.8305762471875,5.8048040953125
751,1747666078030,1.57982065625,0.6692202290625,-0.06263881974999999,0.624113376875,-0.8305762471875,5.8048040953125
752,1747666078040,1.6517794,0.7153318000000001,-0.07028849,0.7660250000000001,-0.9639453,5.796499999999999
753,1747666078050,1.6737621327999999,0.7355807367999999,-0.0754371212,0.779244128,-0.96531364,5.772114279999999
754,1747666078060,1.8954895068965518,0.9658944267241378,-0.12943660517241382,0.9125589396551724,-0.9617441103448277,5.460197586206895
755,1747666078070,1.93761046015625,1.096463365625,-0.177688933046875,0.9435624640625,-0.888517844609375,5.0841741421875
756,1747666078080,1.9158493,1.1783084,-0.20696054,0.9450085,-0.82344633,4.7891836
757,1747666078090,1.8693693081300813,1.211297793495935,-0.21680616910569106,0.9201964581300813,-0.7357548893495935,4.481779337398374
758,1747666078100,1.558780183464567,1.3972066401574805,-0.29059915212598425,0.7873427548031496,-0.4369562381102362,3.569939795275591
759,1747666078110,1.4578019229508197,1.4150879836065575,-0.3267446262295082,0.73426,-0.36896262,3.4202344
760,1747666078120,1.2001101834645669,1.443141242519685,-0.3569097014173228,0.19873803661417322,-0.09321707255905512,2.783679337007874
761,1747666078130,1.0864034168067227,1.4498805336134455,-0.3439566478151261,0.048104354201680674,-0.03152372579831932,2.613923231092437
762,1747666078140,0.999542756701031,1.4400937731958763,-0.297822806185567,-0.12405603195876287,0.030788867628865978,2.3962668453608247
763,1747666078150,0.9134390100787402,1.420478494488189,-0.24078842708661416,-0.35383528677165355,0.10462630700787402,1.9989096803149606
764,1747666078160,0.8717635247706423,1.4278670128440367,-0.21231861834862387,-0.4622176333027523,0.10820721502752294,1.7666894825688073
765,1747666078170,0.9137848960629922,1.4882341787401574,-0.1289237157480315,-0.8414452232283465,-0.027979552125984256,0.7963470354330708
766,1747666078180,0.9269294,1.4926541,-0.1181237,-0.86376345,-0.03726278,0.7367035
767,1747666078190,1.046740409448819,1.5333155212598426,-0.03185427374803149,-0.9640800153543306,-0.015415930338582675,0.09800780417322834
768,1747666078200,1.1543062566929134,1.5884493937007873,0.12302022881889765,-0.9258071401574803,0.07942691702362205,-1.0422900733858267
769,1747666078210,1.1817253,1.6019918,0.21647878,-0.8924741,0.08307768,-1.1753048
770,1747666078220,1.23202954765625,1.597800846875,0.30511159984374997,-0.5115232971875,0.01509982633125,-1.8990654875000001
771,1747666078230,1.312413927419355,1.5675521209677419,0.251272679516129,-0.15840623352419353,-0.0788656537483871,-2.6588501612903226
772,1747666078240,1.3642801,1.5451264,0.19207305,0.029321533,-0.13500121,-3.0854805
773,1747666078250,1.3725141142857145,1.5370434642857143,0.1583059864285714,0.04719176495238095,-0.13371160761904763,-3.2028344523809524
774,1747666078260,1.4465769779661015,1.4685048491525425,-0.023677688474576266,-0.020225848847457633,-0.056065003576271186,-3.7975369796610168
775,1747666078270,1.617191293442623,1.2618040147540985,-0.2688630586885246,-0.4137059868852459,0.21137940711475411,-4.598503414754099
776,1747666078280,1.688974955172414,1.135324952586207,-0.32458982629310346,-0.8422884068965516,0.5021312393103449,-5.220980982758621
777,1747666078290,1.705228,1.0074683,-0.2936009,-1.0812315,0.6817256000000002,-5.586363
778,1747666078300,1.6993022616,0.94756689304,-0.25683219896,-1.2524301528000001,0.8613737676,-5.9557114775999995
779,1747666078310,1.6966859,0.87079626,-0.21208574,-1.3390167,0.99387777,-6.2039475
780,1747666078320,1.6760874733333333,0.7693986079999999,-0.16076863853333334,-1.2879788975,1.089198208,-6.336383041666666
781,1747666078330,1.5766974333333332,0.42994752,-0.007127723873846153,-1.0366384,1.4184291,-6.793432
782,1747666078340,1.4854010446280994,0.3481345545454546,-0.007779577423801654,-0.693983338429752,1.4453727611570248,-6.907058158677686
783,1747666078350,1.3765138793650793,0.2905637015873016,-0.1632762420952381,0.30102566428571426,0.7282386335714286,-6.962074607142858
784,1747666078360,1.3559821,0.2848148,-0.24283697,0.5992588,0.38789943,-6.952257
785,1747666078370,1.3735952048,0.27292823752,-0.47918200656000004,0.7586555248,-0.585638952,-6.9239767104
786,1747666078380,1.3786794,0.25601605,-0.6501685,0.7660250000000001,-1.3182471999999998,-6.899112
787,1747666078390,1.3519957897435897,0.2040506304717949,-0.7102441205128206,0.6954778984615384,-1.4248823384615386,-6.89347323076923
788,1747666078400,1.2485968000000003,0.0026846298,-0.94303715,0.42210788,-1.8380935,-6.871623
789,1747666078410,1.1843991843478263,-0.08697564085739132,-0.8816451239130435,-1.08760574,-1.697286387826087,-6.297585055652174
790,1747666078420,1.0538724128,-0.24431107864,-0.70027248896,-2.577685112,-1.0652219067200002,-5.4496950992
791,1747666078430,0.9360689224137931,-0.45124925198275856,-0.2850925295689656,-3.0178112603448275,-0.23975407896551723,-4.430489931034483
792,1747666078440,0.8744927751219511,-0.5518075121951219,-0.06638357024390244,-3.0103290560975613,0.03620494,-3.981828302439024
793,1747666078450,0.74342959968,-0.6617446304,0.134834798,-2.4082654256000002,0.044998777776,-3.2556283872
794,1747666078460,0.6210091544144144,-0.6956928846846846,0.19202028126126125,-1.934065454054054,-0.08519093572972974,-2.7987204486486488
795,1747666078470,0.31615254758064515,-0.6941656983870967,0.2441989508064516,-0.7924350552419355,-0.5448819471774193,-1.606748010483871
796,1747666078480,0.15979347704918034,-0.632938456557377,0.24760007909836065,-0.3314194236721311,-0.7939245340983607,-0.9566950819672131
797,1747666078490,0.07224095,-0.5784157,0.23258655,-0.021380282999999996,-0.9627236,-0.4373795
798,1747666078500,-0.029801886771653543,-0.4072104848818897,0.14324238543307086,0.665953747976378,-1.0546708724409448,1.2216439157480312
799,1747666078510,-0.037584815,-0.39415246,0.13642799999999997,0.71837753,-1.0616838,1.3481796
800,1747666078520,-0.037584815,-0.39415246,0.136428,0.71837753,-1.0616838,1.3481796
801,1747666078530,0.16252752576923074,-0.2525366787179487,-0.004835254247863249,1.2978067382051284,-0.432163672068376,2.9048417846153844
802,1747666078540,0.3574708652136752,-0.1677299098290598,-0.12421261282051282,1.7186562914529915,-0.004557994914529914,4.103667569230769
803,1747666078550,0.39537275,-0.16571487,-0.1403329,1.7635679,0.021380282999999996,4.2650614
804,1747666078560,0.49685175,-0.15990630499999997,-0.177063524,1.8220073866666666,-0.014100806083333334,4.568111601666667
805,1747666078570,0.7586600658333335,-0.11638479616666667,-0.21947660816666667,1.9211050008333332,-0.2700380709333333,5.2146918499999995
806,1747666078580,1.0477920666666667,-0.008731826666666666,-0.23760329333333333,2.008525,-0.5546656,5.698151
807,1747666078590,1.103871,0.019036464,-0.24259292,2.042573131147541,-0.6552080262295082,5.843156442622951
808,1747666078600,1.2099699,0.09530435337704919,-0.279647607704918,1.9569017852459014,-0.6551079024590163,6.079576280327869
809,1747666078610,1.320359552,0.1745009296,-0.3112120476,1.8161268160000001,-0.559186044,6.243091656000001
810,1747666078620,1.3830724,0.20671647999999998,-0.29897013,1.6371188,-0.3549127,6.274808
811,1747666078630,1.4219024991452993,0.24092204487179486,-0.26260352085470084,1.5130348717948718,-0.18054983364102567,6.285834697435897
812,1747666078640,1.428711,0.24112856,-0.27090356,1.4605788,-0.115453534,6.2882466
813,1747666078650,1.5123270544,0.3553493088,-0.106260578056,1.3431118504000001,0.165158408832,6.3115621416000005
814,1747666078660,1.5708106605504588,0.4487809988990826,-0.022130843366972477,1.419028757798165,0.19352098502293577,6.28401552293578
815,1747666078670,1.6278619,0.55962324,-0.04271002,1.6742013377049183,-0.012167233729508196,6.147137144262295
816,1747666078680,1.6824592804878047,0.6086727951219512,-0.0890769263414634,1.7196353097560977,-0.09093945788617887,5.963539691056911
817,1747666078690,1.7398841,0.70117646,-0.16644704,1.7012597,-0.09590584,5.770844
818,1747666078700,1.7181792866666667,0.8297295893333333,-0.229690418,1.5244498241666666,0.10747665270000001,5.4678141375
819,1747666078710,1.7049413913043479,1.0041364460869564,-0.23127077347826086,1.256289444347826,0.3906084830434782,5.1526271608695655
820,1747666078720,1.6995224417322834,1.1622716968503934,-0.19449633968503938,1.067138320472441,0.6134481903937008,4.844551018110237
821,1747666078730,1.7121318745762713,1.2776438237288137,-0.15577885033898303,1.0649349288135592,0.6784124762711865,4.55351369661017
822,1747666078740,1.7207164776859505,1.3307655338842974,-0.1432252994214876,1.0901875388429754,0.6774950239669423,4.337224017355372
823,1747666078750,1.717175180952381,1.5215807523809524,-0.18981842357142859,1.1778839555555556,0.5257513555555556,3.5085386222222223
824,1747666078760,1.6838486000000001,1.6288868600000002,-0.24596088800000002,1.1912509800000002,0.38040438208695654,2.8600817391304347
825,1747666078770,1.5797037456692915,1.75042468503937,-0.33769258929133855,1.0789804228346456,0.28249871952755906,2.1976622661417324
826,1747666078780,1.5429298999999999,1.7913802,-0.379509,1.0091494,0.2669481,1.9162843
827,1747666078790,1.445760866942149,1.8526224545454546,-0.4743444115702479,0.5083509576859504,0.5059832256198348,0.9115876363636364
828,1747666078800,1.3777032,1.8816814,-0.4876264,0.12767084,0.7079928,0.22724187
829,1747666078810,1.313553336440678,1.8697764296610169,-0.4445771495762712,-0.033224854067796614,0.804022893220339,-0.07679300372881355
830,1747666078820,1.2793782487603307,1.7421129198347107,-0.2789352541322314,-0.49613869115702475,1.0184486371900827,-1.1140314285950412
831,1747666078830,1.3038323966101695,1.6292847762711864,-0.15679230491525425,-0.6841535373728814,0.9552223805084746,-2.0073808720338984
832,1747666078840,1.3142853464,1.5565287784,-0.08918046987199998,-0.6702413340000001,0.803654312,-2.5363125600000003
833,1747666078850,1.3211555906976744,1.481944007751938,-0.029981203658914723,-0.59620446,0.66767573,-2.8441887
834,1747666078860,1.3306,1.3957634,0.01586372,-0.4408293966393443,0.44532076557377054,-3.2114388172131143
835,1747666078870,1.3488478207999999,1.2132281024,-0.034552648,-0.07252680855999999,-0.08659136792,-4.082241392
836,1747666078880,1.3377926900826447,1.039238120661157,-0.15638825388429753,0.07086037,-0.29653215223140494,-4.597861520661157
837,1747666078890,1.3538907048780489,0.9556071276422764,-0.22440567235772357,0.03212257325203252,-0.28354079951219513,-4.97320775609756
838,1747666078900,1.3719836064516129,0.886333269516129,-0.26639240580645157,-0.045287776532258066,-0.2336066937096774,-5.191916233870967
839,1747666078910,1.4029538478991597,0.758144332184874,-0.2941320586554622,-0.17654006,-0.14294247,-5.427538
840,1747666078920,1.450472911111111,0.6630764055555556,-0.2852622533333333,-0.519026998095238,0.02892883288095238,-5.905505658730158
841,1747666078930,1.48506596,0.5982107449999999,-0.27227026375,-0.6518950666666666,0.08936449625,-6.131483425
842,1747666078940,1.5014402,0.545712,-0.26821893,-0.7263188,0.13133603,-6.2937446
843,1747666078950,1.504825682905983,0.459088382991453,-0.2601462443589744,-0.8006824880341881,0.2085295488034188,-6.536691454700855
844,1747666078960,1.3814771073170733,0.34019199170731707,-0.2402951907317073,-0.7890293012195122,0.2663074470731707,-6.832572154471545
845,1747666078970,1.2886124274193547,0.30443190387096775,-0.22473933072580643,-0.7075642287096775,0.22511369032258063,-6.894052403225807
846,1747666078980,1.21345265,0.29189247999999995,-0.20891300999999998,-0.5562946146666667,0.037832917333333334,-6.802065786666668
847,1747666078990,1.1636750809917356,0.28458487752066114,-0.2053913223966942,-0.4243998794214876,-0.1487179181818182,-6.6998943421487605
848,1747666079000,1.134329344,0.261033882,-0.2279689904,-0.33292155,-0.34939047640000004,-6.60606784
849,1747666079010,1.1185144,0.22624107,-0.24308102,-0.27989846400000007,-0.520945874,-6.53552532
850,1747666079020,1.0896196885245901,0.17728559262295082,-0.26461405737704913,-0.24373524,-0.66706485,-6.4715066
851,1747666079030,0.9659911418803419,0.0829815550957265,-0.2935925193162393,-0.16278253641025642,-0.8707178927350427,-6.1683763145299135
852,1747666079040,0.8198835080487805,-0.027911812995121948,-0.31939951463414634,-0.05235561699186992,-1.1690718520325203,-5.663798471544715
853,1747666079050,0.7862595961946902,-0.1237283768141593,-0.32824837787610617,-0.005038287283185841,-1.4139584495575221,-5.153924053097345
854,1747666079060,0.7888139428571429,-0.22370984371428573,-0.34709824000000006,-0.001370083707142857,-1.6599041785714286,-4.578556897142857
855,1747666079070,0.7568215,-0.3572998,-0.3682824,-0.056199603,-1.8350391,-3.9749002
856,1747666079080,0.7568215,-0.3572998,-0.3682824,-0.056199603,-1.8350391,-3.9749002
857,1747666079090,0.7646313299999999,-0.43027294,-0.31141704,-0.54694432,-1.668126444,-2.001658772
858,1747666079100,0.76463133,-0.43027293999999994,-0.31141704,-0.6274458971428571,-1.4750796214285715,-1.5617642857142857
859,1747666079110,0.7447698461061947,-0.45314087734513275,-0.2759617959292035,-0.6672811026548673,-0.9212496690265488,-0.540934708141593
860,1747666079120,0.45150196129032255,-0.4227130388709678,-0.14285812927419353,-0.6646214,-0.6750061,-0.10873401
861,1747666079130,0.29339847918699186,-0.2858208017886179,-0.04883525959349593,-0.462996127398374,-0.19688236650406504,1.4525680295121952
862,1747666079140,0.3613277251968504,-0.16834185196850393,-0.02089475979133858,-0.04062494181102364,-0.032169030362204726,2.7910674677165352
863,1747666079150,0.5148070231496062,-0.08234914207874017,-0.030395697405511814,0.3547154953543307,0.00808554705511811,3.629953707874016
864,1747666079160,0.5437595,-0.073949344,-0.035876416,0.41416663,0.007941248,3.7274997
865,1747666079170,0.7330574167741936,-0.021949406825806452,-0.12868509212903226,0.7341270270161291,0.015192809467741935,4.171012462096774
866,1747666079180,0.8526311314049586,0.02309870841983471,-0.19275279198347106,0.925773832231405,0.0001161145619834719,4.460997320661157
867,1747666079190,0.9722101973333334,0.08474074699999999,-0.23815514383333333,1.07610018,-0.0752585972,4.757052
868,1747666079200,1.0070886841269842,0.12680517444444445,-0.23833546444444445,1.1250974738095236,-0.14769848095238094,4.89643425
869,1747666079210,1.03848314,0.1870161872,-0.2557524624,1.178921048,-0.19242255,5.135495252000001
870,1747666079220,1.0726834913385825,0.2185580822047244,-0.25573355393700786,1.1667766322834647,-0.13008543661417324,5.381833486614173
871,1747666079230,1.0924002,0.23746772,-0.25089085,1.1429288000000002,-0.06047566,5.566815
872,1747666079240,1.1216123048387094,0.27078544822580647,-0.21681338241935483,1.1553185862903224,0.02846927326612903,5.769459657258065
873,1747666079250,1.208655315625,0.3379887790625,-0.15893465874999999,1.2188336648437499,0.073871740625,5.945374789062501
874,1747666079260,1.3509138887850467,0.4540901822429907,-0.1560803131775701,1.4362583672897196,0.04515264793457943,6.057288285981309
875,1747666079270,1.4436357208,0.5284698504,-0.17638309704,1.6360535264,-0.0045252893919999985,6.0826246128
876,1747666079280,1.5066569525,0.5788346454166666,-0.19220117166666667,1.7987538699999999,-0.0924849976,6.012532654999999
877,1747666079290,1.6386858141666667,0.71109738,-0.25520456775,1.8924606,-0.15760323,5.9406643
878,1747666079300,1.6662864897637797,0.8682499818897638,-0.34683032708661415,1.95862635511811,-0.247357131496063,5.523005707874016
879,1747666079310,1.6700838,0.9510911,-0.3943965,1.9529362,-0.25900686,5.393329
880,1747666079320,1.653936305691057,0.9930927634146341,-0.4140044240650407,1.8590318146341462,-0.17673374228455285,5.2640044861788615
881,1747666079330,1.6046905140495866,1.0969506,-0.4561389604958678,1.590975841322314,0.06773535974380165,4.9264061239669426
882,1747666079340,1.5672025256198348,1.1717047190082646,-0.4549105962809918,1.335760376859504,0.3146864768595041,4.673371495867769
883,1747666079350,1.5480281748031495,1.2798650472440947,-0.4147839409448819,0.9903568724409448,0.6112067622047245,4.270130896062992
884,1747666079360,1.5519041694915254,1.3232142898305086,-0.37359786762711866,0.9081806169491525,0.6527146898305085,4.071800084745763
885,1747666079370,1.5479148338582678,1.3751204031496063,-0.330124891496063,0.8706368881889764,0.6538374543307087,3.680198592125984
886,1747666079380,1.5404893,1.398204,-0.31947094,0.8729264,0.6414085,3.50881
887,1747666079390,1.3728176796460176,1.4540952539823009,-0.3693039725663717,0.8120831567256638,0.5288579265486726,2.7345842433628316
888,1747666079400,1.2644606,1.4899695,-0.40171823,0.77091193,0.45570546,2.2290473
889,1747666079410,1.2606632372881357,1.4908629983050847,-0.4030419306779661,0.76540379,0.4552084857627119,2.2126057033898303
890,1747666079420,0.9402324515873015,1.6229594444444444,-0.4286439642857143,0.3617098051111111,0.43615779031746027,1.236924554920635
891,1747666079430,0.8879117661290322,1.7124198862903226,-0.3903262709677419,-0.11958179825000001,0.4651886616935484,0.4320935634677419
892,1747666079440,0.8927614000000001,1.7581885,-0.3648656,-0.26083946,0.48075095,0.18509217
893,1747666079450,1.0507314733333333,1.81465523,-0.24989836499999998,-0.47832278075,0.42277984175,-0.47720790075
894,1747666079460,1.2950333655462185,1.8716976529411764,-0.11746742544537815,-0.46687557815126046,0.16462561924369748,-1.3939277546218487
895,1747666079470,1.4616496887218047,1.897367112030075,-0.05938481867669173,-0.44386478120300754,0.08358290039849624,-1.716333837593985
896,1747666079480,1.619871930327869,1.8926859040983606,-0.06891816999999999,-0.4136559073770492,0.03315696409836066,-2.0821591770491805
897,1747666079490,1.8450727,1.8257922,-0.15009521,-0.45631635,0.04337143,-2.7250698
898,1747666079500,1.9761508259842522,1.5875923377952756,-0.27414546322834643,-0.6275221330708661,0.13530904771653543,-3.4584545842519687
899,1747666079510,1.9359541081967213,1.3139721639344264,-0.34426874950819675,-1.324646244262295,0.49903684098360657,-5.294429098360656
900,1747666079520,1.6306170429687499,0.93080957265625,-0.30032199703124995,-1.5740088625,0.6028190109375,-5.7261839046875
901,1747666079530,1.5893008,0.8751893,-0.29116032,-1.6719382,0.6401868,-5.8759127
902,1747666079540,1.4414434440677963,0.5787796877966102,-0.22967442033898305,-1.8502953,0.7849825712711864,-6.165069493220339
903,1747666079550,1.319669907142857,0.23523631142857146,-0.12439947035714286,-1.93451326984127,0.9298823441269842,-6.452482301587302
904,1747666079560,1.33466126,0.1298189272,-0.0705520682,-1.8647663856,0.9514592544,-6.54309004
905,1747666079570,1.3246058658536586,-0.0012976702926829277,-0.03759076882926829,-1.6897873902439025,0.9770267953658536,-6.731764780487805
906,1747666079580,1.2969073298245615,-0.08498116466666666,-0.02857396565789474,-1.3778547333333335,1.033830476403509,-6.989252114035088
907,1747666079590,1.2412569760330578,-0.112901693553719,-0.0304446283553719,-1.2202512214876033,1.0568372495867768,-7.101717342148761
908,1747666079600,1.1591117664,-0.11270368596000001,-0.030514966480000003,-0.8408095896,1.0019900072,-7.2280899272
909,1747666079610,1.0319991176470587,-0.09202803983193278,-0.07809011294117649,-0.5073980248739496,0.8815504042016806,-7.183513504201681
910,1747666079620,0.9130182,-0.0707766,-0.13764828,-0.20891592,0.7629707,-7.108639
911,1747666079630,0.9021771327731093,-0.0673556968235294,-0.14369023462184874,-0.19246875781512604,0.7445215430252101,-7.0881878436974795
912,1747666079640,0.657883843548387,0.017999222088709677,-0.28294106451612905,0.14034136467741934,0.2877717256451613,-6.58508796451613
913,1747666079650,0.54302548984375,0.079438724328125,-0.377211465234375,0.173409364296875,-0.123518867890625,-6.0660351640625
914,1747666079660,0.5553005559322033,0.07308893911864407,-0.4355181016949152,-0.05268971355932203,-0.5350765474576271,-5.099803338983051
915,1747666079670,0.6615210887096774,-0.008656158870967745,-0.3980455629032258,-0.1908067064516129,-0.7146335225806452,-4.598022258064516
916,1747666079680,0.7079844035087719,-0.06449105561403509,-0.36848791385964913,-0.3045377447368421,-0.8544772336842105,-4.033629035087719
917,1747666079690,0.7224616111111111,-0.14754408213675216,-0.3487494701709402,-0.314224882051282,-0.8794005818803419,-3.447457145299145
918,1747666079700,0.6842884766393443,-0.18948645278688525,-0.36872649844262295,-0.19877654475409837,-0.6994206730327869,-2.4586124819672133
919,1747666079710,0.6540757508571429,-0.2044641945714286,-0.38224944219047624,-0.13911437961904763,-0.5717233118095237,-1.8073641447619049
920,1747666079720,0.61496738,-0.21697910183333333,-0.39019466483333337,-0.13316862,-0.49357912,-1.3610078
921,1747666079730,0.5425032884210527,-0.1663211625263158,-0.3162647915789474,-0.2411438737894737,-0.3068858262105263,-0.0972240237894737
922,1747666079740,0.5336879577586207,-0.12616076681034483,-0.2656226469827586,-0.28822833844827583,-0.23404036620689653,0.5434910174137931
923,1747666079750,0.5640162999999999,-0.06589546,-0.20183535,-0.33475417,-0.14049901000000004,1.7061466
924,1747666079760,0.6188429076767678,-0.019347085424242426,-0.1539261712121212,-0.2634865472121212,-0.11682952026262627,2.1214855474747476
925,1747666079770,0.7744266124324324,0.07454299751351351,-0.062208214729729726,0.0656762738918919,-0.010335178648648647,2.998919037837838
926,1747666079780,0.8441235846153846,0.12460061423076924,-0.02660693321153846,0.3018731638461538,0.06378842803846153,3.3017970826923078
927,1747666079790,0.8515157,0.15839316,-0.029774986,0.52106804,0.08918632599999998,3.486208
928,1747666079800,0.8284371619834711,0.18099164628099174,-0.05686735472727273,0.8019297629752066,0.05157015112396694,3.751586025619835
929,1747666079810,0.8092938,0.19768637,-0.07687803,0.88147855,0.029932396,3.8325686
930,1747666079820,0.7518288577586207,0.2253889725,-0.09115538155172413,0.9975745564655172,-0.09013421855172413,4.066756469827586
931,1747666079830,0.6760386,0.2608972,-0.10860548,1.1557571000000002,-0.2565634,4.4086146
932,1747666079840,0.6604554407874016,0.26707935472440947,-0.11771053999999999,1.2118027283464567,-0.3196460653543307,4.660925934645669
933,1747666079850,0.682809251328125,0.2761050228125,-0.12900141367187498,1.279839075,-0.3946189425,4.9836677499999995
934,1747666079860,0.7543563292436974,0.2988245115966387,-0.14923382831932772,1.35521226302521,-0.45249713663865543,5.193766420168067
935,1747666079870,0.8986755127906976,0.3664547811627907,-0.20563242,1.4690693434108526,-0.5527762279069768,5.422859255813954
936,1747666079880,0.9373318067213114,0.4021783224590164,-0.22787744721311476,1.4887887327868854,-0.596575035737705,5.459282865573771
937,1747666079890,1.002270248467742,0.4631399504032258,-0.24548617024193548,1.492959633064516,-0.6861149502419355,5.524379538709677
938,1747666079900,1.1054728600000001,0.5228105565454546,-0.222966274,1.4866460690909091,-0.7786699273636364,5.6079873454545455
939,1747666079910,1.2105918739130435,0.576703026347826,-0.19478951226086957,1.491823256521739,-0.8234198127826087,5.664686132173913
940,1747666079920,1.3497369870967741,0.6655264016129032,-0.18443642266129032,1.5733868798387096,-0.7386543137096774,5.719876208064515
941,1747666079930,1.50266046,0.8094891,-0.22389812,1.6599652269565217,-0.35217709234782607,5.485984146956522
942,1747666079940,1.5559817717948718,0.8779803188034188,-0.2500502188034188,1.6825787658119657,-0.1909502175213675,5.365636652991453
943,1747666079950,1.5907731,0.9881878398373983,-0.2981288479674797,1.6424974414634146,-0.011189263658536584,5.109649363414634
944,1747666079960,1.6073611,1.0526189,-0.32239962,1.5949692,0.04886922,4.9437323
945,1747666079970,1.6167211912000001,1.1173428776,-0.33215800079999996,1.5236884992,0.07628485344000001,4.7398599224
946,1747666079980,1.6150770564102563,1.2292475,-0.31339453538461537,1.4020662752136754,0.145558222991453,4.259391048717949
947,1747666079990,1.601903750819672,1.3645760262295084,-0.2711155878688525,1.3109068106557378,0.2652006431967213,3.68558531147541
948,1747666080000,1.6009806999999998,1.424736485714286,-0.26835837999999995,1.2857938047619049,0.36585011380952387,3.266984923809524
949,1747666080010,1.4525053370786518,1.5309465123595507,-0.3486124731460674,1.1730603078651685,0.6128076435955057,2.232142752808989
950,1747666080020,1.2391691887096774,1.6008738274193548,-0.40537515274193553,1.034845119354839,0.7626849645161291,1.6486562903225805
951,1747666080030,1.1859623588235295,1.61401821092437,-0.40938245025210085,0.9899302147058824,0.7972972213445378,1.510613237815126
952,1747666080040,1.0853066780487803,1.649499574796748,-0.3809079001626016,0.8023590735772358,0.8347150650406504,1.0213915040650405
953,1747666080050,1.0882878025000002,1.66965666,-0.372504574,0.6544301246666666,0.7760330166666667,0.41616722225
954,1747666080060,1.1414473854700855,1.679322411965812,-0.39166391025641023,0.47939347760683765,0.6803472333333334,-0.40904477025641023
955,1747666080070,1.1501048754385965,1.647908801754386,-0.4288342878947369,0.32345315666666663,0.5970189833333334,-1.0079276433333333
956,1747666080080,1.1519709694915254,1.6395973050847457,-0.43739195966101696,0.2486118077118644,0.5672971152542373,-1.2366035016949153
957,1747666080090,1.1654963865546217,1.5849201722689077,-0.4673531985714286,0.01047197349579832,0.5010429760504201,-1.865890537815126
958,1747666080100,1.1696895846774193,1.55016315,-0.4584418350806452,-0.13744961,0.4745339195967742,-2.2467871153225802
959,1747666080110,1.1752750785714288,1.3667379285714285,-0.3699559042857143,-0.4759622105357143,0.4333107085714286,-3.215649201785714
960,1747666080120,1.1587838,1.2817887,-0.32239962,-0.5571091,0.44409904,-3.5613444
961,1747666080130,1.1587838,1.2817887,-0.32239962,-0.5571091,0.44409904,-3.5613443999999994
962,1747666080140,1.1587838,1.2817887,-0.32239962,-0.5571091,0.44409904,-3.5613443999999994
963,1747666080150,1.0392832924528301,0.7987625113207547,-0.21997847716981134,-0.56016344,0.17165314000000004,-4.9754972
964,1747666080160,1.0392832924528301,0.7987625113207547,-0.21997847716981134,-0.56016344,0.17165314000000004,-4.9754972
965,1747666080170,1.1199256000000002,0.6033413604347826,-0.2031511356521739,-0.6173457408695652,-0.15877184273913042,-5.539618304347827
966,1747666080180,1.1277679607476636,0.5933419597196262,-0.20191061906542057,-0.6214269423364486,-0.1739709942056075,-5.57148503271028
967,1747666080190,1.2262676852459016,0.5016496950819672,-0.19923473360655738,-0.6603753800000001,-0.26172070590163937,-5.888360385245901
968,1747666080200,1.2395863520000001,0.4894324244,-0.20202082240000002,-0.671365368,-0.2683897504,-5.97477528
969,1747666080210,1.217951179661017,0.41632237254237286,-0.23134971872881357,-0.7675055742372882,-0.14831600649152543,-6.2220560474576265
970,1747666080220,1.0910056571428572,0.34502721857142854,-0.23108734571428574,-0.9003281185714286,0.026965336571428574,-6.443581271428571
971,1747666080230,0.9772052,0.32410803,-0.208913,-0.93279123,0.08979719,-6.4629545
972,1747666080240,0.8799063409836066,0.31032679844262295,-0.19147891803278688,-0.9122621536065574,0.13085534950819672,-6.416969236065574
973,1747666080250,0.7388732979508197,0.3188428047540983,-0.16522876459016392,-0.83089691,0.09167986213114754,-6.260046896721311
974,1747666080260,0.51496077,0.42921823750000004,-0.060857415000000005,-0.4529784024107143,-0.4975824601785714,-5.600543571428571
975,1747666080270,0.51496077,0.46688148,-0.0370967,-0.32921168268292683,-0.8063570243902438,-5.383600073170732
976,1747666080280,0.7138256663063063,0.46549853225225224,-0.07043580225225225,-0.165610522,-1.3768076864864864,-5.024449297297298
977,1747666080290,0.8434743784615385,0.433683471025641,-0.12605869794871796,-0.12306585317948719,-1.7355934307692307,-4.7864895897435895
978,1747666080300,0.9825124427118643,0.33406266813559315,-0.21054900830508474,-0.23099507372881356,-1.9206638813559322,-4.483528155932204
979,1747666080310,1.0623188155555554,0.22075792977777778,-0.261976459,-0.41241550066666666,-1.9348138799999999,-4.166019293333333
980,1747666080320,0.9334626746153846,-0.024593461538461536,-0.24127873846153847,-0.7057910221978021,-1.5320903197802198,-3.4837645186813186
981,1747666080330,0.88885653,-0.063943,-0.2294138,-0.7705885352941176,-1.3451252882352942,-3.1907289294117644
982,1747666080340,0.8731665748799999,-0.06462636016000001,-0.22528630432,-0.7556403,-0.5045747,-1.8252654
983,1747666080350,0.6460115150819672,-0.06063222521311475,-0.15190363795081968,-0.48315432180327866,-0.17777179303278687,-0.6641156583606558
984,1747666080360,0.8276556674796748,-0.07552083707317073,-0.23614026967479673,-0.12011199861788618,-0.2472216237398374,0.35060188373983736
985,1747666080370,0.9626625126984127,-0.08726789793650794,-0.33602034698412697,-0.017802359285714286,-0.3050350720634921,0.5824309126984126
986,1747666080380,1.0177187,-0.08419975,-0.39073566,0.3463606,-0.5332854,1.3683381
987,1747666080390,1.015522187,-0.0820032348,-0.395043271,0.3584251875,-0.52717674125,1.4437799624999998
988,1747666080400,0.97378844,-0.040269446,-0.47688788,0.4428773,-0.48441613,1.971873
989,1747666080410,0.812742666885246,-0.019180499142622952,-0.5054465474590164,0.2747591772131147,-0.011896846557377046,2.50057182295082
990,1747666080420,0.58016985109375,0.012504120339062499,-0.495485776015625,-0.004738977031250003,0.5404105184375,3.17522977109375
991,1747666080430,0.4916352925217391,0.02629027086956522,-0.4643603207826087,-0.15258882460869566,0.6909310633043478,3.541823160869565
992,1747666080440,0.439059005,0.01836530825,-0.3660248425,-0.33999578169354844,0.7579261189516129,4.0647566
993,1747666080450,0.43466598,0.017328065,-0.3441207,-0.36896262,0.7593055000000001,4.1551056
994,1747666080460,0.5070851688695652,0.03376266586956522,-0.2689256182608696,-0.36494684052173915,0.6070035173913043,4.363628393043478
995,1747666080470,0.6168775478125,0.0887796370703125,-0.1270680244140625,-0.25038793390625,-0.013744462187499999,5.1057167617187496
996,1747666080480,0.65725221875,0.111613485125,-0.08404721745,-0.15353079780000004,-0.14933618933333334,5.191641983333333
997,1747666080490,0.7654282123931624,0.15697470222222223,-0.04708636176923077,0.22757079858119658,-0.49872187333333334,5.3852263290598295
998,1747666080500,0.8628797425210084,0.24664548386554624,-0.0624663462605042,0.8067014176470588,-0.8448779588235295,5.599416663865546
999,1747666080510,0.900216929032258,0.30046595774193546,-0.08271965709677419,1.0682653258064516,-0.9759853000000001,5.719196225806452
1000,1747666080520,0.9468093784,0.40459810816,-0.12017378688,1.3385523584,-1.0913913936,5.9861763
