id,timestamp,acc_x,acc_y,acc_z,gyro_x,gyro_y,gyro_z
0,1747666198170,1.9955178951807226,-0.01459932840963856,1.652305856626506,-5.882816237349398,-0.7085080157831326,5.68100246746988
1,1747666198180,2.2938099068965516,0.20431378458620691,1.737868525862069,-5.7828926896551724,-0.5141378913793104,5.181127113793103
2,1747666198190,2.1614351631578947,0.5437723842105263,1.7628511263157893,-5.7641244,-0.44532076,4.999321
3,1747666198200,2.1101189,0.6570021,1.7720996,-5.7641244,-0.44532076,4.999321
4,1747666198210,2.1101189,0.6570021,1.7720996,-5.764124399999999,-0.44532076,4.999321
5,1747666198220,2.1101189,0.6570021,1.7720996,-5.7641244,-0.44532076,4.999321
6,1747666198230,2.1101189,0.6570021,1.7720996,-5.764124399999999,-0.44532076,4.999321
7,1747666198240,2.1101189,0.6570021,1.7720996,-5.764124400000001,-0.44532076,4.999321
8,1747666198250,2.1101189,0.6570021,1.7720996,-5.7641244,-0.44532076,4.999321
9,1747666198260,2.1101189,0.6570021,1.7720996,-5.7641244,-0.44532076000000004,4.999321
10,1747666198270,2.306808593277311,1.6609304810084033,2.6880506487394955,-2.63286516302521,-0.43717417067226894,3.4777739470588234
11,1747666198280,1.8759521825,2.53922852,2.241076081666667,-0.8018879095833333,0.4557054835833333,1.3903191333333331
12,1747666198290,1.7728319,2.6253238,2.0937672,-0.7312057,0.83077675,0.9981538
13,1747666198300,1.7728319,2.6253238,2.0937672,-0.7312057,0.83077675,0.9981538
14,1747666198310,1.7728319,2.6253238,2.0937672,-0.7312057,0.83077675,0.9981538
15,1747666198320,1.7728319,2.6253238,2.0937672,-0.7312057,0.83077675,0.9981538
16,1747666198330,1.7728319,2.6253238,2.0937672,-0.7312057,0.83077675,0.9981538
17,1747666198340,1.7728319,2.6253238,2.0937672,-0.7312057,0.83077675,0.9981538
18,1747666198350,1.7728319,2.6253238,2.0937672,-0.7299460868217054,0.8333812139534883,0.99686103875969
19,1747666198360,2.006751100869565,2.739164707826087,1.9793977130434783,0.9920293043304348,0.818554108695652,-0.8686769503478261
20,1747666198370,1.9742008357723577,2.597005104878049,1.9640973780487805,1.2368581764227642,0.8552312113008129,-1.191882526829268
21,1747666198380,1.6950440552,1.6181073240000001,1.9945121104,2.4384860543999998,1.2977808231999999,-2.5985523592
22,1747666198390,1.6881441000000001,1.5736811,2.01152,2.4947736,1.2962561,-2.6352727
23,1747666198400,1.6881441,1.5736811,2.01152,2.4947736,1.2962561,-2.6352727
24,1747666198410,1.6881441000000001,1.5736811,2.01152,2.4947736,1.2962561,-2.6352727
25,1747666198420,1.6881441,1.5736811,2.01152,2.4947736,1.2962561,-2.6352727
26,1747666198430,1.6881441,1.5736811,2.01152,2.4947736,1.2962561,-2.6352727
27,1747666198440,1.6881441000000001,1.5736811,2.01152,2.4947736,1.2962561,-2.6352727
28,1747666198450,1.6881441,1.5736811,2.01152,2.4947736,1.2962561,-2.6352727
29,1747666198460,1.606185546788991,0.9773776344036698,1.7159015981651375,4.105967072477064,0.8105789920183487,-3.1792509752293574
30,1747666198470,1.6041010825396826,0.4912620650793651,1.3410829325396825,4.760976855555556,1.0619746603174605,-3.7010289920634922
31,1747666198480,1.6004397897435898,0.4528722246153846,1.2873060111111112,4.571527508547009,1.2978118777777778,-3.844681386324787
32,1747666198490,1.581735,0.43442193,1.2568948,4.542394,1.3243558,-3.8789942
33,1747666198500,1.581735,0.43442193,1.2568948,4.542394,1.3243558,-3.8789942
34,1747666198510,1.3383456631578947,0.31698541184210527,1.0341412039473685,4.211181845614035,1.2528095631578946,-4.157741728947369
35,1747666198520,1.1963165114754097,0.21018529377049178,1.0208234401639344,3.9803730040983605,0.9864121844262295,-4.363159826229508
36,1747666198530,1.1907552,0.20476402,1.0240642,3.9706242,0.9633345,-4.373184
37,1747666198540,1.1907552,0.20476402,1.0240642,3.9706242,0.9633345,-4.373184
38,1747666198550,1.1907552,0.20476402,1.0240642,3.9706242,0.9633345,-4.373184
39,1747666198560,1.1146907115384614,0.1588186803760684,0.9804906011965812,4.026197276068376,0.9108575194017094,-4.325306858119658
40,1747666198570,0.622219074,-0.07139748841600001,0.70095977584,4.4187935968000005,0.21465315952,-3.842523264
41,1747666198580,0.6129342523809524,-0.0752955317857143,0.605331746984127,4.379302603174603,0.004935402888888887,-3.749054565079365
42,1747666198590,0.6257927892622951,-0.09103335315573771,0.5687614427868852,4.273708322131148,-0.07125593059016393,-3.7361920655737704
43,1747666198600,0.6404485303937008,-0.10675871598425198,0.5517423413385827,4.126134805511811,-0.12856549362204725,-3.748504874015748
44,1747666198610,0.6318130391935485,-0.10074643532258064,0.6525008307258064,4.06813615,-0.20730993193548386,-3.8956551822580647
45,1747666198620,0.547894645203252,-0.10208537211382114,0.7207447362601626,4.113507154471544,-0.2978837393495935,-3.9557149707317074
46,1747666198630,0.5264315,-0.10323621,0.73461235,4.1233406,-0.3115413,-3.9608502
47,1747666198640,0.5264315,-0.10323621,0.73461235,4.1233406,-0.3115413,-3.9608502
48,1747666198650,0.5264315,-0.10323621,0.73461235,4.1233406,-0.3115413000000001,-3.9608502
49,1747666198660,0.5264315,-0.10323621,0.73461235,4.1233406,-0.3115413,-3.9608501999999994
50,1747666198670,0.5264315,-0.10323621,0.73461235,4.1233406,-0.3115413,-3.9608501999999994
51,1747666198680,0.27187976,-0.20354374,0.63332856,4.3255367,-1.1484267,-3.7336085
52,1747666198690,0.5315567,-0.31507793,0.45467865,3.986474352631579,-1.7552408263157897,-3.8191938105263157
53,1747666198700,0.5315567,-0.31507793000000006,0.45467865,3.9584067,-1.7263051,-3.8386772
54,1747666198710,0.5315567,-0.31507793,0.45467865,3.9584067,-1.7263051,-3.8386772
55,1747666198720,0.5315567,-0.31507793,0.45467865,3.9584067,-1.7263051,-3.8386772
56,1747666198730,0.5315567,-0.31507793,0.45467865,3.9584067,-1.7263051,-3.8386772
57,1747666198740,0.5315567,-0.31507793,0.45467865,3.9584067,-1.7263051,-3.8386772
58,1747666198750,0.5315567,-0.31507793,0.45467865,3.9584067,-1.7263051,-3.8386772
59,1747666198760,0.5315567,-0.31507793,0.45467865,3.9584066999999994,-1.7263051,-3.8386772
60,1747666198770,0.37412024143999995,-0.70414814,-0.036895608559999994,3.266917076,-0.897263268,-3.970037728
61,1747666198780,0.16351835,-1.2949678,-0.8598137,2.100173853671875,0.25647272109375,-4.21797697578125
62,1747666198790,-0.6033074728205128,-2.0191419982905985,-1.0583928957264956,0.16450548470085471,2.833427982905983,-3.8163048205128205
63,1747666198800,-0.856641,-2.2028608,-1.0811737,0.03970624,3.14168,-3.602883
64,1747666198810,-0.856641,-2.2028608,-1.0811737,0.039706240000000004,3.14168,-3.602883
65,1747666198820,-0.856641,-2.2028608,-1.0811737,0.03970624,3.14168,-3.602883
66,1747666198830,-0.856641,-2.2028608,-1.0811737,0.03970624,3.14168,-3.6028830000000003
67,1747666198840,-0.856641,-2.2028608,-1.0811737,0.03970624,3.14168,-3.602883
68,1747666198850,-0.856641,-2.2028608,-1.0811737,0.03970624,3.14168,-3.602883
69,1747666198860,-0.856641,-2.2028608,-1.0811737,0.03970624,3.14168,-3.602883
70,1747666198870,-0.9777421985,-2.1716438333333334,-1.2600066399999998,0.09056586566666666,2.8725429465,-2.826030456625
71,1747666198880,-0.9601407000000001,-1.5960563360000002,-2.182047556,-1.5037987656,-0.00966633136,1.9891237231999999
72,1747666198890,-0.8942737565573771,-1.506903481147541,-1.987628155737705,-1.628586787704918,-0.3402319140983606,2.3075283319672133
73,1747666198900,-0.6866348988976377,-1.3063807661417324,-1.6068593724409448,-1.7250353826771654,-0.8387179604724408,2.818325434645669
74,1747666198910,-0.49525871818181816,-1.1799280636363636,-1.4048156727272727,-1.7752955801652892,-1.3825394999999998,3.501787585123967
75,1747666198920,-0.464685,-1.1624447,-1.3796556,-1.7806722,-1.4465289,3.5845573
76,1747666198930,-0.464685,-1.1624447,-1.3796556,-1.7806722000000001,-1.4465289,3.5845573000000006
77,1747666198940,-0.464685,-1.1624447,-1.3796556,-1.7806722000000001,-1.4465289,3.5845573000000006
78,1747666198950,-0.464685,-1.1624447,-1.3796556,-1.7806722,-1.4465289,3.5845573000000006
79,1747666198960,-0.464685,-1.1624447,-1.3796556,-1.7806722000000001,-1.4465289,3.5845573000000006
80,1747666198970,-0.11007178983709678,-0.8671826428225806,-0.935268693548387,-2.179306156451613,-1.23371625,3.939199091129032
81,1747666198980,0.3639995948387097,-0.5139373290322581,-0.2765798483870968,-2.7993195612903223,-0.9227415024193549,4.335498014516129
82,1747666198990,0.49001935902439026,-0.5012995365853659,-0.1126472956097561,-2.949262312195122,-0.9554081650406504,4.351675052845529
83,1747666199000,0.5576314193548386,-0.5076430048387097,0.023181500322580643,-3.0034273677419354,-1.237790312903226,4.29215604516129
84,1747666199010,0.5637722,-0.5086153,0.04759116000000001,-2.9875415229508198,-1.5402616180327868,4.266062509836066
85,1747666199020,0.5637722,-0.5086153,0.04759116,-2.9657507,-1.7067575,4.2711697
86,1747666199030,0.5637722,-0.5086153,0.04759116,-2.9657507,-1.7067575,4.2711697
87,1747666199040,0.5637722,-0.5086153,0.04759116,-2.9657507,-1.7067575,4.2711697
88,1747666199050,0.5637722,-0.5086153,0.04759116,-2.9657507,-1.7067575,4.2711697
89,1747666199060,0.5637722,-0.5086153,0.04759116,-2.9657507,-1.7067575000000001,4.2711697
90,1747666199070,0.5637722,-0.5086153,0.04759116,-2.9657507,-1.7067575,4.2711697
91,1747666199080,0.9673575551219511,-0.3901681747967479,0.4624150689430894,-3.7407401756097562,-0.1984169718699187,5.252333730894309
92,1747666199090,1.2400548,-0.35241866,0.66700846,-4.035987,0.63713247,5.514281
93,1747666199100,1.2383580174603175,-0.351543156031746,0.6632158895238096,-3.977455390476191,0.5146200486507936,5.430374246031747
94,1747666199110,1.059775270967742,-0.2504421,0.67988842,-3.2496750669354837,-1.1588458656451612,4.764325415322581
95,1747666199120,0.8160329741935484,-0.1293267193548387,0.6149376451612903,-2.8360798491935486,-2.3033068161290324,4.724397355645161
96,1747666199130,0.81149036,-0.12739788,0.6118515,-2.7800477,-2.5149322,4.7922378
97,1747666199140,0.8114903600000001,-0.12739788,0.6118515,-2.7800477,-2.5149322,4.7922378
98,1747666199150,0.81149036,-0.12739788,0.6118515,-2.7800477,-2.5149322,4.7922378
99,1747666199160,0.81149036,-0.12739788,0.6118515,-2.7800477,-2.5149322,4.7922378
100,1747666199170,0.870982307704918,-0.15614862344262295,0.6069503519672131,-2.879538623770492,-2.416582893852459,4.9354656803278685
101,1747666199180,2.1122992166666665,-0.48403058,0.720391932,-4.675481198333332,-0.5002375498333334,6.815815535
102,1747666199190,2.3255016086206894,-0.4301971654310345,0.7848018603448275,-4.828015721551724,-0.5151753131034482,6.645798008620689
103,1747666199200,2.487431406451613,-0.2626725101612903,0.9539882919354838,-4.976236532258064,-0.6719024830645162,6.156260624193549
104,1747666199210,2.4809196136363636,0.10884953272727274,1.134500031818182,-5.116518198181819,-0.7968348568181818,5.715366243636363
105,1747666199220,2.4456527856,0.22595015888,1.2101099408,-5.5382508800000005,-0.6292400664000001,5.136399316
106,1747666199230,2.3103910892561985,0.5914011608264462,1.5109119553719008,-6.056077700826447,-0.10300905041322314,4.744766852066116
107,1747666199240,2.2458148000000007,0.64211464,1.6825306,-6.2216625,0.22113322,4.678006
108,1747666199250,2.2458148,0.64211464,1.6825306,-6.2216625,0.22113322,4.678006
109,1747666199260,2.2458148,0.6421146400000001,1.6825306,-6.2216625,0.22113322,4.678006
110,1747666199270,2.2458148,0.64211464,1.6825306,-6.2216625,0.22113322,4.678006
111,1747666199280,2.7472986084745763,1.274233264576271,2.8684771898305086,-2.4573607169491525,-1.256730968983051,4.457002130508475
112,1747666199290,2.870460138016529,1.5923121256198347,2.792922485123967,-1.2020717241322314,-1.5368561909090908,4.059234876859504
113,1747666199300,2.8891497,1.7022992,2.6670575,-0.9150761400000001,-1.5454891,3.8973203
114,1747666199310,2.801527009322034,2.116141877966102,2.108166466101695,-0.8150702701694915,-0.9223702911016949,3.2395633220338986
115,1747666199320,2.7486978292682926,2.347346756910569,1.816412918699187,-0.8038987,-0.61636305,2.946203
116,1747666199330,2.6289847,2.7395427,1.7479379,-0.8038987,-0.61636305,2.946203
117,1747666199340,2.6845962692307697,2.8328268264957264,1.8593406829059829,-1.3127963974358974,0.8059661833333334,2.142163423076923
118,1747666199350,2.7046423,2.8664525,1.8994975,-1.4672983,1.2492194,1.885741
119,1747666199360,2.7046423,2.8664525,1.8994975,-1.4672983000000002,1.2492194,1.885741
120,1747666199370,2.7046423,2.8664525,1.8994975000000003,-1.4672983,1.2492194,1.885741
121,1747666199380,2.7046423,2.8664525,1.8994975,-1.4672983,1.2492194,1.885741
122,1747666199390,2.705126242735043,2.867507994871795,1.900596800854701,-1.4496301974358974,1.2703960666666667,1.8209579641025642
123,1747666199400,2.008684730833333,2.1062689408333335,2.3382880858333337,1.2855200879166666,1.4630019191666668,-2.6268172291666665
124,1747666199410,1.9380586,1.8907114,2.3536882,1.8063285,1.5027285,-2.8930578
125,1747666199420,1.9380586,1.8907114,2.3536882,2.2011093452991455,1.5928650811965812,-2.9810275846153846
126,1747666199430,1.9424768758620687,1.8587315034482759,2.342453148275862,2.4694491146551725,1.643485575862069,-3.0552898637931034
127,1747666199440,2.1921488636363633,1.4018226727272727,2.118428099090909,3.371320736363636,1.701726210909091,-3.5197721545454543
128,1747666199450,2.2187245,1.3689171,2.1008449,3.3933563,1.700038,-3.5387423
129,1747666199460,2.2187244999999995,1.3689171,2.1008449,3.3933563,1.7000379999999997,-3.5387423
130,1747666199470,2.2187245,1.3689171,2.1008449,3.3933563,1.700038,-3.5387423
131,1747666199480,2.205296502970297,1.2785796712871287,2.0936318970297028,3.5741119326732678,1.5997774584158415,-3.7308020079207918
132,1747666199490,2.195658652830189,0.715737018490566,2.249825603773585,5.118935350943396,0.5377458150943396,-4.701622433962264
133,1747666199500,2.2761545487603305,0.5661179998347107,2.121412197520661,5.8394829512396695,-0.003372369421487577,-4.908221471900826
134,1747666199510,2.34244928,0.442622219,1.914055565,6.3303967,-0.3494149,-5.1111097
135,1747666199520,2.3329432,0.37121108,1.6434816,6.4385195,-0.3830125,-5.347514
136,1747666199530,2.3329432,0.37121108,1.6434816,6.4385195,-0.3830125,-5.347514
137,1747666199540,2.3187573615384616,0.3559058775961539,1.5660004557692309,6.377433042307692,-0.32049279278846154,-5.409364123076923
138,1747666199550,2.2377608,0.268463,1.1248599,6.0048056,0.058643065,-5.773898
139,1747666199560,2.2377608,0.268463,1.1248599,6.0048056,0.058643065,-5.773898
140,1747666199570,2.2377608,0.268463,1.1248599,6.0048056,0.058643065,-5.773898
141,1747666199580,2.1141987415929204,0.19750281102654868,1.0420920896460175,5.7462690044247795,0.26372079654867253,-5.848774995575221
142,1747666199590,1.1152142913043477,-0.3352603852173913,0.5931652260869565,4.537161810434783,0.5069384759304347,-6.0521286391304345
143,1747666199600,0.9810796375,-0.39369484,0.5380547,4.6947285,-0.27015517475,-5.8678951875
144,1747666199610,0.9513352,-0.4080637,0.5125202,4.7348166,-0.5015204,-5.8154373
145,1747666199620,0.9513352,-0.4080637,0.5125202,4.7348166,-0.5015204,-5.8154373
146,1747666199630,0.7475473,-0.35754385999999994,0.2562601,4.312709,-1.1863003,-5.5564303
147,1747666199640,0.7475473,-0.35754385999999994,0.2562601,4.312709,-1.1863003,-5.5564303
148,1747666199650,0.7475473,-0.35754386,0.2562601,4.312709,-1.1863003,-5.5564303
149,1747666199660,0.7475473,-0.35754386,0.2562601,4.312709,-1.1863002999999999,-5.5564303
150,1747666199670,0.7475473,-0.35754386,0.2562601,4.312709,-1.1863003,-5.5564303
151,1747666199680,0.7475473,-0.35754386,0.2562601,4.312709,-1.1863003,-5.5564303
152,1747666199690,0.6511738335779816,-0.4123425640366973,0.29366803449541284,2.984160805504587,-0.3252156900733945,-5.227762387155963
153,1747666199700,0.5869132727272728,-0.4529480727272727,0.3090652218181818,2.575569394214876,-0.20027293578512395,-5.016591960330579
154,1747666199710,0.524705792920354,-0.4602422896460177,0.3335398667256637,2.5598929345132744,-0.4582462420353982,-4.817758980530973
155,1747666199720,0.5091034,-0.45467865,0.33753118,2.5692992,-0.63163465,-4.704884
156,1747666199730,0.48713827,-0.4583395,0.3414361,2.5692992,-0.63163465,-4.704884
157,1747666199740,0.48713827,-0.4583395,0.34143609999999996,2.570199421052632,-0.643401844736842,-4.692859631578948
158,1747666199750,0.4569282112173913,-0.5514802104347826,0.3552348690434783,2.7163849782608698,-0.839875987826087,-4.254495722608696
159,1747666199760,0.45174995,-0.5637722,0.35754386,2.7391198,-0.8546005,-4.201531
160,1747666199770,0.45174995,-0.5637722,0.35754386,2.7391198,-0.8546005,-4.201531
161,1747666199780,0.45174995,-0.5637722,0.35754386,2.7391198,-0.8546005,-4.201531
162,1747666199790,0.34431292592920354,-0.9679029721238938,-0.15748388159292034,3.280870746902655,-0.8240139799115044,-3.9939126035398234
163,1747666199800,0.12827877140625,-1.336652003125,-0.77081290078125,3.2125977375000003,-0.6135091265625,-4.003343575
164,1747666199810,-0.237986345,-1.5846027,-1.1489300012499999,1.6983581410714286,0.19371519276785715,-3.8487292044642856
165,1747666199820,-0.5689939181451612,-1.8239579620967743,-1.3451432282258065,0.9173028387096774,0.720505719032258,-3.5896412806451616
166,1747666199830,-0.6252747,-1.8677702000000003,-1.3540297,0.7327193387964602,0.8577683469026548,-3.506523339823009
167,1747666199840,-0.6252747,-1.8677702,-1.3540297,0.108123146,1.3768903,-3.0946434
168,1747666199850,-0.8802621566666666,-2.005828973809524,-1.3509498261904762,-0.34257903917460314,1.7696281492063493,-2.6752891206349205
169,1747666199860,-0.9459658,-2.0349493,-1.3535415,-0.35735616,1.7825048,-2.6615397999999995
170,1747666199870,-0.9459658,-2.0349493,-1.3535415,-0.35735616,1.7825048,-2.6615398
171,1747666199880,-0.9459658,-2.0349493,-1.3535415,-0.35735616,1.7825048,-2.6615398
172,1747666199890,-1.2100495370786517,-2.0786246853932586,-1.5130973393258424,-1.0001442635955056,1.4655412516853932,-1.6693642606741572
173,1747666199900,-1.52738086328125,-2.08682496484375,-1.68022544296875,-1.8182308328125,0.9200203657812499,-0.36683411110937497
174,1747666199910,-1.4361135107438017,-1.9425443983471073,-1.5660185553719008,-2.2088330809917354,0.2480213758677686,0.31983592729752064
175,1747666199920,-1.361677359375,-1.83951670859375,-1.4335636765625,-2.400414,-0.1653965405703125,0.7910227921875
176,1747666199930,-1.338654,-1.7882075,-1.3413386,-2.488665,-0.38240165,1.0867293
177,1747666199940,-1.2927208317460317,-1.7245336857142857,-1.2579989126984128,-2.488665,-0.38240165,1.0867293
178,1747666199950,-1.2571388,-1.6752089,-1.19344,-2.533182418604651,-0.5533633943410852,1.4492280875968993
179,1747666199960,-1.2571388,-1.6752089,-1.19344,-2.561358,-0.66156703,1.6786577
180,1747666199970,-1.2571388,-1.6752089,-1.19344,-2.561358,-0.66156703,1.6786577
181,1747666199980,-1.2571388,-1.6752089,-1.19344,-2.561358,-0.66156703,1.6786577
182,1747666199990,-1.2571388,-1.6752089,-1.19344,-2.561358,-0.66156703,1.6786577
183,1747666200000,0.1571374126153846,-0.7382585904273503,-0.4535835114529915,-2.9971397128205126,-1.3413713352136754,3.7218975743589744
184,1747666200010,0.3501472366336634,-0.5502137976237624,-0.2302643803960396,-3.3964107,-1.1038336,3.8447860000000005
185,1747666200020,0.35241866,-0.5464442,-0.22453266,-3.4591294536,-1.0762615056,3.852057608
186,1747666200030,0.339059188,-0.5118156530434783,-0.113280768,-3.5697104713043477,-1.045121360869565,3.899158120869565
187,1747666200040,0.33623660852173914,-0.5012723594782609,-0.06738103234782608,-3.587383107826087,-1.056780943478261,3.9409678991304347
188,1747666200050,0.32881302182608696,-0.4710262113043478,0.1276737703478261,-3.5409255695652173,-1.1413406460869566,4.096488846086957
189,1747666200060,0.35412705000000005,-0.46175629999999995,0.25870067,-3.4587189999999994,-1.2394456,4.2632284
190,1747666200070,0.35412705000000005,-0.46175629999999995,0.25870067,-3.458719,-1.2394456,4.2632284
191,1747666200080,0.35412705,-0.4617563,0.25870067,-3.4587190000000003,-1.2394456,4.2632284
192,1747666200090,0.35412705,-0.4617563,0.25870067,-3.458719,-1.2394456,4.2632284
193,1747666200100,0.5596298728828829,-0.3820463385585586,0.40423135594594595,-3.171458382882883,-1.0512440621621622,4.868315182882883
194,1747666200110,0.6016333679245283,-0.30771014188679247,0.44193700943396225,-3.2776725018867925,-0.80582347,5.015146079245283
195,1747666200120,0.6290038983999999,-0.26296290432,0.4773174088,-3.39614696,-0.6972220396000001,5.0823448944
196,1747666200130,0.6386658516393443,-0.23852795901639345,0.5196578950819672,-3.4632354786885244,-0.6903978913114753,5.124838639344262
197,1747666200140,0.6396740699999999,-0.22599702,0.55840296,-3.499647,-0.71959925,5.156924200000001
198,1747666200150,0.68604493,-0.27139166,0.6218578,-3.403575233695652,-1.2525260614130433,5.320065241304348
199,1747666200160,0.7422652603571428,-0.315627035,0.5835060142857144,-3.3501431964285713,-1.5256632187499999,5.424450727678571
200,1747666200170,0.7490117,-0.32093528,0.5789038,-3.3432655,-1.5607607,5.4379225
201,1747666200180,0.7490117000000001,-0.32093527999999993,0.5789038,-3.3432655,-1.5607607,5.4379225
202,1747666200190,0.7490117,-0.32093528,0.5789038,-3.3432655,-1.5607607,5.4379225
203,1747666200200,0.9546353908208955,-0.16266233276119405,0.6869373736567165,-3.4939076589552234,-2.111920661940298,5.996426663432836
204,1747666200210,1.5650797216216217,0.0744440508108108,1.1592522027027028,-3.5875675837837835,-2.5171170072072075,6.766477303603604
205,1747666200220,1.770123579032258,0.10121289725806452,1.293097993548387,-3.4602363741935482,-2.3516341483870966,6.842321296774194
206,1747666200230,1.9165816,0.1313028,1.3611072,-3.2907312,-2.1600194,6.831917
207,1747666200240,2.133556490909091,0.16769355247933887,1.3628681107438017,-3.144325414876033,-1.9691871685950413,6.753665512396695
208,1747666200250,2.1872409999999998,0.17669745,1.3633038,-3.1135802,-1.9291124,6.7372327
209,1747666200260,2.187241,0.17669745,1.3633038,-3.1135802,-1.9291124,6.7372327
210,1747666200270,2.187241,0.17669745,1.3633038,-3.1135802,-1.9291124,6.7372327
211,1747666200280,2.1872410000000007,0.17669745,1.3633038,-3.1135802,-1.9291124,6.7372327
212,1747666200290,2.187241,0.17669745,1.3633038,-3.1135802,-1.9291124,6.7372327
213,1747666200300,2.2150655471544716,0.366976793495935,1.2843800178861788,-3.1314691170731708,-1.6821142617886178,6.4296048845528455
214,1747666200310,1.9176397924369748,1.1298435823529411,1.604815924369748,-4.28749892184874,-1.0530957075630254,4.349406566386555
215,1747666200320,2.082316354471545,1.279721150406504,1.847487643902439,-4.0310252,-0.9837016048780488,4.147134392682927
216,1747666200330,2.1755576632,1.4071287104,1.9986434495999998,-3.68933284,-0.9415388264,3.8408274319999998
217,1747666200340,2.2126231,1.5229172,2.0937672,-3.3793066,-0.91690874,3.530801
218,1747666200350,2.2126231,1.5229172,2.0937672,-3.3793066,-0.91690874,3.530801
219,1747666200360,2.2126231,1.5229172,2.0937672,-3.3793066,-0.91690874,3.530801
220,1747666200370,2.2126231,1.5229172,2.0937672,-3.3793066,-0.91690874,3.530801
221,1747666200380,2.2126231,1.5229172,2.0937672,-3.3793066,-0.91690874,3.530801
222,1747666200390,2.2126231,1.5229172,2.0937672,-3.3793066,-0.91690874,3.530801
223,1747666200400,2.1776381228813557,1.5655672322033898,2.113070469491525,-3.2617305516949155,-0.9283495181355932,3.410232793220339
224,1747666200410,1.8000422434426229,2.6585274393442626,2.2639810622950822,-0.9717914591803279,0.543299558032787,0.9054324744262295
225,1747666200420,1.7342459086614173,2.874054511023622,2.2675322007874015,-0.31113723686614175,1.010645311023622,0.17729522212598425
226,1747666200430,1.7693551147540982,2.878103139344262,2.3399769524590166,0.08451470755737704,0.9988747762295082,-0.27626130778688524
227,1747666200440,1.7960173,2.8579104,2.4105535,0.5255375467500001,0.9272934521666667,-0.7252141508333333
228,1747666200450,1.7981528,2.8521903062500003,2.408745953125,0.95233893,0.86437434,-1.1441506
229,1747666200460,1.8643532999999999,2.6748674,2.352712,0.95233893,0.8643743400000001,-1.1441506
230,1747666200470,1.8643533,2.6748674,2.352712,0.95233893,0.86437434,-1.1441506
231,1747666200480,1.8643533,2.6748674,2.352712,0.95233893,0.86437434,-1.1441506
232,1747666200490,1.8643533,2.6748674,2.352712,0.95233893,0.86437434,-1.1441506
233,1747666200500,1.8643533,2.6748674,2.352712,0.95233893,0.86437434,-1.1441506
234,1747666200510,1.8606924776785714,2.1568798446428574,2.2324570919642857,1.9411933673214286,1.164085527857143,-2.1984058526785715
235,1747666200520,1.9375885254098362,1.336313404918033,2.1703831524590167,3.32327712295082,1.484001944262295,-3.4159184
236,1747666200530,1.999790694117647,1.196196305882353,2.087866647058824,3.7469497588235297,1.3654122201680672,-3.6993690588235295
237,1747666200540,2.0033159073770492,1.041278256147541,1.9354080360655737,3.9729273950819675,1.3349208032786886,-4.000616596721311
238,1747666200550,1.9751825168000001,0.89166612592,1.785360744,4.069970496000001,1.3865565760000003,-4.2701876175999995
239,1747666200560,1.9453802,0.82906246,1.7193834,4.043317,1.4837917,-4.381736299999999
240,1747666200570,1.9453802,0.82906246,1.7193834,4.043317,1.4837917,-4.381736300000001
241,1747666200580,1.9453802000000002,0.82906246,1.7193834,4.043317,1.4837916999999998,-4.3817363
242,1747666200590,1.9453802,0.82906246,1.7193834,4.043317,1.4837917,-4.3817363
243,1747666200600,1.9453802,0.82906246,1.7193834,4.043317,1.4837917,-4.3817363
244,1747666200610,1.81410623697479,0.4365794442016806,1.437484888235294,4.798310484033613,1.244168243697479,-4.587413134453781
245,1747666200620,1.7025435,0.03441207,1.0272369,5.7311378,0.7086037000000001,-4.845383
246,1747666200630,1.6771813081967215,-0.007169681995081967,0.7623568442622951,5.487507473770491,0.41588906467213116,-5.081417447540984
247,1747666200640,1.5941884159292037,-0.038586963274336285,0.5972275522123893,5.123732221238939,0.2777328515044248,-5.2927634601769915
248,1747666200650,1.388955314516129,-0.11691720145161291,0.4234786987903226,4.218014778225807,0.49410132064516127,-5.563957616935484
249,1747666200660,1.2437943570247934,-0.1796987474380165,0.38229651388429753,3.6161404388429754,0.7926153231404958,-5.668066995041323
250,1747666200670,1.1580516,-0.21037734,0.40196228,3.3964107,0.9450085,-5.675549
251,1747666200680,1.1580516,-0.21037734,0.40196228,3.3964107,0.9450085,-5.675549
252,1747666200690,1.1580516,-0.21037734,0.40196228,3.3964107000000006,0.9450085,-5.675549
253,1747666200700,1.1580516,-0.21037734,0.40196228,3.3964107000000006,0.9450085,-5.675549
254,1747666200710,1.1133245238235294,-0.2214173426470588,0.4128012911764706,3.3687600647058824,0.9305274035294118,-5.635088147058823
255,1747666200720,0.6079150806451613,-0.3527886664516129,0.34173526612903227,3.1917610330645165,0.4425078322580645,-4.998365442741936
256,1747666200730,0.6004126565217391,-0.35201542869565217,0.28543028,3.0965290617391306,0.360033345826087,-4.910809489565218
257,1747666200740,0.5833345211382114,-0.3564981964227642,0.28252899934959347,2.881401639837398,0.19596854837398375,-4.804862400813008
258,1747666200750,0.5513618267716535,-0.37816382653543307,0.2861657675590551,2.81522294488189,0.12129282721259843,-4.771819649606299
259,1747666200760,0.5079534644067797,-0.41134609,0.2757702142372881,2.7532111033898308,0.058694831898305086,-4.714461381355932
260,1747666200770,0.4807928,-0.4339338,0.2626056,2.7140744,0.031154128,-4.665178
261,1747666200780,0.4807928,-0.4339338,0.2626056,2.7140744,0.031154128,-4.665178
262,1747666200790,0.4807928000000001,-0.4339338,0.2626056,2.7140744,0.031154128,-4.665178
263,1747666200800,0.4807928,-0.4339338,0.2626056,2.7140744,0.031154128,-4.665178
264,1747666200810,0.4807928,-0.4339338,0.2626056,2.7140744,0.031154128,-4.665178
265,1747666200820,0.37527807085937503,-0.459414891171875,0.1476412883984375,2.7068823414062497,-0.17056503503125,-4.1454413796875
266,1747666200830,0.27505252,-0.5125202,-0.043930303,2.6945267,-0.20708331,-3.4837644
267,1747666200840,0.27505252,-0.5125202,-0.043930303,2.6945267,-0.20708331,-3.4837644
268,1747666200850,0.27505252,-0.5125202,-0.043930303,2.6945267,-0.20708331,-3.4837644
269,1747666200860,0.17727863677966102,-0.7207982444067796,-0.2813918081525424,2.5913214499999997,0.4832772447457627,-3.383841341525424
270,1747666200870,-0.05198419,-1.1246158,-0.73339206,2.4165828,1.604743,-3.2785137
271,1747666200880,-0.05198419,-1.1246158,-0.73339206,2.4165828,1.604743,-3.2785137
272,1747666200890,-0.05198419,-1.1246158,-0.73339206,2.4165828,1.604743,-3.2785137
273,1747666200900,-0.05198419,-1.1246158,-0.73339206,2.4165828,1.604743,-3.2785137
274,1747666200910,-0.05198419,-1.1246158,-0.73339206,2.4165828,1.604743,-3.2785137
275,1747666200920,-0.672629632,-1.5535591439999998,-1.3549277584,1.6703254392000002,1.1314788108799998,-2.5254733384000003
276,1747666200930,-1.1208261826771655,-1.835810218897638,-1.7479475543307088,0.4916407033070866,1.418337701496063,-1.678782748031496
277,1747666200940,-1.378431083478261,-1.981965647826087,-1.842364776521739,-0.13019928539130435,1.6872735452173913,-1.251933796521739
278,1747666200950,-1.5089331564516129,-2.0231795008064517,-1.8558782274193548,-0.42969935185483865,1.7544789185483871,-0.9782711338709678
279,1747666200960,-1.6772122458333336,-2.0432369583333334,-1.8140470083333333,-0.7646149230833333,1.5712166983333333,-0.40404660724999997
280,1747666200970,-1.8260625421487604,-2.0313570066115703,-1.7244983628099173,-1.0726894917355374,0.9878499396694214,0.5261619587603306
281,1747666200980,-1.786743,-1.9927274,-1.6090695,-1.1661417,0.42821655,1.1673635
282,1747666200990,-1.786743,-1.9927274,-1.6090695,-1.1661417,0.42821655,1.1673635
283,1747666201000,-1.786743,-1.9927274,-1.6090695,-1.1661417,0.42821655,1.1673635
284,1747666201010,-1.786743,-1.9927274,-1.6090695,-1.1661417,0.42821655,1.1673635
285,1747666201020,-1.09231434112,-1.6309252112,-1.1611970104,-1.3860141648000002,-1.1880303072000002,3.4679454591999996
286,1747666201030,-0.6223681890909091,-1.4396271363636364,-0.8881908727272727,-1.6721350685950414,-1.8269363743801654,4.6250220809917355
287,1747666201040,-0.069653936,-1.2170891099999999,-0.585883845,-2.1198653233333338,-1.8237178333333333,5.089057356666667
288,1747666201050,-0.02831064,-1.197833,-0.5618198,-2.130698,-1.8209893,5.0970597
289,1747666201060,0.058224486206896554,-1.1169406482758621,-0.4509841239655172,-2.224850253448276,-1.7099645163793105,5.152838137068965
290,1747666201070,0.2248060104,-0.9740031720000001,-0.22395669799999998,-2.3488306079999997,-1.4442027104,5.2951607592
291,1747666201080,0.26529023,-0.9442575,-0.1696198,-2.3677137,-1.3359623,5.3548446
292,1747666201090,0.26529023,-0.9442575,-0.1696198,-2.3677137,-1.3359623,5.3548446
293,1747666201100,0.26529023,-0.9442575,-0.1696198,-2.3677137,-1.3359623,5.3548446
294,1747666201110,0.26529023,-0.9442575,-0.1696198,-2.3677137,-1.3359623,5.3548446
295,1747666201120,0.47610687712000005,-0.8188608857599999,-0.02628790209599999,-2.6631037096,-0.56942903656,5.686163340799999
296,1747666201130,0.8700109380645161,-0.6454527162903225,0.20155192056451615,-3.4618817427419355,0.4727308787096774,5.888657124193548
297,1747666201140,0.9009485981512606,-0.6187035737815126,0.2885597588235294,-3.6686102747899163,0.4694371062184874,5.759221978991596
298,1747666201150,0.8963896023622048,-0.6009919464566928,0.3641622433070866,-3.7711357157480316,0.37989565574803147,5.662946922047245
299,1747666201160,0.8482199386554622,-0.567082424369748,0.44657349193277307,-3.6996104705882353,0.2106407131092437,5.6518791487394955
300,1747666201170,0.8049008,-0.5400987,0.49812084,-3.631594,0.11362094,5.6639423
301,1747666201180,0.8049008,-0.5400987,0.49812084,-3.631594,0.11362094,5.6639423
302,1747666201190,0.8049008,-0.5400987,0.49812084000000006,-3.631594,0.11362094,5.663942300000001
303,1747666201200,0.8049008,-0.5400987,0.49812084,-3.631594,0.11362094,5.6639423
304,1747666201210,0.8049008,-0.5400987,0.49812084,-3.631594,0.11362094,5.6639423
305,1747666201220,0.8890985338842975,-0.5277223765289256,0.5089481113223141,-3.937743449586777,0.12087054550413225,5.7002357793388425
306,1747666201230,1.2567807048387096,-0.48050935483870966,0.7091477072580645,-5.5130587,-0.012828169999999998,5.9229493
307,1747666201240,1.4487750924369747,-0.4432058906722689,0.9868506122689076,-5.712801342016807,-0.4168000306722689,6.056595423529412
308,1747666201250,1.7508667,-0.38487828,1.3332847,-5.8093286,-1.2113458,6.208834
309,1747666201260,1.9138766333333332,-0.3736313041666667,1.436500575,-5.60444444,-1.2934460799999998,6.09961138
310,1747666201270,2.0303123,-0.36559775,1.5102262,-5.467855,-1.3481796,6.0267963
311,1747666201280,2.0624532363636363,-0.3580763518181818,1.525176220661157,-5.127824937190083,-1.4023194289256198,5.785812654545454
312,1747666201290,2.4083569999999996,-0.26529023,1.6422611,-4.6999974,-1.4165965,5.439144
313,1747666201300,2.408357,-0.26529023,1.6422611,-4.6999974,-1.4165965,5.439144
314,1747666201310,2.408357,-0.26529023,1.6422611,-4.6999974,-1.4165965,5.439144
315,1747666201320,2.408357,-0.26529023,1.6422611,-4.6999974,-1.4165965,5.439144
316,1747666201330,2.2609832655462183,0.2884879736554622,1.9073401689075629,-4.555894610924369,-1.050190281764706,4.197932860504202
317,1747666201340,2.278314082051282,0.31681134273504274,2.0150618085470087,-4.221355696581196,-1.2669136179487177,3.929999088888889
318,1747666201350,2.220555,0.448211125,2.0710698499999998,-3.889602126984127,-1.475355938095238,3.7614463841269843
319,1747666201360,2.165032,0.5422952,2.0876658,-3.707952,-1.5900822999999997,3.690237
320,1747666201370,2.165032,0.5422952,2.0876658,-3.707952,-1.5900823,3.690237
321,1747666201380,2.165032,0.5422952,2.0876658,-3.707952,-1.5900823,3.690237
322,1747666201390,2.0840694876033057,0.9728848033057851,2.2642945190082644,-3.707952,-1.5900822999999997,3.690237
323,1747666201400,2.0561824,1.121199,2.3251333,-3.707952,-1.5900823,3.690237
324,1747666201410,2.0561824,1.121199,2.3251333,-3.707952,-1.5900823,3.690237
325,1747666201420,2.0561824,1.121199,2.3251333,-3.707952,-1.5900823,3.690237
326,1747666201430,1.9434338788617886,1.6460530512195122,2.3697759317073173,-2.516730030081301,-0.752317837398374,2.8923277764227646
327,1747666201440,1.9612520790322578,2.5767544846774197,2.3967562387096772,0.1702540548387097,-0.13336567806451616,1.3814027741935484
328,1747666201450,2.125475081451613,2.6758515362903226,2.323578495967742,0.7820060406451613,-0.6949380490322581,0.9532157596774193
329,1747666201460,2.2500014384615383,2.7830035153846153,2.2475982846153846,1.0080686030769233,-0.9174256384615385,0.5805099215384616
330,1747666201470,2.2892764404761903,2.821348188095238,2.235490752380952,1.1029462515873016,-0.9965490968253968,0.3691177583333333
331,1747666201480,2.4627894,2.7606825650793656,2.2227534777777778,1.4094115793650794,-0.6663182396825397,-0.7850491125396825
332,1747666201490,2.4796216,2.7466202,2.2155518999999995,1.4330899,-0.6065892,-0.9040805700000001
333,1747666201500,2.4796216,2.7466202,2.2155519,1.4330899,-0.6065892,-0.90408057
334,1747666201510,2.4796216,2.7466201999999997,2.2155519,1.4330899,-0.6065892,-0.90408057
335,1747666201520,2.4796216,2.7466202,2.2155519,1.4330899,-0.6065892,-0.90408057
336,1747666201530,2.203929420967742,2.182836237903226,2.191000346774193,1.8403252161290322,0.7977259459677418,-2.3759405946774192
337,1747666201540,1.9920071479674797,1.5840764300813008,2.228573936585366,2.5016719902439024,1.6885358195121951,-3.633515756097561
338,1747666201550,2.1161023096774194,1.290007864516129,2.313080012903226,2.984667916129032,1.4845798870967741,-3.823090206451613
339,1747666201560,2.287923554471545,1.1119764528455285,2.368712364227642,3.629508105691057,1.335162674796748,-4.103524552845529
340,1747666201570,2.3468544,1.0587204,2.3863916,4.0775256,1.2449434,-4.3261476
341,1747666201580,2.3468544,1.0587204,2.3863916,4.0775256,1.2449434,-4.3261476
342,1747666201590,2.3468544,1.0587204,2.3863916,4.0775256,1.2449434,-4.3261476
343,1747666201600,2.3468544,1.0587204,2.3863916,4.0775256,1.2449434,-4.3261476
344,1747666201610,2.3468544,1.0587204,2.3863916,4.0775256,1.2449434,-4.3261476
345,1747666201620,2.3468544,1.0587204,2.3863916,4.0775256,1.2449434,-4.3261476
346,1747666201630,2.3778519485981304,0.8681162332710279,2.207917368224299,4.581432313084113,1.0382026004672897,-4.722564913084112
347,1747666201640,2.322554123157895,0.17543605589473685,1.1421596694736842,5.4529109021052635,0.39399521810526317,-6.1145747768421055
348,1747666201650,2.2498709661157026,0.12877146107438017,0.9253339775206612,5.145085640495868,0.5557308586776859,-6.259808791735538
349,1747666201660,2.195831794545455,0.060424137945454544,0.7764658952727272,4.749888210909091,0.8474699890909091,-6.416917058181818
350,1747666201670,2.1642997,-0.004148973,0.7043492,4.4617596,1.0732902,-6.549086
351,1747666201680,1.8995059102564102,-0.15471768851282053,0.7872014222222222,4.291683172649572,0.9383307418803418,-6.705629482905983
352,1747666201690,1.5993071,-0.31995904,0.8812907,4.083023,0.7495316,-6.9021664
353,1747666201700,1.5993071,-0.31995904,0.8812907,4.083023,0.7495316,-6.9021664
354,1747666201710,1.5993071,-0.31995904,0.8812907,4.083023,0.7495316,-6.9021664
355,1747666201720,1.5993071,-0.31995904,0.8812907,4.083023,0.7495316,-6.9021664
356,1747666201730,1.5677939512195123,-0.33712241593495934,0.8563948784552845,4.093998730894309,0.6902776754959349,-6.881238069105691
357,1747666201740,0.9540433725806452,-0.6021758467741936,0.24062470129032257,3.9082862782258063,-0.23759701814516127,-6.411173712096774
358,1747666201750,0.8863396637500001,-0.58621789875,0.22591502796875,3.4392429539062497,-0.1705507112109375,-6.30067892109375
359,1747666201760,0.8854040075609756,-0.5733440402439024,0.3599249048780488,3.0357569235772353,-0.15087875016260163,-6.220699182113822
360,1747666201770,0.8947139,-0.56767714,0.4183141,2.9926288,-0.17592919,-6.220441
361,1747666201780,0.8758502221238937,-0.5786100617699115,0.4463655792920354,3.0117332079646015,-0.2069968239823009,-6.213202484070797
362,1747666201790,0.8188121,-0.6211257,0.47786412,3.0879238,-0.3145956,-6.174626000000001
363,1747666201800,0.8188121,-0.6211257,0.47786412,3.0879238,-0.3145956,-6.174626000000001
364,1747666201810,0.8188121,-0.6211257,0.47786412,3.0879238,-0.3145956,-6.174625999999999
365,1747666201820,0.8188121,-0.6211257,0.47786412,3.0879238,-0.3145956,-6.174625999999999
366,1747666201830,0.8188121,-0.6211257,0.47786412,3.0879238,-0.3145956,-6.174626000000001
367,1747666201840,0.51113008216,-0.8028487779999999,0.2828486876,2.70340128,0.19290635624000002,-5.3103884104
368,1747666201850,0.3242507067692308,-0.9816696,0.12597483784615385,2.5660334307692305,0.4848390461538461,-4.523974192307692
369,1747666201860,0.32910435808,-1.1243952151999999,-0.04424074816,2.8727281632,0.30557435512000003,-4.0200602320000005
370,1747666201870,0.32557237,-1.1949043,-0.14863087,2.9492574,0.21685717,-3.948633
371,1747666201880,0.32125018548387096,-1.3447396822580646,-0.35921685080645155,2.9492574,0.21685717,-3.948633
372,1747666201890,0.32117933,-1.347196,-0.36266908,2.950419533333333,0.21405612923577236,-3.9485634715447158
373,1747666201900,0.32117933,-1.347196,-0.36266908,3.0207286,0.044593163,-3.944357
374,1747666201910,0.32117933,-1.347196,-0.36266908,3.0207286,0.044593163,-3.944357
375,1747666201920,0.32117933,-1.347196,-0.36266908,3.0207286,0.044593163,-3.944357
376,1747666201930,0.32117933,-1.347196,-0.36266908,3.0207286,0.044593163,-3.944357
377,1747666201940,-0.4966671316782609,-1.96723524,-1.0642657413913044,0.6796433595652175,1.1847067750521738,-2.620107326956522
378,1747666201950,-1.238513952892562,-2.475900417355372,-1.5315097371900825,-1.7630530157024795,2.449332367768595,-0.9101791396694215
379,1747666201960,-1.2525018,-2.511349,-1.3435352,-2.012801,2.4459045,-0.204029
380,1747666201970,-1.267854584375,-2.4758805421875003,-1.2311238703125,-1.833010915625,2.11808452890625,0.1182835565625
381,1747666201980,-1.3232784,-2.4017673,-1.1702545,-1.5424347,1.6450601,0.47891834
382,1747666201990,-1.3232784,-2.4017673,-1.1702545,-1.5424347,1.6450601,0.47891834
383,1747666202000,-1.3232784,-2.4017673,-1.1702545,-1.5424347,1.6450601,0.47891834
384,1747666202010,-1.3232784,-2.4017673,-1.1702545,-1.5424347,1.6450601,0.47891834
385,1747666202020,-1.3232784,-2.4017673,-1.1702545,-1.5424347,1.6450601,0.47891834
386,1747666202030,-1.3232784,-2.4017673,-1.1702545,-1.5424347,1.6450601,0.47891834
387,1747666202040,-1.1283833053781511,-2.1842856579831933,-1.102037431092437,-1.635404282352941,1.064845918487395,1.3657046988235295
388,1747666202050,-0.1656219,-1.3007825031746032,-0.7044383444444445,-2.542595684126984,-0.9847147625396826,4.940222266666667
389,1747666202060,0.0432880497368421,-1.1922582245614035,-0.5503234103508772,-2.8644971263157895,-1.0884332333333333,5.203628692982457
390,1747666202070,0.19645427943548388,-1.110700670967742,-0.4279819459677419,-2.9956239870967742,-1.1285193314516129,5.281590060483871
391,1747666202080,0.4156452451612903,-0.9785279161290322,-0.1964424773548387,-3.135985170967742,-1.1304750967741934,5.3655249354838706
392,1747666202090,0.6138552571428572,-0.833953905882353,0.1011442970420168,-3.158481439495798,-1.0859078957983193,5.437809487394958
393,1747666202100,0.7116863102362204,-0.7684728321259843,0.26876467070866145,-3.021902372440945,-1.0308085803149605,5.538113921259843
394,1747666202110,0.73436826,-0.7573096,0.30189879999999997,-2.9791899,-1.0146471,5.566204
395,1747666202120,0.73436826,-0.7573096,0.30189879999999997,-2.9791898999999997,-1.0146471,5.566204
396,1747666202130,0.73436826,-0.7573096,0.30189879999999997,-2.9791899,-1.0146471,5.566204
397,1747666202140,0.7543767465517242,-0.759508225862069,0.28895745698275865,-2.8643629905172414,-0.9788588407758619,5.557193750862069
398,1747666202150,0.7063255024390244,-0.7600002258536586,0.17748318219512194,-2.6005775260162602,-1.0214163068292683,5.619741651219512
399,1747666202160,0.560071394262295,-0.7406757554098361,0.14260344016393442,-2.788559893442623,-1.2228820901639343,5.884935580327868
400,1747666202170,0.5547150111111111,-0.7487133888888888,0.15768809666666667,-2.951700952380952,-1.3948380634920634,6.256578755555555
401,1747666202180,0.7198088344262294,-0.8236611737704918,0.16185796885245904,-3.2318928360655734,-1.6474884918032786,6.936910517213114
402,1747666202190,1.0651710097560974,-0.8621589739837398,0.1812472280487805,-3.5498770195121954,-1.6792188959349592,7.436653564227642
403,1747666202200,1.563453625,-0.84363723125,0.2643521375,-3.942361928125,-1.5550911828125,7.7906125453125
404,1747666202210,1.7010789999999998,-0.8151512,0.3143457499999999,-4.079358,-1.4740179,7.8361793
405,1747666202220,1.701079,-0.8151512,0.31434575,-4.079358,-1.4740179,7.8361793
406,1747666202230,1.701079,-0.8151512,0.31434575,-4.079358,-1.4740179,7.8361793
407,1747666202240,1.701079,-0.8151512,0.31434575,-4.079358,-1.4740179,7.8361793
408,1747666202250,1.8687991224,-0.695002794,0.5801729004,-4.02633492,-1.4040958088,7.603361580800001
409,1747666202260,2.2196475695652174,-0.4771849686956522,0.9378483830434783,-3.5872662965217392,-1.7570290530434782,7.563574182608695
410,1747666202270,2.444579687096774,-0.3804931112903226,0.8738667270967742,-3.54602847983871,-1.9159444008064517,7.763234959677419
411,1747666202280,2.7802187666666667,-0.24763675,0.8415093866666666,-3.7173135875,-1.8405675425,7.8478619825
412,1747666202290,2.9691074166666667,-0.16476188630952382,0.8345072373809524,-3.921018007936508,-1.6084469857142856,7.7680919698412705
413,1747666202300,3.4038468400000004,0.11297897900000001,0.889920614,-4.9457263912,-0.31939455334399997,7.159741374399999
414,1747666202310,3.4019140000000005,0.13520771,0.9096014,-5.194798,-0.022602014,6.9937963
415,1747666202320,3.401914,0.13520771,0.9096014,-5.194798,-0.022602014,6.9937963
416,1747666202330,3.401914,0.13520771,0.9096014,-5.194798,-0.022602014,6.9937963
417,1747666202340,3.4019140000000005,0.13520771,0.9096014,-5.194798,-0.022602014,6.9937963
418,1747666202350,2.989490954471545,0.5308622017886179,1.537786850406504,-4.375642592682927,-0.8488742550243902,5.657565571544715
419,1747666202360,2.766044299159664,0.835284856302521,1.7367113857142857,-3.893506144537815,-1.0335737117647057,4.539924721008404
420,1747666202370,2.729056017073171,0.8540772837398374,1.6655399487804878,-4.108188,-0.5318103141463414,4.246794807317073
421,1747666202380,2.5267187549180328,0.8972184437704918,1.6867696639344263,-4.5004797622950825,0.442812232295082,3.83822166147541
422,1747666202390,2.1711851967213116,1.1449046200000002,2.168412578688524,-4.257079901639345,1.198547644262295,3.4761838606557376
423,1747666202400,2.0452291362903225,1.2850224629032259,2.4012555653225807,-3.947430919354839,1.306049564516129,3.3372456161290325
424,1747666202410,2.0049303,1.4238299,2.56675,-3.472158,1.0482447,3.264464
425,1747666202420,2.0049303,1.4238299,2.56675,-3.472158,1.0482447,3.264464
426,1747666202430,2.0049303,1.4238299,2.56675,-3.472158,1.0482447,3.264464
427,1747666202440,2.0049303,1.4238299,2.56675,-3.472158,1.0482447,3.264464
428,1747666202450,2.2391829049586773,1.6821050892561984,2.4854850330578513,-2.9438201842975205,0.7809735186776858,2.510393721487603
429,1747666202460,2.6206868,2.1115835,2.3946898,-2.2162192,0.5540548,1.183246
430,1747666202470,2.625955292063492,2.2069515849206347,2.655211284126984,-2.0709883055555554,0.8887847103174603,0.5066933173015874
431,1747666202480,2.386873773553719,2.1910612033057855,3.1910303983471078,-0.8805496074380166,1.217787612396694,-0.8233756824793388
432,1747666202490,2.2166678655737706,2.055062095081967,3.353606642622951,0.2250287480327869,1.2974076196721311,-1.4020659278688525
433,1747666202500,2.1152734704,1.7748644327999998,3.1330410576,1.2431400816799998,1.3982900688,-1.8221377472000002
434,1747666202510,2.1131283950413224,1.6250682867768593,2.9783798991735537,2.041718650413223,1.4566056561983471,-2.1721509454545456
435,1747666202520,2.135501,1.5631866,2.907454,2.2681427,1.4624114,-2.2779164
436,1747666202530,2.135501,1.5631866,2.907454,2.2681427,1.4624114,-2.2779164
437,1747666202540,2.135501,1.5631865999999999,2.907454,2.2681427,1.4624114,-2.2779164
438,1747666202550,2.135501,1.5631866,2.907454,2.2681427,1.4624114,-2.2779164
439,1747666202560,2.387430091525424,0.8198875805084745,2.4307128050847457,3.9671662330508473,1.066601745762712,-3.909558061016949
440,1747666202570,2.5035853496062987,0.6099183062992125,2.3931716582677165,4.278706905511811,0.9631949650393701,-4.292876842519686
441,1747666202580,2.6209751545454543,0.4894618746280992,2.411471251239669,4.547058636363637,1.0883952727272728,-4.620473454545454
442,1747666202590,2.7716613809917354,0.32050162917355374,2.4304672413223143,4.816510933884297,1.262825090909091,-4.923447514049586
443,1747666202600,2.8280649375,0.19272705728125,2.40065954140625,5.04775128125,1.445937153125,-5.126266446875
444,1747666202610,2.8576665,0.114218794,2.3707721,5.20335,1.5754215,-5.2430563
445,1747666202620,2.8576665,0.114218794,2.3707721,5.20335,1.5754215,-5.2430563
446,1747666202630,2.8576665,0.114218794,2.3707721,5.20335,1.5754215,-5.2430563
447,1747666202640,2.8576665,0.114218794,2.3707721,5.20335,1.5754215,-5.2430563
448,1747666202650,2.8576665,0.114218794,2.3707721,5.20335,1.5754215,-5.2430563
449,1747666202660,2.6478030286885246,-0.5533618160491803,1.550619713114754,6.393691229508197,1.1699071237704917,-6.549421755737705
450,1747666202670,2.527908365,-0.6721743333333332,1.2021730966666666,6.2436130375,1.0739265808333334,-6.737904558333333
451,1747666202680,2.5104278580645163,-0.7245744767741935,1.0595233161290323,5.924092419354839,1.2371401225806453,-6.788466487096774
452,1747666202690,2.500566976785714,-0.7995140853571429,1.0083138535714287,5.684799232142858,1.4126259232142857,-6.906627898214286
453,1747666202700,2.4187979414634144,-0.8766654804878049,1.0226356829268293,5.620029723577235,1.463225893495935,-7.012256178861789
454,1747666202710,2.1179996500000002,-1.0129989499999998,1.017750284516129,5.770509096774194,1.2598012322580645,-7.1767403709677415
455,1747666202720,1.9666133,-1.0628693,0.94157284,6.119037,0.7861836,-7.344433
456,1747666202730,1.9666132999999997,-1.0628693,0.94157284,6.119037,0.7861836,-7.344433
457,1747666202740,1.9666133,-1.0628693,0.94157284,6.119037,0.7861836,-7.344433
458,1747666202750,1.9666133,-1.0628693,0.94157284,6.119037,0.7861836,-7.344433
459,1747666202760,1.3486847663636363,-1.1453939718181818,0.3186588855590909,5.584396589090909,-0.3856003723636363,-7.302960612727273
460,1747666202770,0.9040959072868218,-1.1433060023255814,-0.029014434019379847,4.589501534108527,-0.8682194750387597,-7.039270097674419
461,1747666202780,0.7685601148780488,-1.0608811512195122,-0.005714510585365853,3.734144746341463,-0.5217832270731708,-6.679230334146341
462,1747666202790,0.69327417,-1.015287993548387,0.009346999379032259,3.17161235,-0.18829921000000002,-6.424622575
463,1747666202800,0.6404516511627907,-1.0092618255813952,0.012668274209302326,2.7965742248062018,0.1234847553488372,-6.231772471317829
464,1747666202810,0.6034038831932773,-1.0106369546218488,0.018897004689075632,2.5910748033613444,0.2958179285714285,-6.109248002521008
465,1747666202820,0.5315567,-1.0199152,0.051252022,2.3493876,0.5308419,-5.8911843
466,1747666202830,0.5315567,-1.0199152,0.051252022,2.3493876,0.5308419,-5.8911843
467,1747666202840,0.5315567,-1.0199152,0.051252022,2.3493876,0.5308419,-5.8911843
468,1747666202850,0.5315567,-1.0199152,0.051252022,2.3493876,0.5308419,-5.8911843
469,1747666202860,0.38092786822033897,-1.1321753406779662,-0.02990528529661017,2.3723416796610173,0.7091162005932203,-5.186416741525424
470,1747666202870,0.11587995761290322,-1.2655076451612903,-0.21147166387096772,2.500025078225806,0.6959134706451613,-4.30105798467742
471,1747666202880,-0.034351544592,-1.2771905592000001,-0.35109684607999997,2.576399888,0.40612766336,-3.9598681408000003
472,1747666202890,-0.1621800454918033,-1.3516269909836067,-0.5028399144262296,2.445934445901639,0.2735574786885246,-3.7189276426229507
473,1747666202900,-0.3438685983471074,-1.6294512561983472,-0.7517608685950413,2.0898811090909093,0.4322149390909091,-3.3500405181818182
474,1747666202910,-0.3814614823809524,-1.7402095380952383,-0.8352568904761905,1.8283536444444446,0.8514782927777778,-3.089450933333333
475,1747666202920,-0.45313295460317454,-1.8822779587301588,-0.9822490936507937,1.3635045396825396,1.6543394404761904,-2.66630076031746
476,1747666202930,-0.5222825,-1.9422076,-1.0762925,1.2040154,1.8979583,-2.5558603
477,1747666202940,-0.5222825,-1.9422076,-1.0762925,1.2040154,1.8979583,-2.5558603
478,1747666202950,-0.5222825,-1.9422076,-1.0762925,1.2040154,1.8979583,-2.5558603
479,1747666202960,-0.5222825,-1.9422076,-1.0762925,1.2040154,1.8979583,-2.5558603
480,1747666202970,-1.331533282352941,-2.130088476470588,-1.3656439058823528,-0.052534413,1.3939945,-1.0671816
481,1747666202980,-1.5125336818181816,-2.133603913636364,-1.3881088954545455,-0.09111610565909091,1.2367661113636363,-0.8626111568181819
482,1747666202990,-1.7800494930434785,-2.128272708695652,-1.4200036704347825,-0.3596083962608696,0.4939403146086957,0.3265845083478261
483,1747666203000,-1.8097901448818898,-2.1147927448818895,-1.4132087803149607,-0.5318423574803149,0.2202385602362205,0.9540561031496063
484,1747666203010,-1.8183486,-2.058745,-1.3656222500000001,-0.8570439288135593,-0.03726277847457628,1.9684873508474576
485,1747666203020,-1.7914097346774194,-2.0056388306451614,-1.319765070967742,-1.0868475,-0.14116898832258065,2.6243756451612903
486,1747666203030,-1.7669744,-1.974423,-1.2927712,-1.2333369,-0.18692477,3.019507
487,1747666203040,-1.7669744,-1.974423,-1.2927712,-1.2333369,-0.18692477,3.019507
488,1747666203050,-1.7669744,-1.974423,-1.2927712,-1.2333369,-0.18692477,3.019507
489,1747666203060,-1.6686640845,-1.9428074333333332,-1.2508767453333334,-1.2898673883333334,-0.20413080683333332,3.1319621983333334
490,1747666203070,-0.27028741221311475,-1.5222189729508195,-0.7198508782786885,-3.4334232704918035,-0.4048334101639344,5.821035142622951
491,1747666203080,-0.042438626624000005,-1.4229728072,-0.53685762128,-4.1527497488,-0.09946841216,5.987041056
492,1747666203090,0.09030713351219512,-1.3650776731707317,-0.3753005053658537,-4.551040471544715,0.10151785658536586,6.096733077235772
493,1747666203100,0.3293899988617886,-1.2769273609756098,-0.11224648894308943,-4.991975990243902,0.43962928292682923,6.270040134146342
494,1747666203110,0.38240747024793387,-1.2610538743801654,-0.05835186876033058,-5.02640640661157,0.48981801074380166,6.289301991735537
495,1747666203120,0.5385516792741935,-1.2168221556451613,0.09051570824193549,-5.099966354838709,0.6560495803225806,6.338988161290323
496,1747666203130,0.5930591,-1.1990532,0.14082102,-5.109277,0.7012733,6.347501
497,1747666203140,0.5930591,-1.1990532,0.14082102,-5.109277,0.7012733,6.347501
498,1747666203150,0.5930591,-1.1990532,0.14082102,-5.109277,0.7012733,6.347501
499,1747666203160,0.5930591,-1.1990532,0.14082102,-5.109277,0.7012733,6.347501
500,1747666203170,0.7633630569672131,-1.1120888786885246,0.224746703852459,-5.454936290983607,-0.8508952252459017,6.286704447540983
501,1747666203180,0.8855203866929134,-1.179563294488189,0.30769854322834644,-5.659502888188976,-1.5652003291338583,6.4861142551181095
502,1747666203190,1.0981093004,-1.2705678992,0.36079664464,-5.7555723,-1.8417587,6.7665544
503,1747666203200,1.1921025896,-1.2875074184,0.36569926864,-5.7610994216,-1.8373751416,6.7728438624
504,1747666203210,1.3945432,-1.3203496999999997,0.3756041,-5.808717699999999,-1.7996091,6.82703
505,1747666203220,1.4967136716666665,-1.3149560466666665,0.36362902933333335,-5.915955068333333,-1.7691981716666667,6.79672088
506,1747666203230,1.7428128,-1.3005811,0.3328941,-6.169739,-1.6982054,6.726848
507,1747666203240,1.7428128,-1.3005811,0.3328941,-6.169739,-1.6982054,6.726848
508,1747666203250,1.7428128,-1.3005811,0.3328941,-6.169739,-1.6982054,6.726848
509,1747666203260,1.7428128,-1.3005811,0.3328941,-6.169739,-1.6982054,6.726848
510,1747666203270,1.7428128,-1.3005811,0.3328941,-6.169739,-1.6982054,6.726848
511,1747666203280,1.7428128,-1.3005811,0.3328941,-6.169739,-1.6982054,6.726848
512,1747666203290,1.7466701440677967,-1.3098759559322035,0.35370721923728815,-6.2825523449152545,-1.7239652788135593,6.761998641525424
513,1747666203300,3.1016084496000005,-1.2346464928,1.5921240696,-6.723573894399999,-1.339192592,6.6057499128
514,1747666203310,3.1063607,-1.0972813,1.534632,-6.150478608403361,-1.0426032470588236,5.596921731092437
515,1747666203320,3.0474208467741937,-1.0948013693548386,1.5180990725806451,-6.101322,-1.2064588,5.169142
516,1747666203330,2.9323478,-1.0899596,1.4858205,-6.101322,-1.2064588,5.169142
517,1747666203340,2.9323478,-1.0899596,1.4858205,-6.101322,-1.2064587999999998,5.169142
518,1747666203350,2.9323478,-1.0899596,1.4858205,-6.101322,-1.2064588,5.169142
519,1747666203360,2.9323478,-1.0899596,1.4858205,-6.101322,-1.2064588,5.169142
520,1747666203370,3.0137324974137933,-0.9986969353448276,1.7977067629310346,-6.141017690517241,-1.0427995920689654,5.005730230172414
521,1747666203380,3.4199743,-0.5269196,3.0355842,-5.9162297,-0.3707952,4.1092906
522,1747666203390,3.4199743,-0.5269196,3.0355842,-5.9162297,-0.3707952,4.1092906
523,1747666203400,2.4733443351999997,0.18442526799999998,3.3285561928,-2.8845301832,-1.885794804,1.5629501103999999
524,1747666203410,2.3143946999999994,0.2865232,3.3609123,-2.3744333,-2.1820107,1.1771374
525,1747666203420,2.3143947,0.2865232,3.3609123,-2.3744333,-2.1820107,1.1771374
526,1747666203430,2.3143947,0.2865232,3.3609123,-2.3744333,-2.1820107,1.1771374
527,1747666203440,2.3143947,0.2865232,3.3609123,-2.3744333,-2.1820107,1.1771374
528,1747666203450,2.3143947,0.2865232,3.3609123,-2.3744333,-2.1820107,1.1771374
529,1747666203460,2.3143947,0.2865232,3.3609123,-2.3744333,-2.1820107,1.1771374
530,1747666203470,2.3143947,0.28652320000000003,3.3609123,-2.3744333,-2.1820107,1.1771374
531,1747666203480,2.4328282352941173,0.7418089233613445,3.175517005042017,-2.146344340336135,0.41510603294117643,0.5528279357983193
532,1747666203490,2.5627769483050846,0.9272769120338983,3.309112303389831,-1.62372125,2.011600013559322,-0.23535913466101696
533,1747666203500,2.5760243,0.90642864,3.3572516,-1.4349225,2.0347922,-0.38973203
534,1747666203510,2.540137637815126,0.8064369395798319,3.397445142016807,-0.9433248353512605,1.9243949630252102,-0.7353944878151261
535,1747666203520,2.4003031,0.4724948,3.5193055,0.8906415,1.4740179,-1.9016235
536,1747666203530,2.207789876229508,0.23283460475409837,3.382089229508197,1.9744466852459017,1.2577615704918033,-2.219924355737705
537,1747666203540,2.110363,0.11153416,3.304779,2.5442538,1.1520919,-2.3762658
538,1747666203550,2.110363,0.11153416,3.304779,2.5442538,1.1520919,-2.3762658
539,1747666203560,2.110363,0.11153416,3.304779,2.5442538,1.1520919,-2.3762658
540,1747666203570,2.110363,0.11153416,3.304779,2.5442537999999995,1.1520919,-2.3762658
541,1747666203580,2.2833736901639345,-0.48719229549180326,2.1493641319672134,4.393673220491804,1.8928410385245902,-3.0571152221311477
542,1747666203590,2.3466384229508197,-0.6823520704918032,1.9480809606557377,4.679638163934426,2.026810793442623,-3.406575229508197
543,1747666203600,2.372352444262295,-0.8315430418032788,1.9616641245901638,4.808851424590164,1.9394771393442622,-3.715382604918033
544,1747666203610,2.3763855,-0.87299275,1.98687,4.8820353,1.8674151,-3.8020253
545,1747666203620,2.3763855,-0.87299275,1.98687,4.8820353,1.8674151,-3.8020253
546,1747666203630,2.436757986614173,-0.9237258846456693,2.058403814173228,4.8820353,1.8674151,-3.8020253
547,1747666203640,2.5330441795081966,-1.0585762147540982,2.016371052459016,6.384412973770492,1.2755066737704919,-4.815340781967214
548,1747666203650,2.545273,-1.0902036,1.9746673,6.6749244,1.1636983000000003,-5.010317
549,1747666203660,2.545273,-1.0902036,1.9746673,6.6749244,1.1636983,-5.010317
550,1747666203670,2.545273,-1.0902036000000002,1.9746673,6.6749244,1.1636983,-5.010317
551,1747666203680,2.4817898239669423,-1.1016279710743802,1.388843058677686,7.053565052066116,0.9063372438842975,-6.1167856528925615
552,1747666203690,2.3337471596638655,-1.0302866420168066,0.825352342184874,6.659473282352941,1.2427155658823528,-6.901052370588235
553,1747666203700,2.1821850150000004,-0.96812221,0.6849060106666667,5.9288902825,1.822974605,-7.0775154725
554,1747666203710,2.16284375862069,-0.9643501189655173,0.6857714372413793,5.9082941137931035,1.838061922413793,-7.082298137068966
555,1747666203720,2.033241,-0.9479183,0.74339837,5.6914315,1.9865338,-7.1349063
556,1747666203730,2.033241,-0.9479183,0.74339837,5.6914315,1.9865338,-7.1349063
557,1747666203740,1.7407048838709678,-0.974577689032258,0.7567487013709677,5.961177631451613,1.470554672580645,-7.324776991935484
558,1747666203750,1.632743,-0.9850151,0.7592621,6.0658917,1.2718215,-7.3963566
559,1747666203760,1.632743,-0.9850150999999999,0.7592621,6.0658917,1.2718215,-7.3963566
560,1747666203770,1.632743,-0.9850151,0.7592621,6.0658917,1.2718215,-7.3963566
561,1747666203780,1.438652527419355,-0.9472413323387097,0.5941947687096775,5.782952787903225,0.8419496957096774,-7.351876610483871
562,1747666203790,0.9409916610169491,-0.8601590966949152,0.14774770559322037,4.6944064644067796,-8.282891525423723e-05,-7.17468463220339
563,1747666203800,0.93181056,-0.8603018,0.13447554,4.6761737,0.008552114,-7.1721687
564,1747666203810,0.93181056,-0.8603018,0.13447554,4.6761737,0.008552114,-7.1721687
565,1747666203820,0.93181056,-0.8603018,0.13447554,4.6761737,0.008552114,-7.1721687
566,1747666203830,0.93181056,-0.8603018000000001,0.13447554,4.6761737,0.008552114,-7.1721687
567,1747666203840,0.9216724213999999,-0.8595281384000001,0.1354956993,4.650211918999999,0.01098335765,-7.168466861000001
568,1747666203850,0.4041588,-0.8439498999999999,0.2208718,3.4697146,-0.16554447999999997,-6.8068714
569,1747666203860,0.4041588,-0.8439499,0.2208718,3.4697146,-0.16554448,-6.8068714
570,1747666203870,0.4041588,-0.8439499,0.2208718,3.4697146,-0.16554448,-6.8068714
571,1747666203880,0.40304944867768594,-0.8444803727272728,0.22105736413223143,3.4544934504132234,-0.16995179710743802,-6.781790571900827
572,1747666203890,0.18083589439655173,-0.9466727679310345,0.2739921400862069,3.2612831491379315,0.28000799081034483,-5.565672387931034
573,1747666203900,0.17767367,-0.9479183,0.27480847,3.286455,0.3304781,-5.462968
574,1747666203910,0.17767367,-0.9479183,0.27480847,3.286455,0.3304781,-5.462968
575,1747666203920,0.17767367,-0.9479183,0.27480847,3.286455,0.3304781,-5.462968
576,1747666203930,0.17767367,-0.9479183,0.27480847,3.286455,0.3304781,-5.462968
577,1747666203940,-0.037441135193225804,-1.2281334693548387,-0.1590977882903226,3.23228502016129,0.18637794463709675,-4.172209713709678
578,1747666203950,-0.12983845,-1.3730661,-0.3912238,3.181997,0.1301143,-3.5216382
579,1747666203960,-0.12983845,-1.3730661,-0.3912238,3.181997,0.1301143,-3.5216382
580,1747666203970,-0.12983845,-1.3730661,-0.3912238,3.181997,0.1301143,-3.5216382
581,1747666203980,-0.12983845,-1.3730661,-0.3912238,3.181997,0.1301143,-3.5216382
582,1747666203990,-0.2534770655645161,-1.4605251822580645,-0.545422708548387,2.705674835403226,0.4007768584677419,-3.2610450443548387
583,1747666204000,-0.9647583,-1.9092598,-1.2383465,0.31520647,1.6053538,-1.9211712
584,1747666204010,-0.9647583,-1.9092598,-1.2383465,0.31520647,1.6053537999999998,-1.9211712
585,1747666204020,-0.9647583,-1.9092598,-1.2383465,0.31520647,1.6053538,-1.9211712
586,1747666204030,-0.9647583,-1.9092598,-1.2383465,0.31520647,1.6053538,-1.9211712
587,1747666204040,-0.9647583,-1.9092598,-1.2383465,0.31520647,1.6053537999999998,-1.9211712
588,1747666204050,-0.9647583,-1.9092598,-1.2383465,0.31520647,1.6053538,-1.9211712
589,1747666204060,-0.9647583,-1.9092598,-1.2383465,0.31520646999999996,1.6053538,-1.9211712
590,1747666204070,-0.9647583,-1.9092598,-1.2383465,0.31520647,1.6053538,-1.9211712
591,1747666204080,-0.9647583,-1.9092598,-1.2383465,0.31520647,1.6053538,-1.9211712
592,1747666204090,-1.076144739473684,-1.884025597368421,-1.1030574245614035,-0.2813891730701754,1.0214095202105262,-0.22111179517543864
593,1747666204100,-0.9810196192741936,-1.6268009475806453,-0.6896939612903227,-1.9499113806451613,-0.03248916386290322,4.1790375580645165
594,1747666204110,-0.9517592667213115,-1.604608344262295,-0.6817079019672131,-2.007142936065574,-0.028470326409836065,4.288594540983606
595,1747666204120,-0.6991960216393442,-1.4380333,-0.6133798803278688,-2.440411659836066,-0.03927062221311475,4.963265086065574
596,1747666204130,-0.4781787656198347,-1.3605323809917356,-0.5609060590082645,-2.795026566942149,0.0027413224132231415,5.2702475
597,1747666204140,-0.14338261025210083,-1.2594789226890755,-0.4710858605042017,-3.396323435294118,0.14472886682352942,5.670600537815126
598,1747666204150,-0.07614586,-1.2422514,-0.44686884,-3.5234706,0.19853121,5.7231965
599,1747666204160,-0.07614586,-1.2422514,-0.44686884,-3.5234706,0.19853121,5.7231965
600,1747666204170,-0.07614586,-1.2422514,-0.44686884,-3.5234706,0.19853121,5.7231965
601,1747666204180,-0.07614586,-1.2422514,-0.44686884,-3.5234706,0.19853121,5.7231965
602,1747666204190,0.09914147839506174,-1.140250528888889,-0.1738802569876543,-4.321901698765432,0.5085566191358024,6.150802183950617
603,1747666204200,0.35974038,-0.99355704,0.25723633,-5.5212982431999995,0.6930681439999999,6.911832703999999
604,1747666204210,0.35974038,-0.99355704,0.25723633,-5.5326066,0.6395759,6.94004
605,1747666204220,0.35974038,-0.99355704,0.25723633,-5.5326066,0.6395759,6.94004
606,1747666204230,0.35974038,-0.99355704,0.25723633,-5.5326066,0.6395759,6.94004
607,1747666204240,0.35974038,-0.99355704,0.25723633,-5.5326066,0.6395759,6.94004
608,1747666204250,0.35974038,-0.99355704,0.25723633,-5.5326066,0.6395759,6.94004
609,1747666204260,0.35974038,-0.9935570400000001,0.25723633,-5.5326066,0.6395759,6.94004
610,1747666204270,0.35974038,-0.99355704,0.25723633,-5.5326066,0.6395759,6.94004
611,1747666204280,0.35974038,-0.99355704,0.25723633,-5.5326066,0.6395759,6.94004
612,1747666204290,0.35974038,-0.99355704,0.25723633,-5.532606599999999,0.6395759000000001,6.94004
613,1747666204300,0.35974038,-0.99355704,0.25723633,-5.5326066,0.6395759,6.94004
614,1747666204310,0.35974038,-0.99355704,0.25723633,-5.532606599999999,0.6395759000000001,6.94004
615,1747666204320,0.35974038,-0.99355704,0.25723633,-5.5326066,0.6395759,6.94004
616,1747666204330,0.35974038,-0.99355704,0.25723633,-5.5326066,0.6395759,6.94004
617,1747666204340,0.35974038,-0.99355704,0.25723633,-5.5326066,0.6395759,6.94004
618,1747666204350,0.35974038,-0.99355704,0.25723633,-5.5326066,0.6395759,6.94004
619,1747666204360,0.35974038,-0.99355704,0.25723633,-5.5326066,0.6395759,6.94004
620,1747666204370,0.35974038,-0.99355704,0.25723633,-5.5326066,0.6395759,6.94004
621,1747666204380,0.35974038,-0.99355704,0.25723633,-5.5326066,0.6395759,6.94004
622,1747666204390,0.35974038,-0.99355704,0.25723633,-5.5326066,0.6395759,6.94004
623,1747666204400,0.7600563628070175,-0.8227383861403509,0.4338524094736842,-4.740196553508772,-0.2150674322807018,6.932993571052632
624,1747666204410,2.269492463559322,-0.18156824483050849,1.4413855322033897,-3.9009543398305087,-0.7827306201694915,5.1743755542372885
625,1747666204420,2.197097764516129,0.048220991500000004,1.6732879612903224,-2.5786986677419352,-1.9951253193548388,4.306600154838709
626,1747666204430,2.1220777,0.09274176,1.7159665,-2.2559254,-2.4019222,4.2271876
627,1747666204440,2.0129084500000003,0.11350765655172415,1.7288215672413794,-1.7083899844827588,-2.9827601939655173,4.422596153448276
628,1747666204450,1.9924429338582677,0.09388516850393701,1.7082892110236219,-1.222274042519685,-3.3842510842519684,4.8319971322834645
629,1747666204460,2.7131963433333337,0.21119494466666666,1.52901055,-0.47882673249999996,-2.6416104875,6.09727508
630,1747666204470,2.725387,0.21330604,1.52609,-0.462425,-2.620612,6.1269784
631,1747666204480,2.7253869999999996,0.21330604,1.52609,-0.462425,-2.620612,6.1269784
632,1747666204490,2.725387,0.21330604,1.52609,-0.462425,-2.620612,6.1269784
633,1747666204500,3.128849239516129,1.3188243801612902,1.4299708112903227,-1.4141973738709677,-0.9051643897096775,3.499144509677419
634,1747666204510,3.2576761,2.0449557,1.4689806,-2.1337523,0.23273966,1.4837916999999998
635,1747666204520,3.2576761,2.0449557,1.4689806,-2.1337523,0.23273966,1.4837917
636,1747666204530,3.2576761,2.0449557,1.4689806,-2.1337523,0.23273966,1.4837916999999998
637,1747666204540,3.2576761,2.0449557,1.4689806,-2.1337523,0.23273966,1.4837917
638,1747666204550,3.2576761,2.0449557,1.4689806,-2.1337523,0.23273966,1.4837917
639,1747666204560,3.2576761,2.0449557,1.4689806,-2.1337523,0.23273966,1.4837916999999998
640,1747666204570,3.2576761,2.0449557,1.4689806,-2.1337523,0.23273966,1.4837917
641,1747666204580,3.2576761,2.0449557,1.4689806,-2.1337523,0.23273966,1.4837917
642,1747666204590,3.2576761,2.0449557,1.4689806,-2.1337523,0.23273966,1.4837916999999998
643,1747666204600,3.2576761,2.0449557,1.4689805999999999,-2.1337523,0.23273966,1.4837917
644,1747666204610,2.875305380530973,1.8827720707964601,1.5188805707964603,-0.5476974507964602,0.2837009544247787,-0.2945559734513275
645,1747666204620,2.4537516,1.59467,1.5356082,1.3640621,0.2687807,-2.7000244
646,1747666204630,2.4537516,1.59467,1.5356082,1.3640621000000002,0.2687807,-2.7000243999999998
647,1747666204640,2.4537516,1.59467,1.5356082,1.3640621,0.2687807,-2.7000244
648,1747666204650,2.4537516,1.59467,1.5356082,1.3640621,0.2687807,-2.7000244
649,1747666204660,2.51269135,0.8686404058333334,1.8283182000000002,3.050920709166667,-0.11509210491666667,-4.100860435833334
650,1747666204670,2.541124,0.69385475,1.8965688,3.4972036,-0.23151793,-4.4385467
651,1747666204680,2.541124,0.69385475,1.8965688,3.4972036,-0.23151793,-4.4385467
652,1747666204690,2.541124,0.69385475,1.8965688,3.4972036,-0.23151793,-4.4385467
653,1747666204700,2.554453905691057,0.6344317722764228,1.7792943302439026,3.521906385365854,-0.14266435292682927,-4.659103852845528
654,1747666204710,2.5324739983606555,0.1918450093442623,0.8867040142622951,3.4167295344262296,0.7682882459016394,-6.312981852459017
655,1747666204720,2.5269687,0.18792409,0.87958235,3.404352,0.784351,-6.323677
656,1747666204730,2.5269687,0.18792409,0.87958235,3.404352,0.784351,-6.323677
657,1747666204740,2.5269687,0.18792409,0.87958235,3.404352,0.784351,-6.323677
658,1747666204750,2.5269687,0.18792409,0.87958235,3.404352,0.7843509999999999,-6.323677
659,1747666204760,2.5269687,0.18792409,0.87958235,3.404352,0.784351,-6.323677
660,1747666204770,2.5269687,0.18792409,0.87958235,3.404352,0.784351,-6.323677
661,1747666204780,2.5269687,0.18792409,0.87958235,3.404352,0.784351,-6.323677
662,1747666204790,2.5269687,0.18792409,0.87958235,3.404352,0.784351,-6.323677
663,1747666204800,2.5269687,0.18792409,0.87958235,3.404352,0.784351,-6.323677
664,1747666204810,2.5269687,0.18792409,0.87958235,3.404352,0.784351,-6.323677
665,1747666204820,2.5269687,0.18792409,0.87958235,3.404352,0.784351,-6.323677
666,1747666204830,2.5269687,0.18792409,0.87958235,3.404352,0.784351,-6.323677
667,1747666204840,2.5269687,0.18792409,0.87958235,3.404352,0.784351,-6.323677
668,1747666204850,2.5269687,0.18792409,0.87958235,3.404352,0.784351,-6.323677
669,1747666204860,2.5269687,0.18792409,0.87958235,3.404352,0.7843509999999999,-6.323677
670,1747666204870,2.5269687,0.18792409,0.87958235,3.404352,0.784351,-6.323677
671,1747666204880,2.5269687,0.18792409,0.87958235,3.404352,0.784351,-6.323677
672,1747666204890,2.5269687,0.18792409,0.87958235,3.404352,0.784351,-6.323677
673,1747666204900,2.5269687,0.18792409,0.87958235,3.404352,0.7843509999999999,-6.323677
674,1747666204910,2.2583220752577318,0.028705666226804115,0.7941446893814433,3.1325736474226806,0.937848201958763,-6.559445807216496
675,1747666204920,0.16807280792125984,-0.9325850028346456,0.518139291023622,4.730338527559055,-0.37714434803149605,-7.245054280314961
676,1747666204930,-0.1312175683888889,-0.9907135544444445,0.3502628220634921,4.5758266912698415,-0.4214776116666667,-6.851978314285715
677,1747666204940,-0.22665943857142856,-0.9988216857142858,0.2938449214285715,4.336804444537814,-0.20074879588235295,-6.271081021848739
678,1747666204950,-0.2771095557142857,-0.9963114000000001,0.24716025571428574,4.3169847,-0.18081611,-6.2210517
679,1747666204960,-0.28777988692982454,-0.9811422438596491,0.18277961131578946,4.0525816535087715,0.12193191324561403,-5.46498779385965
680,1747666204970,-0.07810427502439024,-0.9513291902439024,0.15057736926829268,3.669363248780488,0.3516348907317073,-4.581951146341463
681,1747666204980,-0.025870068,-0.946454,0.15229172,3.6004398,0.37751472,-4.437936
682,1747666204990,-0.025870068,-0.946454,0.15229172,3.6004398,0.37751472,-4.437936
683,1747666205000,-0.025870068,-0.946454,0.15229172,3.6004398,0.37751472,-4.437936
684,1747666205010,-0.09337223575658334,-1.2233959200000002,0.02627479510833333,3.86084141,0.2710612691666667,-4.235301799166667
685,1747666205020,-0.34449362512,-1.7403175672,-0.41969060432,4.37294952,-0.018614286736,-3.5645159336
686,1747666205030,-0.4169509819512195,-1.8588471414634147,-0.6641987941463414,4.190818485365853,0.017327716097560973,-3.202229987804878
687,1747666205040,-0.4385709,-1.909992,-0.7743936,4.1050143,0.04153884,-3.0805933
688,1747666205050,-0.445700023125,-2.06740321015625,-1.0781591000000001,3.45873808125,0.37913733843749997,-2.751012409375
689,1747666205060,-0.45297024,-2.2394693,-1.4055257,2.6832857770491803,0.7805706233606556,-2.365710737704918
690,1747666205070,-0.45297024,-2.2394693,-1.4055257,1.9767599,1.0897835,-2.172237
691,1747666205080,-0.45297024,-2.2394693,-1.4055257,1.9767599,1.0897835,-2.172237
692,1747666205090,-0.45297024,-2.2394693,-1.4055257,1.9767599,1.0897835000000002,-2.172237
693,1747666205100,-0.45297024,-2.2394693,-1.4055257,1.9767599,1.0897835,-2.172237
694,1747666205110,-0.5065600711403508,-2.251171201754386,-1.3945281333333335,1.8006110150877193,1.0880848728070176,-2.0573943201754386
695,1747666205120,-1.3984655952,-2.2646639056,-0.9722361912,-0.8641984024,0.47624520104000007,0.6910743272000001
696,1747666205130,-1.2842253288,-1.98248488,-0.7469010776,-0.74679500672,-0.42165340128,2.2345598168
697,1747666205140,-1.1822450284552848,-1.896624442276423,-0.726477068292683,-0.7702414707317073,-0.5694753992682927,2.6673357024390247
698,1747666205150,-1.1277885,-1.8516623,-0.7175283,-0.7800749,-0.59986967,2.7708848
699,1747666205160,-1.1277885,-1.8516623,-0.7175283,-0.7800749,-0.59986967,2.7708848
700,1747666205170,-1.1277885,-1.8516623,-0.7175283,-0.7800749,-0.59986967,2.7708848
701,1747666205180,-1.1277885,-1.8516623,-0.7175283,-0.7800749,-0.59986967,2.7708848
702,1747666205190,-1.1277885,-1.8516623,-0.7175283,-0.7800749,-0.59986967,2.7708848
703,1747666205200,-1.1277885,-1.8516622999999999,-0.7175282999999999,-0.7800749,-0.59986967,2.7708848
704,1747666205210,-1.1277885,-1.8516622999999999,-0.7175282999999999,-0.7800749,-0.59986967,2.7708848
705,1747666205220,-0.040674223853658535,-0.8440809214634147,-0.2762430548780488,-4.5925891365853655,1.035386783902439,4.720155568292683
706,1747666205230,-0.040674223853658535,-0.8440809214634147,-0.2762430548780488,-4.5925891365853655,1.035386783902439,4.720155568292683
707,1747666205240,0.017107626645161293,-0.7831797016129032,-0.118911,-4.636585367741935,0.8726505515806452,4.782641096774194
708,1747666205250,0.139082128,-0.6395520065,0.19854056650000002,-4.1416664,-0.059253927,4.92113
709,1747666205260,0.20793676,-0.58988637,0.31141704,-4.1416664,-0.059253927,4.92113
710,1747666205270,0.20793676,-0.58988637,0.31141704,-4.1416664,-0.059253927,4.92113
711,1747666205280,0.20793676,-0.58988637,0.31141704,-4.1416664,-0.059253927000000005,4.92113
712,1747666205290,0.20793676,-0.58988637,0.31141704,-4.1416664,-0.059253927000000005,4.92113
713,1747666205300,0.20793676,-0.58988637,0.31141704,-4.1416664,-0.059253927,4.92113
714,1747666205310,0.20793676,-0.58988637,0.31141704,-4.1416664,-0.059253927,4.92113
715,1747666205320,0.5103347823636364,-0.27996250554545454,0.11030721688727271,-2.6916001054545458,-1.1446837323727272,5.634859667272727
716,1747666205330,0.7394602727999999,-0.104054293024,0.07748134174400001,-2.3464311616,-1.1336339168,6.143369128
717,1747666205340,0.8068631845528454,-0.09782925534959348,0.13259848413008132,-2.464811429268293,-0.9569477020325202,6.179423471544715
718,1747666205350,0.8642067,-0.09567044,0.1701079,-2.5149322,-0.88147855,6.188065
719,1747666205360,0.8642067,-0.09567044,0.1701079,-2.5149322,-0.88147855,6.188065
720,1747666205370,0.8998136226086956,0.060415843478260865,0.18411466999999998,-2.605510276521739,-0.9354896654782608,6.142956523478261
721,1747666205380,0.9096014,0.14399378,0.18426323000000003,-2.7159069,-0.9779953,6.1434717
722,1747666205390,0.9096014,0.14399378,0.18426323,-2.7159069,-0.9779953,6.1434717
723,1747666205400,0.9096014,0.14399378,0.18426323,-2.7159069,-0.9779953,6.1434717
724,1747666205410,0.9096014,0.14399378,0.18426322999999997,-2.7159069,-0.9779953,6.1434717
725,1747666205420,0.9096014,0.14399378,0.18426323,-2.7159069,-0.9779953,6.1434717
726,1747666205430,1.49863656,-0.15553419470588234,0.508791696302521,-4.200232388235294,0.10226090075630252,5.885096437815126
727,1747666205440,1.7724557278688524,-0.02774250639344262,0.7391133629508196,-3.5855336081967213,-0.6189967416393443,5.163393606557377
728,1747666205450,1.845942225,0.048643659812500004,0.8166613,-3.1573047578125,-1.0909098515625,4.806979768750001
729,1747666205460,1.7942675862903226,0.34359126999999995,0.9290826524193548,-2.738509,-1.5479325,4.538118
730,1747666205470,1.7735641,0.45370242,0.9525554,-2.738509,-1.5479325,4.538118
731,1747666205480,1.7735641,0.45370242,0.9525554,-2.738509,-1.5479325,4.538118
732,1747666205490,1.7735641,0.45370242,0.9525554,-2.738509,-1.5479325,4.538118
733,1747666205500,1.7735641,0.45370242,0.9525554,-2.738509,-1.5479325,4.538118
734,1747666205510,1.7735641,0.45370242,0.9525554,-2.738509,-1.5479325,4.538118
735,1747666205520,1.8507341918032787,0.5207361470491804,0.9831525729508197,-2.7900970459016396,-1.5477722855737706,4.666599987704918
736,1747666205530,2.756238438582677,1.6015595346456692,1.9512204496062993,-1.5999330688976376,-2.210100852755905,3.874771154330708
737,1747666205540,2.5790225857142857,1.770286757142857,1.7496813571428573,-0.3719781398412699,-2.7675588825396824,2.99979436984127
738,1747666205550,2.426509272440945,1.9127323937007874,1.530671388976378,-0.07791177644094488,-2.72204431496063,2.747325488188976
739,1747666205560,2.1926801,2.1776356428571426,1.122401937142857,-0.12004046910714285,-2.205370904464286,2.531523655357143
740,1747666205570,1.9962633700787402,2.540353440944882,0.7641221088188976,-1.2658522377952757,-0.7995601067716536,2.470820012598425
741,1747666205580,1.9545273344537817,2.753361697478992,0.8595163000000001,-2.6044060000000004,0.679569585882353,2.327899482352941
742,1747666205590,1.973691,2.7597995,1.1336459,-2.9633074,1.105666,2.1429152
743,1747666205600,1.973691,2.7597995,1.1336459,-2.9633074,1.105666,2.1429152
744,1747666205610,1.973691,2.7597995,1.1336459,-2.9633074,1.105666,2.1429152
745,1747666205620,1.973691,2.7597995,1.1336459,-2.9633074,1.105666,2.1429152
746,1747666205630,1.6101921,2.978995245833333,1.8389020983333333,0.7558744941916667,-0.3296585095,-0.2955009748333334
747,1747666205640,1.578952728,3.0167368608,1.4981248992,1.4636185088,-0.002824638399999994,-1.03236229136
748,1747666205650,1.6195638,3.0138628,1.389662,1.4227052,0.172264,-1.1276573
749,1747666205660,1.8010879305785126,2.889561174380165,1.2974043082644628,1.208453047107438,0.5793324852066116,-1.526769376859504
750,1747666205670,1.9983814738095238,2.537337146031746,1.3628543190476188,1.4215222936507936,0.7326795603174603,-2.333854298412698
751,1747666205680,2.032997,2.431054,1.3962514,1.5485435,0.7458665,-2.6218336
752,1747666205690,2.032997,2.431054,1.3962514,1.5485435,0.7458665000000001,-2.6218336
753,1747666205700,2.032997,2.431054,1.3962514,1.5485435,0.7458665,-2.6218336
754,1747666205710,2.032997,2.431054,1.3962514,1.5485435,0.7458665,-2.6218336
755,1747666205720,2.032997,2.431054,1.3962514,1.5485435,0.7458665,-2.6218336
756,1747666205730,1.97169997,1.7238088166666665,0.9722569486666667,2.5868615683333336,0.35243361925,-4.104764958333333
757,1747666205740,1.913345209782609,1.3866616467391304,0.7813890845652173,3.000331,0.16503985173913044,-4.900971826086956
758,1747666205750,1.856863715625,1.2976295031249998,0.7923776196875,3.04151718125,0.1531458278125,-5.0828856515625
759,1747666205760,1.8090211641025642,1.1405546743589743,0.7741370776923077,3.1716123000000005,0.13744467,-5.2564955
760,1747666205770,1.812125,1.1102165,0.74339837,3.1716123,0.13744467,-5.2564955
761,1747666205780,1.8392926375,1.0598613536666666,0.653560888,3.2776737775,0.09695957969999999,-5.368599490833334
762,1747666205790,1.8948604,0.95743656,0.47054234,3.4636059,0.020158553,-5.585752
763,1747666205800,1.8948604,0.95743656,0.47054234,3.4636059,0.020158553,-5.585752
764,1747666205810,1.8948604,0.95743656,0.47054233999999995,3.4636059,0.020158553,-5.585752
765,1747666205820,1.8948604,0.95743656,0.47054234,3.4636059,0.020158553,-5.585752
766,1747666205830,1.8948604,0.95743656,0.47054234,3.4636059,0.020158553,-5.585752
767,1747666205840,1.6576876883333334,0.4739754365,0.17819026266666665,3.846735481666667,-1.0280556105916667,-6.602969941666667
768,1747666205850,1.58392584609375,0.36004163671875,0.042208556249999994,3.8522402328125,-1.11296779375,-6.7982240328125
769,1747666205860,1.481187544537815,0.28569054151260503,-0.14054622105882353,3.543177498319328,-0.824267674117647,-6.880898962184874
770,1747666205870,1.1247417548387095,0.0985282714516129,-0.17570547225806452,2.6921028451612905,-0.7370581593548388,-6.896373061290323
771,1747666205880,0.9815748519999999,0.07223899539999999,-0.089582676416,2.5212606544,-0.9732451184,-6.828730751200001
772,1747666205890,0.91057765,0.067359805,-0.036608588,2.460565,-1.1429288,-6.7793827
773,1747666205900,0.91057765,0.067359805,-0.036608588,2.460565,-1.1429288,-6.7793827
774,1747666205910,0.91057765,0.067359805,-0.036608588,2.460565,-1.1429288000000002,-6.7793827
775,1747666205920,0.91057765,0.067359805,-0.036608588,2.460565,-1.1429288,-6.7793827
776,1747666205930,0.8930624589999999,0.042087675458333335,0.009091133075,2.4735764816666665,-1.3698907108333331,-6.670241395000001
777,1747666205940,0.8183854479674797,-0.0530655843902439,0.0985713542113821,2.4180578634146346,-1.7934854146341466,-6.366392753658537
778,1747666205950,0.7875013846153847,-0.11110236430769231,0.10700596486153847,2.3657964184615383,-1.6001098061538461,-6.352049320000001
779,1747666205960,0.745921693220339,-0.24552160491525424,0.07552537754237287,2.3542642466101693,-1.4757520838983051,-6.306329644067796
780,1747666205970,0.7365648,-0.26455808,0.05051985,2.3530529,-1.5118915,-6.301686
781,1747666205980,0.7365648000000001,-0.26455808,0.05051985,2.3530529,-1.5118915,-6.301686
782,1747666205990,0.6100927353719008,-0.47611535809917355,-0.15731809531404958,1.9002856752066113,-1.703864717355372,-6.182662939669421
783,1747666206000,0.53643787,-0.5691415,-0.18963248,1.6536123,-1.681712,-6.0988784
784,1747666206010,0.53643787,-0.5691415,-0.18963248,1.6536123,-1.681712,-6.0988784
785,1747666206020,0.53643787,-0.5691415,-0.18963248,1.6536123,-1.681712,-6.0988784
786,1747666206030,0.5052922402142858,-0.5867811709821428,-0.16491296748214285,1.6335246455357144,-1.671185479464286,-6.041124380357144
787,1747666206040,-0.0022059935475728155,-0.9905004310679612,0.21578214485436892,1.3181167873786408,-1.3396393747572815,-4.876934570873786
788,1747666206050,0.0019524579,-1.0609169,0.21208574,1.2803736,-1.2284501,-4.776966000000001
789,1747666206060,-0.013126943584615384,-1.236327293162393,0.19574434025641027,1.2917502914529915,-0.9951517452991453,-4.674946450427351
790,1747666206070,-0.1955140596694215,-1.7252668950413221,0.062149887041322315,1.2871384991735537,-0.5628946601652892,-4.398699360330578
791,1747666206080,-0.31727442,-1.909992,-0.021232981,1.2583824,-0.44593164,-4.2449026
792,1747666206090,-0.31727442,-1.909992,-0.021232981,1.2583824,-0.44593164,-4.2449026
793,1747666206100,-0.31727442,-1.909992,-0.021232981,1.2583824,-0.44593164,-4.2449026
794,1747666206110,-0.31727442,-1.9099920000000001,-0.021232981,1.2583824,-0.44593163999999996,-4.2449026
795,1747666206120,-0.31727442,-1.909992,-0.021232981,1.2583824,-0.44593164,-4.2449026
796,1747666206130,-0.31727442,-1.909992,-0.021232981,1.2583824,-0.44593164,-4.2449026
797,1747666206140,-0.6355350617213115,-2.0860152540983603,0.009616255827868852,0.5188899627049179,-0.24729528754098362,-3.2565276467213113
798,1747666206150,-1.439080688372093,-2.5468451162790697,0.19326496325581397,-1.3630534449612401,0.4154641220930233,-0.006733741550387598
799,1747666206160,-1.4979527206611571,-2.4268328099173555,0.2081283920661157,-1.1255873768595042,0.3958709673553719,1.4479121690909091
800,1747666206170,-1.4360676444444445,-2.357345158730159,0.17847170333333331,-1.042039157142857,0.32991571047619045,1.8520852142857143
801,1747666206180,-1.3401184,-2.2665596,0.13716017,-0.94989544,0.23151793,2.3011293
802,1747666206190,-1.0090482785964912,-1.9908476087719296,-0.03209138875438597,-0.8573600954385966,0.12139607280701754,3.020921506140351
803,1747666206200,-0.89032084,-1.8743596,-0.0924977,-0.8588765,0.10751228,3.653585
804,1747666206210,-0.89032084,-1.8743596,-0.0924977,-0.8588765,0.10751228,3.653585
805,1747666206220,-0.89032084,-1.8743596,-0.0924977,-0.8588765,0.10751228,3.653585
806,1747666206230,-0.89032084,-1.8743596,-0.0924977,-0.8588765,0.10751228,3.653585
807,1747666206240,-0.8091148571666668,-1.7778268416666667,-0.13466062033333334,-1.001488081,0.21009691258333335,3.8722849558333334
808,1747666206250,-0.15467177152000003,-0.9962221960000001,-0.47903359312,-2.3301575968000003,1.0582091488,5.6159433688
809,1747666206260,-0.08102701,-0.89764255,-0.503002,-2.6639833,1.1496484,5.8472023
810,1747666206270,-0.08102701,-0.89764255,-0.503002,-2.6639833,1.1496484,5.8472023
811,1747666206280,0.47029827142857145,-0.5783459914285715,-0.37804467142857145,-3.7110064,1.1050552,6.4000354
812,1747666206290,0.5191097,-0.55401,-0.3653537,-3.7285178666666665,1.0957293266666668,6.402234506666667
813,1747666206300,0.6277284418918919,-0.4882728405405405,-0.3305260618918919,-4.149112554054054,0.8594709005405406,6.406325445945947
814,1747666206310,0.64089435,-0.4803047,-0.32630453,-4.1703773,0.84665924,6.4030895
815,1747666206320,0.64089435,-0.4803047,-0.32630453,-4.1703773,0.84665924,6.4030895
816,1747666206330,0.64089435,-0.4803047,-0.32630453,-4.1703773,0.84665924,6.4030895
817,1747666206340,0.6592966698360655,-0.4271742219672131,-0.20209139590983605,-4.289776373770492,0.6398162601639344,6.358636571311476
818,1747666206350,0.752386543125,-0.227495669375,0.46319393703125,-4.4392437875,-0.7354149221875,6.5054094203125
819,1747666206360,0.7747509472,-0.19530242904,0.66985123416,-4.0724723248,-1.062563444,6.5607318048
820,1747666206370,0.7948811984496125,-0.14989845542635657,0.8356993329457365,-3.6427504604651166,-1.3342339170542634,6.583971894573643
821,1747666206380,0.8486219114285715,-0.09901751885714286,0.8948882142857143,-3.1139873904761903,-1.534144504761905,6.5868434476190485
822,1747666206390,1.1339408400000002,0.047613535516666666,0.6803644933333334,-1.9572631075,-1.6037605533333334,6.455537444166667
823,1747666206400,1.1912434,0.0656514,0.6023333,-1.8350391,-1.5381587,6.3939266
824,1747666206410,1.1912434,0.0656514,0.6023333,-1.8350391,-1.5381587,6.3939266
825,1747666206420,1.1912434,0.0656514,0.6023333,-1.8350391,-1.5381587,6.3939266
826,1747666206430,1.1912434,0.0656514,0.6023333,-1.8350391,-1.5381587,6.3939266
827,1747666206440,1.192279643442623,0.06759985704918034,0.5963238903278688,-1.8346235122950818,-1.5358404155737704,6.391623336065574
828,1747666206450,0.6995754504800001,0.31803978703999997,0.7360844696,-2.9779632944,-0.9645464150399999,6.0929802448
829,1747666206460,1.2529037588235294,0.2335627805882353,0.9545509823529412,-1.9557286999999999,-1.4661638571428572,6.741508914285714
830,1747666206470,1.461420710483871,0.30930516282258064,0.9037872798387098,-1.3470169911290322,-1.7575824596774194,6.868228834677419
831,1747666206480,1.7935353467741935,0.5343830327419354,0.625652525,-1.1494070516129031,-1.9764494967741935,6.670486121774193
832,1747666206490,1.8849085652892563,0.6144030238016529,0.4827088995041322,-1.2547374628099173,-1.9801171041322312,6.5635705950413215
833,1747666206500,1.9748880928571428,0.7371923419047618,0.18095101642857142,-1.9939514349206349,-1.7342270555555555,6.166316215873016
834,1747666206510,1.9700302,0.7570656,0.11006982,-2.3878722,-1.5473217,6.006027
835,1747666206520,1.9700302000000003,0.7570656,0.11006982,-2.3878722,-1.5473217,6.006027
836,1747666206530,1.9700302,0.7570656,0.11006982,-2.3878722,-1.5473217,6.006027
837,1747666206540,1.9700302,0.7570656,0.11006982,-2.3878722,-1.5473217,6.006027
838,1747666206550,1.4225604976744186,0.6245481620930232,1.1166470442635659,-3.6689133976744186,-0.5047972542635659,5.9907032674418605
839,1747666206560,1.8975451,0.7692684499999999,2.016645,-1.3475688,-2.1917844,6.264423
840,1747666206570,1.8975451,0.76926845,2.016645,-1.3475688,-2.1917844,6.264423
841,1747666206580,2.4313205466666665,0.9241532473333334,2.0460803241666663,-0.22215132733333334,-3.022250673333333,5.867803736666667
842,1747666206590,2.8375604398373984,1.7973051428455284,1.6700996910569106,1.9092865962601628,-2.559788594308943,3.7687009138211383
843,1747666206600,2.3975695992,2.4647965488,1.1284660264,2.317090088,-1.1771520008,2.7700394072
844,1747666206610,2.2402015,2.579929,0.9928249,2.2595906,-0.7171558,2.6187794
845,1747666206620,2.2402015,2.579929,0.9928249,2.2595906,-0.7171558,2.6187794
846,1747666206630,2.2402015,2.579929,0.9928249,2.2595906,-0.7171558,2.6187794
847,1747666206640,2.2402015,2.579929,0.9928249,2.2595906,-0.7171558,2.6187794
848,1747666206650,2.2402015,2.579929,0.9928249,2.2595906,-0.7171558,2.6187794
849,1747666206660,2.2082448330434783,2.6885981826086955,0.89073681,2.0503559579130437,-0.4710674121478261,2.398187990956522
850,1747666206670,2.284129871653543,3.093738813385827,0.5064687669291338,0.23400948488188977,0.024251830535433068,-0.8499828543307086
851,1747666206680,2.2809591,2.99803058019802,0.5643425138613861,-0.0068525768316831616,0.05763906718811882,-1.139699101980198
852,1747666206690,2.2809591,2.9181926,0.6604188999999999,-0.22113322,0.09285152000000002,-1.4269812
853,1747666206700,2.2758218349593493,2.69817002601626,0.9738737211382112,-0.3012062344715447,0.18333407333333332,-1.929474930081301
854,1747666206710,2.2746134,2.6187344,1.0867869,-0.3023783,0.21013765,-2.1001546
855,1747666206720,2.2746134,2.6187344,1.0867869000000001,-0.3023783,0.21013765,-2.1001546
856,1747666206730,2.2746134,2.6187344,1.0867869000000001,-0.3023783,0.21013765,-2.1001546
857,1747666206740,2.2746134,2.6187344,1.0867869000000001,-0.3023783,0.21013765,-2.1001546
858,1747666206750,2.2426240991869917,2.2685201617886177,0.9545416093495934,0.6540131856910569,0.283481209105691,-2.9651795317073173
859,1747666206760,2.1711333,1.5114466,0.5994046,2.6010642,0.44898596,-4.7293186
860,1747666206770,2.1711333,1.5114466,0.5994046,2.6010642,0.44898596,-4.7293186
861,1747666206780,2.1418249696000005,1.4116935791999998,0.54543670624,2.3519387151999998,0.57939836496,-4.9330935552
862,1747666206790,2.0493488,1.1224194,0.41050428,1.6713274,0.9266826,-5.4837375
863,1747666206800,2.0493488,1.1224194,0.41050428,1.6713274,0.9266826,-5.4837375
864,1747666206810,1.9847249406015037,1.0170800368421054,0.46589609436090224,1.6612549248120303,0.8964654072180451,-5.553059190225564
865,1747666206820,1.9827211,1.0138137,0.46761367,1.6609426,0.89552844,-5.5552087
866,1747666206830,1.9827211,1.0138137,0.46761367,1.6609426,0.89552844,-5.5552087
867,1747666206840,1.9827211,1.0138137,0.46761367,1.6609426,0.89552844,-5.5552087
868,1747666206850,1.9699520264000001,0.99345152,0.46446630928,1.668786112,0.8899329144,-5.572459524
869,1747666206860,1.5270583268292683,0.3834417084552845,0.32421121235772354,1.7997679325203253,0.7194850203252032,-6.1587383691056905
870,1747666206870,1.4814276,0.328257,0.31678632,1.8014416,0.68600166,-6.200893
871,1747666206880,1.4814275999999997,0.328257,0.31678632,1.8014416,0.68600166,-6.200893
872,1747666206890,1.4814276,0.328257,0.31678632,1.8014416,0.68600166,-6.200893
873,1747666206900,1.4814276,0.328257,0.31678632,1.8014416,0.68600166,-6.200893
874,1747666206910,1.3716737508196721,0.24378117049180328,0.3224036301639344,1.8688120336065575,0.3558490312295082,-6.290054380327869
875,1747666206920,1.3574464,0.2328306,0.3231318,1.8771889,0.3145956,-6.301075
876,1747666206930,1.3574464,0.2328306,0.3231318,1.8771889,0.3145956,-6.301075
877,1747666206940,1.3574464,0.2328306,0.3231318,1.8771889,0.3145956,-6.301075
878,1747666206950,1.3574464,0.2328306,0.3231318,1.8771889,0.3145956,-6.301075
879,1747666206960,1.21044389648,0.158908593384,0.277438422528,1.7010397848,0.15923546499199998,-6.29475612
880,1747666206970,0.80368054,-0.06272271,0.17645338,1.047023,-0.09590584,-6.249151
881,1747666206980,0.80368054,-0.06272271,0.17645338,1.047023,-0.09590584,-6.249151
882,1747666206990,0.7504467656,-0.088133956,0.2129936328,1.001061506,-0.1376890288,-6.222224428
883,1747666207000,0.5946464413385827,-0.15812603173228346,0.24251411283464566,1.1119911767716535,-0.19294203267716536,-5.941650591338583
884,1747666207010,0.5583349594262296,-0.1923011044262295,0.21783909909836063,1.1930948778688526,-0.15728278262295084,-5.819688340983607
885,1747666207020,0.53814626,-0.2037878,0.1969542,1.2388347,-0.12156218,-5.7512965
886,1747666207030,0.53814626,-0.2037878,0.1969542,1.2388347,-0.12156218,-5.7512965
887,1747666207040,0.53814626,-0.2037878,0.1969542,1.2388347,-0.12156218,-5.7512965
888,1747666207050,0.53814626,-0.2037878,0.1969542,1.2388347,-0.12156218,-5.7512965
889,1747666207060,0.5981801919491525,-0.45959700059322034,0.07511999462711863,1.9299562516949151,-0.34205866014406777,-5.741092790677966
890,1747666207070,0.494186648,-0.7060966280000001,-0.07898668824,2.4240256472,-0.6040088984,-5.8447096768
891,1747666207080,0.15659601454545455,-0.8428184272727274,-0.18657067,2.306041488429752,-0.6365417661157025,-5.882798801652893
892,1747666207090,-0.08102701,-0.9232686,-0.25894472,2.1820107,-0.6096435,-5.8417044
893,1747666207100,-0.1808249404,-0.9640241904,-0.30601458368,2.0855575032,-0.55458744208,-5.7542871544
894,1747666207110,-0.37804466,-1.044565,-0.39903359999999993,1.9016235,-0.44959682,-5.5875845
895,1747666207120,-0.37804466,-1.044565,-0.39903359999999993,1.9016235,-0.44959682,-5.5875845
896,1747666207130,-0.37804466,-1.044565,-0.39903360000000004,1.9016235,-0.44959682000000006,-5.5875845
897,1747666207140,-0.37804466,-1.044565,-0.3990336,1.9016235,-0.44959682000000006,-5.5875845
898,1747666207150,-0.37804466,-1.044565,-0.3990336,1.9016235,-0.44959682,-5.5875845
899,1747666207160,-0.6285078831858406,-1.363565092920354,-0.528688475221239,1.030897272300885,0.09802494088495572,-4.624936517699115
900,1747666207170,-1.38282835,-2.3214725,-0.76243483,-1.49967415,1.5143349,-1.53327175
901,1747666207180,-1.4035547386554623,-2.3469550722689076,-0.685630612184874,-1.3468141235294118,1.023666394537815,-0.7522317894957983
902,1747666207190,-1.3498485967213116,-2.317527732786885,-0.6646598714754098,-1.1381120360655739,0.44449958131147543,0.1465876350819672
903,1747666207200,-1.3235224,-2.3004837,-0.67018116,-1.0751228,0.25961772,0.4642576
904,1747666207210,-1.264028049122807,-2.2481825245614036,-0.6778240485964913,-1.0529441570175437,0.06789713106578947,0.7816610247368421
905,1747666207220,-1.2266316,-2.2153075,-0.68262815,-1.0574077,-0.2779437,1.3432927
906,1747666207230,-1.2266316,-2.2153075,-0.68262815,-1.0574077,-0.2779437,1.3432927
907,1747666207240,-1.2266316,-2.2153075,-0.68262815,-1.0574077,-0.2779437,1.3432927
908,1747666207250,-1.2266316,-2.2153075,-0.68262815,-1.0574077,-0.2779437,1.3432927
909,1747666207260,-1.1776769636363635,-2.149670247107438,-0.6751047278512398,-1.1101894892561983,-0.2749701480991736,1.4978466487603306
910,1747666207270,-0.5091034,-1.2422514,-0.48445365,-1.9963076000000002,-0.10873401,4.0005565
911,1747666207280,-0.44108570434782607,-1.1449468782608696,-0.45612177173913043,-2.0841128782608696,-0.11297288686956523,4.280019321739131
912,1747666207290,-0.32439845735537187,-0.9959049289256198,-0.419072493553719,-2.19907957107438,-0.1352082105785124,4.619665785123967
913,1747666207300,-0.22310588015384614,-0.9142985307692307,-0.41752936261538465,-2.2974641,-0.204029,4.831944
914,1747666207310,-0.010549572580645159,-0.6877532896774193,-0.35319808999999996,-2.421661890322581,-0.29081621016129033,4.9749407169354845
915,1747666207320,0.13432229209302327,-0.549094748372093,-0.2608404469767442,-2.769663,-0.5332854,5.3737817
916,1747666207330,0.17328064,-0.51349646,-0.23014597999999997,-2.769663,-0.5332854,5.3737817
917,1747666207340,0.17328064,-0.51349646,-0.23014598,-2.769663,-0.5332854,5.3737817
918,1747666207350,0.17328064,-0.51349646,-0.23014598,-2.769663,-0.5332854,5.3737817
919,1747666207360,0.17328064,-0.51349646,-0.23014598,-2.769663,-0.5332854,5.3737817
920,1747666207370,0.49829370316666666,-0.13777031946666668,0.19670810074166667,-2.3110610725000003,-1.3433130428333333,5.5927462275
921,1747666207380,0.5444917,-0.060038086000000004,0.27310005,-2.1563544,-1.5008959,5.6285124
922,1747666207390,0.64040625,0.06296677,0.28408262,-1.8942931,-1.4453071,5.6602774
923,1747666207400,0.82296103,0.17254847,0.16180995,-1.9834795,-1.1203269,5.5674257
924,1747666207410,0.82296103,0.17254847,0.16180995,-1.9834795,-1.1203269,5.5674257
925,1747666207420,0.949102255319149,0.22426263361702128,0.06571371234042553,-2.4873004468085105,-1.2936695936170213,5.386661678723405
926,1747666207430,0.9525554000000002,0.23087814,0.060770255,-2.552806,-1.3420709,5.3682837
927,1747666207440,0.9525554,0.23087814,0.060770255,-2.552806,-1.3420709,5.3682837
928,1747666207450,0.9525554,0.23087814,0.060770255,-2.552806,-1.3420709,5.3682837
929,1747666207460,0.9525554,0.23087814,0.060770255,-2.552806,-1.3420709,5.3682837
930,1747666207470,1.0844137979674795,0.3618495869918699,0.46138131170731705,-2.7561594691056914,-1.861048193495935,5.621648766666667
931,1747666207480,1.266180787096774,0.5023544387096774,0.7265052697580645,-2.644415991935484,-1.9850707306451614,5.672637612903226
932,1747666207490,1.26461921,0.5622163665,0.6837080520000001,-2.5685967425,-1.8881386975,5.574099655
933,1747666207500,1.225504480952381,0.7224907942857143,0.5737088542857143,-2.659028519047619,-1.7589330904761906,5.342627490476191
934,1747666207510,1.2445732053097345,0.7844863668141593,0.6140242557522123,-2.8201648221238935,-1.671543546902655,5.229168823008849
935,1747666207520,1.2599809419354837,0.8143225669354839,0.6999660298387096,-2.929680120967742,-1.5796680241935486,5.125011669354839
936,1747666207530,1.2654368,0.81490713,0.8498074,-2.9571986,-1.4874569,5.0231447
937,1747666207540,1.2654368,0.81490713,0.8498074,-2.9571986,-1.4874569,5.0231447
938,1747666207550,1.2654368,0.81490713,0.8498074,-2.9571986,-1.4874569,5.0231447
939,1747666207560,1.2654368,0.81490713,0.8498074,-2.9571986,-1.4874569,5.0231447
940,1747666207570,1.345519593442623,1.015202132704918,0.8822729721311475,-1.9429970820491802,-1.985817775409836,5.006436151639344
941,1747666207580,1.7016636418604651,1.472232769767442,0.5554686423255815,-1.4626907479069768,-2.2246339077519384,4.667971626356589
942,1747666207590,1.766065477952756,1.6167658118110237,0.5554800682677165,-2.2594703385826773,-1.518433051968504,4.118636228346457
943,1747666207600,1.649424058139535,1.702634146511628,0.8338187360465117,-2.7904324286821707,-0.7979178503875969,3.557006770542636
944,1747666207610,1.5387119518867924,1.7217133443396229,1.0532198311320755,-2.730590662264151,-0.6913611320754717,3.3313478641509433
945,1747666207620,1.2578712,1.7620933,1.6012596,-2.3359487,-0.689056,2.9168816
946,1747666207630,1.2578712,1.7620933,1.6012596,-2.3359487,-0.689056,2.9168816
947,1747666207640,1.2578712,1.7620933,1.6012596,-2.3359487,-0.689056,2.9168816000000004
948,1747666207650,1.2578712,1.7620933,1.6012596,-2.3359487,-0.689056,2.9168816
949,1747666207660,1.2578712,1.7620932999999999,1.6012596,-2.3359487,-0.689056,2.9168816
950,1747666207670,1.285884625,1.7875382379032259,1.5791251832258064,-2.363940113709677,-0.6998791506451613,2.871244050806452
951,1747666207680,1.8652421284552847,2.316307671544715,1.847838774796748,-5.035615502439025,0.8863158299186991,1.0134800593495934
952,1747666207690,1.6481429083333334,2.2236340033333333,3.5013349566666667,-4.010829163333334,1.5179186983333333,0.7365915005
953,1747666207700,1.6637381928571429,2.1880081285714286,3.9384565285714284,-3.2359277142857144,1.5955364142857142,0.5557128450000001
954,1747666207710,1.736111525423729,2.092079486440678,4.257764786440678,-1.1887230508474576,1.5515252949152543,-0.07012525169491526
955,1747666207720,1.7191099904,1.9973625416,4.1467199872,0.5153796944,1.4858002208,-0.7219889776
956,1747666207730,1.5192891228346455,1.8664153141732285,3.3330974086614176,2.4779340125984253,1.2203163874015746,-1.6897832393700787
957,1747666207740,1.389662,1.8148096999999999,2.8171527,3.3786957,1.029308,-2.1997259
958,1747666207750,1.389662,1.8148097,2.8171527,3.3786957,1.029308,-2.1997259
959,1747666207760,1.389662,1.8148097,2.8171527,3.3786957,1.029308,-2.1997259
960,1747666207770,1.389662,1.8148097,2.8171527,3.3786957,1.029308,-2.1997259
961,1747666207780,1.2022197641025643,1.4991747871794874,1.3402143076923076,2.3900651145299148,2.72103391965812,-3.002757752991453
962,1747666207790,1.213961454237288,1.4141173,1.2528699677966102,2.183403275423729,2.951550690677966,-3.1194921194915253
963,1747666207800,1.2724991653543307,1.2907764763779526,1.2259457086614172,2.096681995275591,2.8561462047244093,-3.288061449606299
964,1747666207810,1.31380904,1.18704558,1.21945648,2.134272936521739,2.7439323617391302,-3.476285267826087
965,1747666207820,1.346796690909091,1.0742935611570248,1.2088781214876034,2.3287293818181816,2.5135438454545453,-3.916645681818182
966,1747666207830,1.3623276,1.0101529,1.1626887,2.3878722,2.4599543,-4.02438
967,1747666207840,1.3623276,1.0101529,1.1626886999999997,2.3878721999999994,2.4599543,-4.02438
968,1747666207850,1.3623276,1.0101529,1.1626887,2.3878722,2.4599543,-4.02438
969,1747666207860,1.3623276,1.0101529,1.1626887,2.3878722,2.4599543,-4.02438
970,1747666207870,1.3623276,1.0101529,1.1626887,2.3878722,2.4599543,-4.02438
971,1747666207880,1.36425865,1.002381609385965,1.1554825903508772,2.3878722,2.4599543,-4.02438
972,1747666207890,1.1842690219512195,0.38318971186991874,0.7825665713821138,2.8309728894308943,2.056187365853659,-4.933427284552845
973,1747666207900,1.1514524096,0.32001761608,0.7458857884800001,2.9346162144,1.8852913647999998,-4.98886816
974,1747666207910,1.1184512568965517,0.21481245775862068,0.6518474160344827,3.0091433034482757,1.655581718965517,-5.016741529310345
975,1747666207920,1.1479301048,0.17897401744,0.57282968248,2.984467732,1.5360817279999999,-5.051025012
976,1747666207930,1.1624447,0.16888762,0.54888475,2.9680995189655173,1.5316919034482759,-5.059986601724138
977,1747666207940,1.1603353626984128,0.12880993277777777,0.45162019642857143,2.7537806,1.6157386,-5.244889
978,1747666207950,1.1602482,0.12715383,0.447601,2.7537806,1.6157386,-5.244889
979,1747666207960,1.1602482,0.12715383,0.447601,2.7537806,1.6157386,-5.244889
980,1747666207970,1.1602482,0.12715383,0.447601,2.7537806,1.6157386,-5.244889
981,1747666207980,0.927819085483871,0.09771147075806451,0.5069935105645161,3.203140919354839,1.390368720967742,-5.2443274306451615
982,1747666207990,0.6680127006557377,0.06966834121311476,0.47603565344262294,3.872269836065574,0.9317297172131147,-5.204276647540984
983,1747666208000,0.6971495125,0.08157613,0.314589785,3.9061779000000003,0.7307475575,-5.2335880999999995
984,1747666208010,0.7994644241666666,-0.01531052558333333,0.08581256434583333,3.58448095,0.57398424875,-5.5071028124999994
985,1747666208020,0.8313307764705882,-0.10729905176470587,0.03591948291176471,3.4080532000000003,0.5701169529411765,-5.703864370588235
986,1747666208030,0.7504160180327869,-0.1657548837704918,0.1037203268852459,3.3898314655737707,0.6612967101639344,-5.853571131147541
987,1747666208040,0.6882413999999999,-0.19817449000000004,0.13569583,3.4220672,0.7202101300000001,-5.897293
988,1747666208050,0.6882414,-0.19817449,0.13569583,3.4220672,0.72021013,-5.897293
989,1747666208060,0.6882414,-0.19817449,0.13569583,3.4220671999999994,0.72021013,-5.897293
990,1747666208070,0.6882414,-0.19817449,0.13569583,3.4220672,0.72021013,-5.897293
991,1747666208080,0.6882414,-0.19817449,0.13569583,3.4220672,0.72021013,-5.897293
992,1747666208090,0.26314331715447153,-0.6690105438211382,-0.29388063218699184,3.6144995886178863,0.2770795400813008,-5.499550117886179
993,1747666208100,0.15668476,-0.7987994000000002,-0.42270714,3.5059608336,0.13008497848,-5.355680268
994,1747666208110,0.02300189395867769,-1.0402567363636364,-0.6411666164462809,2.6318447074380162,0.37989256429752066,-5.257797918181818
995,1747666208120,-0.110942563696,-1.2009705216,-0.6792191047999999,2.3492850936,0.6002068923199999,-5.1583122416
996,1747666208130,-0.2904978421428572,-1.3517110642857142,-0.6959292399999999,2.1826215,0.73731434,-5.0347514
997,1747666208140,-0.7656075517543859,-1.3977886824561403,-0.6434826108771929,1.8949361096491228,0.6441949013157895,-4.4980419666666664
998,1747666208150,-0.86201024,-1.4194369,-0.6074585,1.4966198,0.46120325,-3.7024543
999,1747666208160,-0.86201024,-1.4194369,-0.6074585,1.4966198,0.46120325,-3.7024543
1000,1747666208170,-0.86201024,-1.4194369,-0.6074585,1.4966198,0.46120325,-3.7024543
