id,timestamp,acc_x,acc_y,acc_z,gyro_x,gyro_y,gyro_z
0,1747666267860,0.5942794,1.0128375,1.7969935999999997,-0.39492437333333336,0.02178752533333333,0.5217807250000001
1,1747666267870,0.5871486869565218,1.0914452217391304,1.8105758608695652,-0.17951470326086957,-0.12119034707826086,0.4610439108695652
2,1747666267880,0.6663533605263158,1.216169344736842,1.8072053605263156,0.29459780947368425,0.012892473157894735,0.46123542421052627
3,1747666267890,0.7485756792134831,1.2904073820224717,1.7892934123595505,0.4636741710112359,0.25175199528089887,0.45091464292134836
4,1747666267900,0.7625296363636364,1.3144963198347106,1.7814545991735538,0.5002986345454545,0.3229255963636363,0.44115577272727274
5,1747666267910,0.8087955141666667,1.4251601083333334,1.7474296208333333,0.6605489625,0.64296114125,0.3843106058333333
6,1747666267920,0.8474252446280992,1.5353036404958678,1.7401019371900828,0.7726233876033057,0.7697659383471075,0.3288222054545455
7,1747666267930,0.9610855311382115,1.6557082211382115,1.8133552235772357,1.0438147308943089,0.7549102528455284,0.07866752468292683
8,1747666267940,1.0207424894067796,1.736357736440678,1.901578211864407,1.2743062661016948,0.7384636186440677,-0.20845001033898308
9,1747666267950,1.0712177140495869,1.740412533057851,1.9424900165289256,1.5139613892561983,0.7933018966942149,-0.466847455785124
10,1747666267960,1.0877406203703703,1.7327792648148148,1.9741949675925927,1.5897994657407408,0.8095095479629629,-0.5481158115740741
11,1747666267970,1.044575165625,1.6623730166666666,2.153151803125,2.1162662791666667,0.8480082116666666,-1.0439178208333335
12,1747666267980,1.0344716565217391,1.5544239104347823,2.2785057808695655,2.6999499973913044,0.8556416182608695,-1.3999650565217392
13,1747666267990,1.0582707263157896,1.4069900105263158,2.390926063157895,3.2109005736842104,0.8752412789473684,-1.5747462894736843
14,1747666268000,1.0617730818965518,1.2400275198275863,2.443069751724138,3.643058093103448,0.9375939025862069,-1.7213339560344827
15,1747666268010,1.0372982058558557,1.098075082882883,2.447617045045045,4.137104118918918,1.0259509657657657,-1.8847338621621619
16,1747666268020,0.967354787815126,0.994471724369748,2.4320980907563023,4.565103705882353,1.1323285647058825,-1.9373053
17,1747666268030,0.9602403487804878,0.9348285878048781,2.4550076707317072,4.844608447154472,1.1499960203252033,-1.9018320886178863
18,1747666268040,0.9881236508771929,0.8601305719298246,2.445303885964912,5.391828947368421,0.9609339105263157,-1.8720876473684211
19,1747666268050,1.0775476476190475,0.7141347733333333,2.3854619333333336,5.918266200000001,0.69211032,-1.9175060333333334
20,1747666268060,1.1741145043859649,0.6612260221052632,2.3545551017543858,6.283831598245613,0.45856689666666667,-2.0473846298245615
21,1747666268070,1.3049386653225805,0.5875442358064517,2.320541628225807,6.721281386290322,0.18392955516129034,-2.2727833903225805
22,1747666268080,1.3083274803149607,0.5362937144881891,2.2509073527559056,7.014329948031496,-0.026878077716535435,-2.465279034645669
23,1747666268090,1.2382520193548388,0.44865594580645163,2.045286393548387,7.5220715645161285,-0.4395421814516129,-2.817541946774194
24,1747666268100,1.2282920897637795,0.4248978941732283,1.8843277086614174,7.530578543307087,-0.4892164876377953,-2.8550062362204724
25,1747666268110,1.2307807,0.41904628,1.836775,7.516697,-0.49296826,-2.8600712
26,1747666268120,1.2307807,0.41904628,1.836775,7.516697,-0.49296826,-2.8600712
27,1747666268130,1.3342302511811024,0.35832984212598423,1.6700319236220473,7.40876105511811,-0.4573985777165354,-2.8821488456692914
28,1747666268140,1.492306468141593,0.17114676946902654,1.2993521460176989,6.7584726539823015,-0.14606706955752213,-3.6625642424778757
29,1747666268150,1.3236793476190476,0.0851449865079365,1.184746873015873,6.61652413015873,-0.4081355657936508,-3.9484196626984125
30,1747666268160,1.116961968852459,-0.023797582622950824,1.020547413114754,6.485295857377049,-0.605707966885246,-3.9604697401639344
31,1747666268170,0.8473182859504133,-0.1387011653719008,0.8757459958677686,6.309839041322314,-0.9268895917355372,-3.8939326867768593
32,1747666268180,0.7208521476190477,-0.17751096793650792,0.7927250611111112,6.239716888888889,-1.1645805999999999,-3.7773870111111107
33,1747666268190,0.6519106235772358,-0.21446481203252032,0.6513610386178862,6.157248445528456,-1.3496596040650406,-3.674279873170732
34,1747666268200,0.71126479796875,-0.277142258359375,0.48920324843749996,5.83131965,-1.6037504125000002,-3.688327975
35,1747666268210,0.7687627704000001,-0.3184048792,0.39725297552,5.6750750736,-1.6437553352,-3.7738815056
36,1747666268220,0.8030743180645161,-0.3450260838709677,0.3715889793548387,5.527108800000001,-1.5937277,-3.9368688193548387
37,1747666268230,0.7725036206201551,-0.3897840188372093,0.4297015748837209,5.46771750620155,-1.439032746511628,-4.198557349612403
38,1747666268240,0.6487676640650407,-0.4416582901626016,0.4446107934959349,5.495274264227643,-1.352520205691057,-4.425256906504065
39,1747666268250,0.4365078203125,-0.501985712734375,0.3546609521875,5.4509225125,-1.371965134375,-4.57879759375
40,1747666268260,0.34758047984,-0.5069088524,0.28770055184,5.3295746896,-1.4806591288,-4.5622248976
41,1747666268270,0.22827421264462808,-0.4993249933884298,0.18936221305785125,5.01369922644628,-1.765496497520661,-4.453475371900826
42,1747666268280,0.16765207624999998,-0.5054425674999999,0.053982413124999996,4.5004732375000005,-1.84229325,-4.1370468125
43,1747666268290,0.1540522711965812,-0.5107867794871794,-0.0063413154700854716,4.223313313675214,-1.7747149179487178,-3.975098538461539
44,1747666268300,0.1461345638582677,-0.5226572133858267,-0.08147668559055118,3.667635,-1.564426,-3.6792414
45,1747666268310,0.1659807550406504,-0.5490573626016261,-0.10518271707317074,3.431582707317073,-1.3714819268292682,-3.563474944715447
46,1747666268320,0.19891451806451613,-0.6228577040322582,-0.11341576370967743,3.0545134193548384,-0.9195985225806452,-3.359079072580645
47,1747666268330,0.24970486078124998,-0.85438340390625,-0.015318406531250002,2.98298869375,-0.395019840625,-3.15229376875
48,1747666268340,0.19326913033057852,-1.0615461752066115,0.08264665550413224,3.0888679396694214,-0.33738442016528924,-3.116725320661157
49,1747666268350,0.06369894103225807,-1.2075243838709677,0.014667051661290325,3.889058942741936,-0.785597310483871,-3.1434977806451614
50,1747666268360,-0.16137974986440679,-1.4802258152542374,-0.44563615030084747,4.333773047457627,-1.2466568813559322,-3.0827417694915256
51,1747666268370,-0.3591020723076923,-1.7107099,-0.8584431953846154,4.1954430085470085,-1.49637442991453,-2.8844221094017093
52,1747666268380,-0.482077901875,-1.8528903078124999,-1.1395795753125,3.63231455859375,-1.4935416039062501,-2.6182400710937497
53,1747666268390,-0.5058419345454546,-1.8865403818181818,-1.1906443818181818,3.1718715696969695,-1.3233377181818182,-2.421969593939394
54,1747666268400,-0.6667644,-2.2240937,-1.4902135,0.68600166,0.013439035,-1.5467108
55,1747666268410,-0.6667644,-2.2240937,-1.4902135,0.68600166,0.013439035,-1.5467108
56,1747666268420,-0.8533630780555556,-2.2556720652777775,-1.395105713888889,-0.33309973033333334,0.7741783816666667,-1.1078974534722221
57,1747666268430,-1.0796318492682928,-2.261029663414634,-1.2521803146341464,-1.124141096585366,1.4043941536585365,-0.5287113256097561
58,1747666268440,-1.259776312605042,-2.1852209478991598,-1.1497310848739497,-1.6718303764705882,1.599891994117647,0.609212355882353
59,1747666268450,-1.2623231032258062,-2.0676196653225807,-1.0393807161290323,-1.7695977032258063,1.3761217548387097,1.251859922580645
60,1747666268460,-1.2044878428571428,-1.9745320785714284,-0.9612935535714285,-1.7813867142857143,1.0224466080357142,1.8347774133928572
61,1747666268470,-1.0618045508064515,-1.8519576274193548,-0.8878408903225806,-1.7624743233870968,0.5332311806451613,2.4809996846774194
62,1747666268480,-0.96046294,-1.7766880200000001,-0.8587398119999999,-1.78531476,0.347582336,2.75830098
63,1747666268490,-0.6219838458064516,-1.5213977483870966,-0.79761058,-1.9538426838709677,-0.1268826251612903,3.6016024032258067
64,1747666268500,-0.43369166913385826,-1.3772919188976378,-0.788777688976378,-2.2894940637795274,-0.15630454511811026,3.9694984551181105
65,1747666268510,-0.20757711473684212,-1.2244609,-0.7470720936842105,-2.763476288721805,-0.0969484522556391,4.225396133834587
66,1747666268520,-0.03523210584,-1.059911356,-0.661190124,-3.311573976,0.0341840164,4.39429574
67,1747666268530,0.16018290471428573,-0.7861955523809524,-0.40132310476190475,-4.316005412698412,0.39445411603174607,4.751804455555556
68,1747666268540,0.2732830875,-0.718626575,-0.2865842375,-4.5974023375,0.539266751,4.865602765833333
69,1747666268550,0.39200750495934955,-0.6514205642276424,-0.15218457926829268,-5.013609492682926,0.8094709634146342,5.013773295121951
70,1747666268560,0.47138101127272725,-0.5651301009090909,0.00493883072727273,-5.313939107272727,1.10910365,5.045891434545455
71,1747666268570,0.5492947464,-0.46103390159999996,0.1953434212,-5.596645055999999,1.3909841496,5.020124528
72,1747666268580,0.587642599032258,-0.4079456306451613,0.28294106258064516,-5.622088672580645,1.3764419774193548,4.941249385483871
73,1747666268590,0.6446424749593496,-0.31099244081300814,0.4187288330894309,-5.55197543902439,1.1302645926829267,4.735978453658536
74,1747666268600,0.66353306,-0.23286966720000002,0.4812711444,-5.364960684,0.5437922456,4.498435848
75,1747666268610,0.67454373515625,-0.19986763734375002,0.49982543203125,-5.246645325,0.04646393875,4.34733698125
76,1747666268620,0.7069019887096775,-0.20251831241935483,0.4967017713709677,-5.2275483887096765,-0.2223943570967742,4.287269054838709
77,1747666268630,0.7912449488372093,-0.22875163472868218,0.5017854713178295,-5.2880283255813945,-0.49726797689922486,4.200721729457364
78,1747666268640,0.7614859759999999,-0.23925030304,0.59975991872,-5.543797768,-0.5157412786399999,4.180639584000001
79,1747666268650,0.744169628,-0.23552501039999998,0.6243960216,-5.5948123336,-0.49724428375999996,4.2105964448
80,1747666268660,0.6952765899082569,-0.21499204073394496,0.6935792981651376,-5.734253865137614,-0.37929687366972475,4.411248517431193
81,1747666268670,0.7265190870967743,-0.18946715612903225,0.8439972516129033,-5.794283266129033,-0.2327692110483871,4.719298709677419
82,1747666268680,0.920156903125,-0.17457720062499998,0.91030303375,-5.73911695625,-0.254005396875,4.8144964
83,1747666268690,1.067994615,-0.1628716035,0.9490470835,-5.6941497325,-0.290390057,4.84799466
84,1747666268700,1.2773747242187499,-0.08682908546875,0.90884630625,-5.73797197109375,-0.609863065078125,4.508089921875
85,1747666268710,1.312286104,-0.061041652040000005,0.8862538376,-5.809343252,-0.7244373376000001,4.350723824000001
86,1747666268720,1.2767218128205127,-0.008961280427350428,0.8509942675213675,-6.0870840692307695,-0.8840160038461539,4.066529692307692
87,1747666268730,1.1367475141732284,0.052747113937007865,1.071593794488189,-6.561149640944882,-1.0225595614173228,4.022177149606299
88,1747666268740,1.1209571247706422,0.06841887541284403,1.2847038550458716,-6.6272657990825685,-1.0736433036697246,4.119187511926605
89,1747666268750,1.1592917520325203,0.07865786471544715,1.6618095398373984,-6.4177651,-1.1961834073170732,4.411842650406505
90,1747666268760,1.3034187347457626,0.11631810050847456,1.8737970788135592,-5.181255457627119,-1.4820988813559322,5.001754491525424
91,1747666268770,1.5809730414634147,0.21877648780487804,1.829601936585366,-4.3524496,-1.5598369300813009,5.224397865853659
92,1747666268780,1.7023695592,0.2783170272,1.7831818367999999,-4.17532744,-1.5010718047999998,5.204611052000001
93,1747666268790,1.922683,0.39195594,1.6900965,-3.9419134,-1.3616186000000001,5.126381
94,1747666268800,2.273776734453781,0.7406584035294118,1.4044387033613446,-3.9709680638655462,-0.9828410655462184,4.761175907563025
95,1747666268810,2.3134468446280994,0.8038842694214876,1.3644030314049589,-4.5140163,-0.29604752545454543,3.883547909090909
96,1747666268820,2.151683564516129,1.1267217225806454,1.5725631177419355,-6.030033056451613,0.5165013595161291,2.1696850322580645
97,1747666268830,2.1086547,1.1395032,1.6778935,-6.160576,0.5137377,2.0152445
98,1747666268840,1.9481089704918033,1.1144433786885246,2.32765197295082,-5.396353487704918,-0.10529413250819673,1.3785876590163935
99,1747666268850,1.824816,1.0692148,2.809343,-4.428773,-0.68477994,0.84238315
100,1747666268860,1.808973701754386,1.1930096421052632,2.662234342105263,-3.6664988947368418,-0.6888952284210526,0.6472278008771929
101,1747666268870,1.7845466,1.3096112,2.5389276,-3.0286698,-0.6603453,0.4801401
102,1747666268880,1.6819820112,1.7574602656000002,2.3390564248,-3.4671929543999997,0.22732007823999995,0.07022508048000001
103,1747666268890,1.4836118049999998,2.1174895233333335,2.482420116666667,-3.940416805,1.29729455,-0.4720461085
104,1747666268900,1.3699573786885246,2.1573100360655735,2.774554855737705,-3.830765967213115,1.5754915459016394,-0.6428605737704918
105,1747666268910,1.2847174083333333,2.1756483416666663,3.0084734666666666,-3.6852278125000004,1.7378962850000002,-0.746996591
106,1747666268920,0.9012476307627119,2.359226942372881,3.56526488220339,-0.38223081355932204,1.7052095762711865,-0.47313067381355933
107,1747666268930,0.9070473772440945,2.462112934645669,3.4495319582677166,0.9874227362204725,1.3484056622047245,-0.1926197650393701
108,1747666268940,0.9824739420168067,2.478598212605042,3.3172158050420166,1.6336435756302523,1.125470454957983,-0.10309762873949581
109,1747666268950,1.2797304066666666,2.3271103133333337,2.7998655099999996,3.0112296849999995,0.654755922,-0.246178709
110,1747666268960,1.4344411260869563,2.174645686956522,2.435702052173913,3.955378904347826,0.36973283739130436,-0.6456049182608696
111,1747666268970,1.4697682886178862,2.0754767349593495,2.1549918861788613,4.2322827317073175,0.30056060048780486,-1.0459205268292684
112,1747666268980,1.444366262903226,1.9103265903225806,1.8022486048387096,4.195003791935483,0.28383064943548386,-1.6849092177419354
113,1747666268990,1.4377413,1.8933960999999997,1.7752724,4.1410556,0.29749137,-1.822211
114,1747666269000,1.460798706451613,1.5085591620967742,1.794966229032258,3.745791233870968,0.7387134633870968,-2.372250808870968
115,1747666269010,1.4905563865079365,1.30302353015873,1.8527218,3.535067453968254,1.1446742714285714,-2.734009741269841
116,1747666269020,1.4814049739495798,1.067373068907563,1.9621895,3.62545444789916,1.5633479285714287,-3.0427710151260503
117,1747666269030,1.429779635433071,0.9262991308661417,1.9996148803149607,3.808427397637795,1.6857524228346457,-3.1644021118110235
118,1747666269040,1.3155601416666665,0.69810339425,2.008151895,4.373749535,1.6790394975,-3.2959844675
119,1747666269050,1.2803243,0.6296677,1.9968764,4.551447353125,1.59052129140625,-3.29679194765625
120,1747666269060,1.2579812467741935,0.5850052241935484,1.9720554177419356,4.853137142741935,1.4038372709677418,-3.2882629467741937
121,1747666269070,1.1951483,0.4595598,1.9016942,5.1147747,1.260215,-3.2754595
122,1747666269080,1.175215684,0.40754045967999997,1.8256908343999998,5.4184725256,1.1303303928,-3.2635842624
123,1747666269090,1.1522475120300752,0.30135014984962405,1.5270183736842105,5.684785421052632,1.0558690842105265,-3.3040277639097746
124,1747666269100,1.1708252763779528,0.2637240386614173,1.3570831740157479,5.659349055118111,1.0663302346456693,-3.359008568503937
125,1747666269110,1.1863623,0.24332508,1.2544543,5.639508,1.0726794,-3.3976326
126,1747666269120,1.1534124871794873,0.22254684435897434,1.2131543196581196,5.639508,1.0726794,-3.3976326
127,1747666269130,1.00270434992,0.14286915952,1.0533471024,5.6231804919999995,1.0341607112000002,-3.4880942544
128,1747666269140,0.9868098776377953,0.13161410992125983,0.9593218110236221,5.629007559055118,1.0371049023622048,-3.4290656062992126
129,1747666269150,0.9389773484126984,0.13599218134920632,0.8435722563492063,5.588108,0.9251117928571428,-3.3656056857142858
130,1747666269160,0.8982438495454546,0.14508316163636362,0.6894617569090908,5.490645745454546,0.7846286312727273,-3.3458311563636363
131,1747666269170,0.8905300508403361,0.1438071443697479,0.6545061786554621,5.40675295882353,0.7157851789915967,-3.3629826403361345
132,1747666269180,0.8505179948,0.1345321676,0.57665258208,5.175416655199999,0.5668292136,-3.445983624
133,1747666269190,0.7936942900826447,0.1373094343801653,0.5593973429752066,4.945297314049586,0.37904441752066115,-3.5770046363636365
134,1747666269200,0.7152485491472867,0.15745287519379847,0.5677206930232558,4.806263803100775,0.2150955937984496,-3.667194507751938
135,1747666269210,0.61802718104,0.19624740656,0.5615991976,4.7675100303999995,0.09895039343999999,-3.6652159296
136,1747666269220,0.5327343363492063,0.23687886698412697,0.517149565079365,4.74513333968254,0.04106856642857142,-3.5766354984126982
137,1747666269230,0.48901123023255816,0.26779891627906977,0.4281047811627907,4.681467533333333,0.049072840666666666,-3.4210490666666664
138,1747666269240,0.4715855,0.27718999387096777,0.3635429429032258,4.621343258064516,0.05147032290322581,-3.3380239258064517
139,1747666269250,0.4670350243548387,0.2556814532258065,0.284673089516129,4.481676830645161,0.0006552018709677426,-3.3387234830645163
140,1747666269260,0.47281465482758617,0.23613800068965518,0.23255290448275864,4.340165784482759,-0.07016524503448275,-3.406163510344827
141,1747666269270,0.6039040251282052,0.18297409282051283,0.19232962051282051,3.9856294717948715,-0.21858012594871795,-3.601254297435897
142,1747666269280,0.6555704470866142,0.17010405527559055,0.18137872944881892,3.774623033070866,-0.24084445165354332,-3.7328340047244093
143,1747666269290,0.70874226,0.15790504,0.1701079,3.6352592,-0.2284636,-3.825849
144,1747666269300,0.6806449146218487,0.12521367781512605,0.17733733445378153,3.2846326453781516,-0.06982343660504202,-4.024960374789916
145,1747666269310,0.6089123884615385,0.08642129914529915,0.2043238999145299,2.9611457153846152,0.08918632830769233,-4.1536018384615385
146,1747666269320,0.39521001974358977,-0.015260876752136754,0.3369158004273504,2.696719351282051,0.24838719564102563,-3.9960297512820513
147,1747666269330,0.2640199637007874,-0.12193445897637795,0.441303545511811,2.6984177322834646,0.27826596283464566,-3.743608308661417
148,1747666269340,0.2308821575409836,-0.22070776967213115,0.4797845570491803,2.8863681852459018,0.17739126762295082,-3.4562104180327866
149,1747666269350,0.32189997724409447,-0.34681497425196856,0.46892814330708665,3.175950807874016,-0.03252496850393701,-3.246426476377953
150,1747666269360,0.5585168508333334,-0.5246945961666667,0.322171839,3.87418868,-0.49036190533333335,-3.0290771800000003
151,1747666269370,0.6914377806451613,-0.6199605070967742,0.17177693996774193,4.0700374129032255,-0.4952294522580645,-3.2272109330645162
152,1747666269380,0.87961668828125,-0.939158930078125,-0.2539606543046875,4.162545859375,-0.19163511265625,-3.827051584375
153,1747666269390,0.6971587924369748,-1.2230672228571429,-0.5647751356302521,4.001531993277311,0.15923049478991597,-4.180309981512605
154,1747666269400,0.11798424628571429,-1.7822455,-1.1061719857142858,3.4973779865079364,0.7620446928571429,-4.625166233333333
155,1747666269410,-0.2221056491111111,-2.001445761111111,-1.243485211111111,3.171345681746032,0.8250947056349206,-4.484536273015872
156,1747666269420,-0.6605243805084745,-2.2761854474576273,-1.367506570338983,2.657657316949153,0.666609284237288,-3.8139113322033897
157,1747666269430,-0.7798527056000001,-2.3624643344000003,-1.4119922592,2.4773274376,0.5925637269599999,-3.5128222528
158,1747666269440,-1.0403672975,-2.709914125,-1.7797692125,1.2472646675,0.6708369442500001,-1.8179654875
159,1747666269450,-1.0650659,-2.7297804,-1.8155419,1.2357804,0.6750061,-1.8063285
160,1747666269460,-1.0650659,-2.7297804,-1.8155418999999997,1.2357804,0.6750061,-1.8063285
161,1747666269470,-1.168058,-2.7505252,-1.9404991,0.5882632,0.92485,-1.2156218
162,1747666269480,-1.3535415,-2.4957294,-1.7623373,-0.122783914,1.128879,-0.5626069
163,1747666269490,-1.2068833916666666,-2.264932605555556,-1.479278375,-1.6278285704166666,1.0129927527777778,1.7598009652777777
164,1747666269500,-1.0522056186666666,-2.0307028199999997,-1.2982510626666666,-1.96021774,0.8190888119999999,2.541044722666667
165,1747666269510,-0.9669148016393442,-1.924315463934426,-1.232473091803279,-2.044055278688525,0.7052589280327868,2.7895311770491804
166,1747666269520,-0.852768044262295,-1.791588313114754,-1.1527024819672134,-2.144137,0.54733527,3.095865
167,1747666269530,-0.4046449373983739,-1.3829037430894309,-0.9420688723577236,-2.714948439837398,0.10570948518699187,3.8472541804878047
168,1747666269540,-0.1898176296551724,-1.1451670206896551,-0.7705307620689654,-3.1640713379310346,-0.020432389172413794,4.109269486206896
169,1747666269550,-0.08380187428571427,-1.0026445470588234,-0.6432897621848739,-3.5091179747899157,-0.014527299415966389,4.270918342016807
170,1747666269560,0.04271002,-0.83028275,-0.4876264,-3.758043,-0.0012217305,4.3854017
171,1747666269570,0.21726802193548383,-0.6271877641129032,-0.297108205,-4.0961963,0.1920727702862903,4.541812408870968
172,1747666269580,0.33204469275590554,-0.4808542525984252,-0.15045456488188977,-4.424530508661417,0.4606741644094488,4.667169335433071
173,1747666269590,0.4649329879032258,-0.33916871177419355,0.039820693790322576,-4.708524577419355,0.7566896154838709,4.640792708064516
174,1747666269600,0.538122986031746,-0.2611335079365079,0.16317744222222222,-4.857949442857143,0.9135053285714286,4.561854471428571
175,1747666269610,0.5714120459016393,-0.22394853409836069,0.24035636573770489,-4.8942523,0.9505063,4.4819183
176,1747666269620,0.593547224,-0.1016059176,0.44178268919999997,-4.7857577631999995,0.83313712704,4.0392169936
177,1747666269630,0.5529722439370078,-0.035670792921259846,0.4908702318897638,-4.657929118897638,0.569085905511811,3.7959743535433073
178,1747666269640,0.530106710420168,-0.004056682554621848,0.48634045630252104,-4.598141778991597,0.36464034453781513,3.6794518394957985
179,1747666269650,0.5137405,0.025870068,0.4737151,-4.5912633,0.25045475,3.658472
180,1747666269660,0.5120281506451613,0.08457370803225805,0.42337436806451617,-4.7598422258064526,-0.019941796306451612,3.7393721935483875
181,1747666269670,0.5325390618487396,0.10510868823529411,0.4111400596638655,-4.904457312605042,-0.1468797281092437,3.790634484033614
182,1747666269680,0.6209470118897639,0.0982993405511811,0.44293699228346456,-5.32063151968504,-0.3900639149606299,3.872380557480315
183,1747666269690,0.6692170009016394,0.07057055275409838,0.48677819254098365,-5.414669565573771,-0.37939237540983606,3.837014731147541
184,1747666269700,0.7190646377868852,0.03379992935245901,0.5804801536885246,-5.412877140983607,-0.2989834950819672,3.713710118032787
185,1747666269710,0.7240080127499999,0.034686637374999996,0.63154082,-5.330817499999999,-0.24577145999999997,3.636277133333333
186,1747666269720,0.692073159,0.1515717617,0.70099339,-4.83084456,-0.20215567000000004,3.5550728266666667
187,1747666269730,0.6842585122950819,0.19166896827868854,0.7143155213114754,-4.701930040983606,-0.2661770218032787,3.5894040868852457
188,1747666269740,0.7017236205645161,0.25383923088709676,0.7308924209677419,-4.581972269354839,-0.4432615714516129,3.676009635483871
189,1747666269750,0.7819771209677419,0.2579488414516129,0.6925498337096774,-4.605574225,-0.7919276629032259,3.713178863709677
190,1747666269760,0.8397343995867768,0.22413532330578514,0.6417495165289256,-4.735397079338844,-1.0417069454545453,3.6661405578512394
191,1747666269770,0.9295446102439024,0.13995789764227642,0.5507716983739838,-5.070891663414634,-1.0132268097560975,3.5069524829268293
192,1747666269780,0.92820883453125,0.10145154335937501,0.49992265,-5.3865335,-0.8833111625,3.441843875
193,1747666269790,0.8408406982113822,0.12077460325203253,0.641572955691057,-5.7622372601626015,-0.7104263357723577,3.678526199186992
194,1747666269800,0.81246656,0.1381364,0.75169635,-5.996253,-0.6432411,4.0408735
195,1747666269810,0.8371506267768595,0.1706948447107438,0.9541287014876033,-5.888129719008265,-1.0090130789256198,4.502410214876034
196,1747666269820,0.91796244125,0.19600413383928572,1.0483239098214285,-5.700877776785714,-1.32571944375,4.827875424107143
197,1747666269830,1.693753256198347,0.2773135714049587,1.1790224049586777,-5.333070694214876,-1.9553543652892564,5.1028451099173555
198,1747666269840,1.9334334308943089,0.33009833121951226,1.2021168227642274,-5.266001211382113,-2.165696056910569,4.967466756097561
199,1747666269850,2.126715,0.39317623,1.2144289,-5.304143,-2.221717,4.719545
200,1747666269860,2.336065183333333,0.4988021670833333,1.2460648375,-5.42387268,-2.16270742,4.2230945
201,1747666269870,2.52054981300813,0.6817292975609756,1.3602778032520326,-5.4751854,-2.1374176,4.01033
202,1747666269880,2.3679760267716534,0.7785349590551182,1.4949198031496063,-5.815624739370079,-1.5825642763779528,2.66945707480315
203,1747666269890,1.5444449919999998,0.8509124192,1.9933210568,-5.679829857600001,0.07537100960000001,1.6959965176
204,1747666269900,1.4586325199999999,0.8476433526666667,2.0649033666666665,-5.4364409574999994,0.331394405,1.7792672375
205,1747666269910,1.413833392,0.9131060244,2.1645925999999998,-4.79402146,0.5696440496,2.0859581560000002
206,1747666269920,1.639729379674797,1.0706553609756098,2.216291817886179,-4.285437910569106,0.1855540480487805,1.889480699186992
207,1747666269930,1.7323906632000001,1.1563373632,2.266715968,-4.234370993600001,0.14134933672,1.838039768
208,1747666269940,1.693640338842975,1.5773540950413223,2.6204405586776858,-2.928467761157025,-0.6659188444628099,0.6026766214876034
209,1747666269950,1.6275123536,1.6552411240000002,2.7270702624,-2.5730621,-0.7771427672,0.46215620960000003
210,1747666269960,1.5880805,1.692781,2.78811,-2.320677,-0.84971356,0.37507126
211,1747666269970,1.519080031092437,1.7752109050420168,2.9567823100840336,-1.4520626332773108,-0.9107898205042017,0.27971982075630253
212,1747666269980,1.5041917725806453,1.7975131467741936,2.9910121903225804,-0.3439368506451613,-0.8279785793548387,0.23526194129032257
213,1747666269990,1.4669507723577235,1.8776653723577237,2.741100275609756,1.4024174293495935,-0.5410478175609756,0.0999186836097561
214,1747666270000,1.4495134890756303,1.930736893277311,2.5218210151260503,2.2821925428571426,-0.2382374457142857,-0.13281955171428572
215,1747666270010,1.4681683487394956,1.9860251260504203,2.104040026890756,2.4123427294117645,0.024003410588235304,-0.35070851705882355
216,1747666270020,1.4625910655737706,1.9722387114754099,1.7656301524590163,2.3140475950819672,0.5428489009836066,-0.7700106970491803
217,1747666270030,1.3750186109375,1.8442605453125,1.602922284375,2.0274809171875,1.1552130109375,-1.3803073343749999
218,1747666270040,1.3465849032520327,1.7610675146341463,1.6087459666666668,2.00463623902439,1.2659363170731706,-1.6343774219512195
219,1747666270050,1.3335288,1.7162106,1.6195638,2.0011945,1.2962561,-1.7171422
220,1747666270060,1.27165416,1.6006839916666666,1.699594325,2.0653047975,1.2591663666666666,-1.8324022866666667
221,1747666270070,1.1598908784,1.363657232,1.7927313136,2.6003360991999998,0.9151005827199999,-2.3229934223999997
222,1747666270080,1.058691451111111,1.1164155281481483,1.8107963311111113,3.1570376644444447,0.5800414448888889,-2.5403666948148147
223,1747666270090,0.9869674999999999,0.9618296,1.820911,3.479519796581197,0.4100994258119658,-2.627456639316239
224,1747666270100,0.971748674796748,0.9121748845528455,1.8353560081300813,3.5909589252032523,0.35630329731707316,-2.6450762650406507
225,1747666270110,0.9599841223140496,0.764395373553719,1.8540545652892562,4.276273925619834,-0.0002372823966942161,-2.7159977487603304
226,1747666270120,0.9786128553571428,0.6658535435714287,1.8100463053571427,4.691728611607142,-0.15647422714285716,-2.7675358848214286
227,1747666270130,1.0165866100840337,0.6013139779831933,1.7315821453781515,4.9158688403361355,-0.18026684050420166,-2.830713502521008
228,1747666270140,1.0690513983050847,0.5594991745762712,1.6576098618644068,5.028725677966102,-0.15073876330508473,-2.8954080457627116
229,1747666270150,1.1399678,0.5149450451612904,1.5470788548387098,5.1770437096774184,0.00017734806451612912,-3.103648741935484
230,1747666270160,1.1830837500000002,0.47809186333333337,1.4179808066666666,5.246131093333333,0.138055549,-3.330702016666667
231,1747666270170,1.1818328029411764,0.4718774932352941,1.3831083882352941,5.24876969117647,0.16331662441176473,-3.424115238235294
232,1747666270180,1.1074187915789475,0.4560839007368421,1.3170638957894736,5.2416097684210525,0.10545463326315789,-3.5843707210526317
233,1747666270190,1.095092305050505,0.449718624040404,1.3187152232323232,5.277709263636364,0.03159839454545454,-3.6096026545454545
234,1747666270200,1.0797093,0.43930307,1.3235224,5.3750033,-0.14477506,-3.648698
235,1747666270210,1.108378375,0.4233249115625,1.2609370500000001,5.51795845625,-0.23360504520833336,-3.6724836708333335
236,1747666270220,1.1368667125984253,0.4028846837795276,1.1369205691338582,5.667270918110236,-0.2457361728346457,-3.7496784755905512
237,1747666270230,1.1568294112000002,0.38750238192,0.92868471544,5.683905456000001,-0.12747535391999998,-3.8830651264
238,1747666270240,1.1667655495652174,0.3983502370434783,0.7495040573043478,5.50366739826087,-0.007728771478260868,-4.023822313043478
239,1747666270250,1.1692783,0.40196228,0.7089863,5.4464746,0.02076942,-4.0591993
240,1747666270260,1.150725545045045,0.39757584261261264,0.6278933571171171,5.247893832432432,0.06239630828828829,-4.180547001801802
241,1747666270270,0.9526634668032787,0.3230397813114754,0.5118740436065574,4.892550049180328,-0.13825583213114756,-4.441821491803278
242,1747666270280,0.8754160206299213,0.29799390220472444,0.4564946782677165,4.82072246456693,-0.22150839346456694,-4.463366220472441
243,1747666270290,0.84150934,0.28725538,0.4300289,4.795903,-0.24984388,-4.464814
244,1747666270300,0.80280383272,0.27038419032,0.39294585536,4.7417021408,-0.25687615832,-4.447279736
245,1747666270310,0.65968674,0.2042759,0.24991462,4.5020766,-0.24923302,-4.362189
246,1747666270320,0.5368910642857142,0.0794232025,0.0889065707142857,3.92642853015873,0.007184936825396824,-4.236961528571428
247,1747666270330,0.4970308572033898,0.035464826779661014,0.05450956372881356,3.693198094915254,0.15975679118644068,-4.230821542372881
248,1747666270340,0.4520229762711864,0.00894325021186441,0.05196557849152542,3.5578759186440676,0.25542449966101693,-4.242935247457627
249,1747666270350,0.3171325290697674,-0.030200665697674416,0.05150743190697674,3.1872675302325586,0.3661924118604651,-4.290177648837209
250,1747666270360,0.23246845677419353,-0.017414665612903227,0.04309185087096774,3.035537108870968,0.32605425467741933,-4.2756625427419355
251,1747666270370,0.16486655887096777,0.008608922604838708,0.04826625588709677,2.8720420306451615,0.16373158814516128,-4.18168795483871
252,1747666270380,0.1287157813076923,0.044566731192307696,0.11797163953846154,2.598150983076923,-0.2859977006153846,-3.904208950769231
253,1747666270390,0.14783320414634146,0.03857295063414635,0.13274333170731706,2.5718520479674796,-0.32810912772357725,-3.8685897398373985
254,1747666270400,0.17938207,0.025626011,0.14643435,2.5283713,-0.39522982,-3.8056905
255,1747666270410,0.2121264283333333,-0.014440052333333333,0.13524839166666666,2.4855344125,-0.38716639375,-3.7487424825
256,1747666270420,0.2186753,-0.022453264999999997,0.1330112,2.4764478,-0.38545597,-3.7366626
257,1747666270430,0.13495751018487395,-0.21337372525210085,0.05583578790756303,2.3338389025210082,0.08034160228571428,-3.2037417361344542
258,1747666270440,0.14337056425,-0.26607906125,0.05094695141071428,2.3606450999999997,0.14992378,-3.048217542857143
259,1747666270450,0.19694436096774193,-0.3280286864516129,0.05524944447580645,2.545692170967742,0.1273949635483871,-2.8385725774193546
260,1747666270460,0.23407756394957982,-0.36644067899159666,0.053241397621848735,2.7071698596638654,0.08063934559663866,-2.7286529151260503
261,1747666270470,0.34948999999999997,-0.45126185,0.026358182,3.1178563,-0.045814894,-2.6120598
262,1747666270480,0.4700542488976378,-0.6783330964566929,-0.17716826261417323,3.7703661881889765,-0.24648653377952756,-2.6524923181102364
263,1747666270490,0.37081898803278684,-1.0666502475409836,-0.7441265803278688,4.719474745081967,-0.604746540819672,-2.807231315573771
264,1747666270500,0.13861270822580643,-1.3748650838709677,-1.2528875806451611,4.298496157258064,-0.5954753748387097,-2.871662708870968
265,1747666270510,-0.10200412612903226,-1.7224577548387097,-1.7406241806451614,3.4670395790322583,-0.3765836546774194,-2.8236851088709676
266,1747666270520,-0.256064057704918,-1.91228468852459,-1.933053362295082,2.7052869049180326,-0.08381371790983606,-2.682504573770492
267,1747666270530,-0.434444652,-2.046156452,-2.0310248559999997,1.9496294453333334,0.17115629482666667,-2.4602963946666665
268,1747666270540,-0.5215503,-2.1032853,-2.067653,1.6022996,0.28221974,-2.3487768
269,1747666270550,-0.5215503,-2.1032853,-2.067653,1.6022996,0.28221974,-2.3487768
270,1747666270560,-1.0509876473684212,-2.176040010526316,-1.7330119631578946,-0.7421048268421052,0.2671731715789474,-0.7728088378947369
271,1747666270570,-1.1108057585365854,-2.1563232487804878,-1.5621508682926828,-1.0813655707317074,0.05685516570731707,-0.2903993734146342
272,1747666270580,-1.1541077,-2.106048084,-1.440406352,-1.2104906000000002,-0.1732413796,0.11911873399999999
273,1747666270590,-1.2428518063492064,-1.9468601166666666,-1.1600215182539682,-1.3950611150793653,-0.7824602107936508,1.1475248666666669
274,1747666270600,-1.24537259765625,-1.8761023921875,-1.080033353125,-1.41184797421875,-0.926658714453125,1.4062881265625
275,1747666270610,-1.239293831496063,-1.8234036007874015,-1.0242563267716533,-1.4321807133858266,-1.1130493629921259,1.7567185968503936
276,1747666270620,-1.0698760838709678,-1.6155960290322582,-0.8011060741935484,-1.4891071540322582,-1.4642784903225805,2.762056802419355
277,1747666270630,-0.802389647265625,-1.4173452671875,-0.605614707265625,-1.54452979453125,-1.60270038125,3.610514365625
278,1747666270640,-0.5550306033057851,-1.2558398611570247,-0.5249711895867768,-1.6582113603305784,-1.4707009595041323,4.025627183471074
279,1747666270650,-0.5279669811023623,-1.2367859716535432,-0.517499392047244,-1.6835446,-1.4391985,4.0958514
280,1747666270660,-0.2070885718032787,-0.9519352327868852,-0.43625032213114756,-1.877899886885246,-1.2211346045901639,4.3166692295081965
281,1747666270670,-0.15253578,-0.8964222,-0.42148685,-2.470339,-0.61269784,4.728708
282,1747666270680,0.0114153961484375,-0.73388963796875,-0.341792616640625,-3.2376526601562503,0.041276356875,5.048118953125
283,1747666270690,0.08151512000000001,-0.6250306400000001,-0.2774931,-3.6215622880733944,0.3528895729357798,5.188229633027523
284,1747666270700,0.1405750572440945,-0.5139250021259842,-0.16750975377952756,-4.108333359055118,0.6541693453543307,5.445762480314961
285,1747666270710,0.19576320343999998,-0.42138729360000005,-0.0722038500024,-4.557641208,0.907183768,5.708315735999999
286,1747666270720,0.30605591299999996,-0.3267804545,0.054766445434166665,-4.930354545,1.0309572625,6.037120035
287,1747666270730,0.4715961447286822,-0.22140722062015505,0.22312319240310077,-5.230583453488372,1.1426636798449612,6.357321848062015
288,1747666270740,0.6072373606837607,-0.13822193148717948,0.37851194145299144,-5.270477556410256,1.1654630145299145,6.410090888888889
289,1747666270750,0.8327483039370078,0.043984114157480304,0.6962876716535432,-5.141595137795275,1.2144963165354332,6.40005457480315
290,1747666270760,0.8902496166666667,0.13049944625,0.7895455833333334,-4.834667520833333,1.1634947041666668,6.230851075
291,1747666270770,0.9753818694214876,0.2215737290909091,0.8400995165289256,-4.443443775206611,1.0625319165289258,5.987590198347108
292,1747666270780,0.9972298414634146,0.2795645980487805,0.8072878121951219,-4.127000586178862,0.9055803756097561,5.701508382113821
293,1747666270790,0.9819910902439025,0.39883121951219513,0.6724134512195122,-3.658114393495935,0.5655320999186992,5.165729660162602
294,1747666270800,0.9634150972932332,0.4326694615037594,0.6418669147368421,-3.6054046992481203,0.42905706398496246,5.0488653909774435
295,1747666270810,0.9142907278571428,0.469217505,0.6273666178571429,-3.52333975,0.17924532357142858,4.903415214285714
296,1747666270820,0.888784703697479,0.4815065170588236,0.5664712472268908,-3.4983739025210085,-0.04348949243697479,4.84498281512605
297,1747666270830,0.9036864900813009,0.46540726796747967,0.4978410742276423,-3.5610761918699185,-0.15716121959349594,4.824122260162603
298,1747666270840,1.0231890037931035,0.3483748860344828,0.3929447729310345,-3.91075915,-0.068111478,4.7620000000000005
299,1747666270850,1.0328503,0.3385074,0.38561043,-4.0909643,0.010995574,4.713436
300,1747666270860,1.1293682454545455,0.24211587863636366,0.4046025276363636,-4.695143478181818,0.4228409304363636,4.345328610909091
301,1747666270870,1.0385957483333332,0.25728108808333333,0.5791112245833333,-5.249032716666666,0.7096014426666667,3.8400616999999997
302,1747666270880,0.94264666,0.3250647244,0.727661544,-5.407510952000001,0.7651404976,3.6556521224
303,1747666270890,0.8788501254545454,0.4161175963636363,0.9381116818181818,-5.314694045454546,0.6696749,3.707840927272727
304,1747666270900,0.8893543984,0.4499341728,1.052511536,-5.097963668,0.508655244,3.82968528
305,1747666270910,1.029209028,0.4700249472,1.1945528319999998,-4.405960712,0.14489235168,4.0773497472
306,1747666270920,1.1241276,0.44808912,1.1363305,-4.1502185,0.07269296,4.076915
307,1747666270930,1.2825709032786885,0.3953007209836066,0.9974560090163934,-3.9257706327868855,0.10613032729508197,3.9059724991803275
308,1747666270940,1.3560061819672131,0.3807372887704918,0.8621202651639345,-3.9847739606557377,0.16649583213114752,3.1834590409836063
309,1747666270950,1.2928830169491525,0.42011766398305084,0.8658551542372881,-4.10720923898305,0.1250927805,2.7653455372881357
310,1747666270960,1.1782164098360655,0.493727837704918,0.9071927704918032,-4.188442467213115,0.028470325409836066,2.6421925147540986
311,1747666270970,1.0690317291666667,0.5557488374999999,0.9919807875,-4.24177175,-0.1255837125,2.66075075
312,1747666270980,1.1550875120967743,0.5641009072580645,1.1826147943548388,-4.270623018548386,-0.5209892588709678,3.0102207548387097
313,1747666270990,1.2849530598290597,0.5477124128205128,1.276135682905983,-4.232246629059829,-0.5833972222222222,3.192721123076923
314,1747666271000,1.3668217926829267,0.5407534926829268,1.3356538560975608,-4.175084987804878,-0.5101022804878049,3.237079173170732
315,1747666271010,1.4823048421487603,0.5469363758677686,1.4204232140495867,-4.038788438842975,-0.3357234388429752,3.2229906685950414
316,1747666271020,1.7070256951219511,0.6858901509756098,1.596497468292683,-3.6283904788617884,-0.1297418203902439,2.9027670105691055
317,1747666271030,1.96721963671875,0.9595300812499999,1.8522229335937501,-3.1336623125,-0.09880745437499999,2.4428501249999997
318,1747666271040,2.0258315897435897,1.0597528051282052,1.9203550897435897,-2.7662327615384616,-0.18246075384615384,2.098243863247863
319,1747666271050,2.060165909677419,1.1729312290322582,1.9236513290322583,-2.3685412467741935,-0.28838751677419355,1.6872787903225805
320,1747666271060,2.0275093935483874,1.2769744532258063,1.8351964096774194,-2.0444279741935483,-0.313965046516129,1.2236419161290322
321,1747666271070,1.8518856440677967,1.4103406559322034,1.6994699254237287,-1.9255611525423728,0.06855150962711865,0.49406576
322,1747666271080,1.72228905703125,1.49515760234375,1.7099680617187498,-2.0314372109375,0.44556892,0.24131086265624999
323,1747666271090,1.627040343902439,1.5680796926829268,1.7728675219512193,-2.0923674715447156,0.759086962601626,0.10711000536585366
324,1747666271100,1.5590377,1.6290822,1.8533708,-2.0964894,0.9969321,0.039095376
325,1747666271110,1.5000490908333333,1.7685933775,2.0451020866666667,-1.508837085,1.5422057249999999,-0.1208138843
326,1747666271120,1.4616766346774193,1.837375125,2.0101795048387094,-0.6435366841935484,1.8164472443548387,-0.3379808939516129
327,1747666271130,1.345537648031496,1.8486702173228347,1.8621432913385827,-0.05353488031496062,1.788507637007874,-0.5420875945669291
328,1747666271140,1.1555413714285714,1.8267162035714286,1.6727422035714283,0.51522668125,1.5406021375,-0.747851783125
329,1747666271150,1.042534428,1.789857228,1.636159776,1.150063868,1.055526284,-0.9211114775999999
330,1747666271160,0.9187141556451613,1.727336835483871,1.649165645967742,1.6873034596774192,0.41865452016129034,-0.8634137177419354
331,1747666271170,0.9226331872727273,1.6263047305785123,1.7191089677685951,2.5185772793388432,-0.3607083626446281,-0.6885814289256199
332,1747666271180,0.9868126999999999,1.5843244341463414,1.720079751219512,2.7839513739837396,-0.5573822597560976,-0.6867317154471545
333,1747666271190,1.3358907220338982,1.3887622305084744,1.6720776305084746,3.8900105423728815,-1.3068685576271186,-0.875649429661017
334,1747666271200,1.377215,1.3691611,1.6593453,3.979787,-1.3573426,-0.9242391
335,1747666271210,1.4774192322033899,1.3123474830508475,1.612533822881356,4.221079,-1.4129313,-1.2082914
336,1747666271220,1.6454241435483872,1.184878277419355,1.477107335483871,4.326162516129033,-1.1278444274193549,-1.935068414516129
337,1747666271230,1.7035196,1.11961265,1.40747825,4.24743683984375,-0.8032209835937499,-2.4670174796875
338,1747666271240,1.738360304878049,1.078709248780488,1.3996564097560975,4.180359280487805,-0.5715463834146342,-2.8173253951219515
339,1747666271250,1.7643214483870966,1.0269869882258065,1.3824602709677418,4.136464088709678,-0.41988117032258065,-3.0861602532258066
340,1747666271260,1.768196810483871,0.9812931488709677,1.3516186161290322,4.089939983870968,-0.30813224032258063,-3.3144957806451614
341,1747666271270,1.6821756760330577,0.8896188863636363,1.3012002876033055,3.932750514049587,-0.13977707778512397,-3.7388587520661156
342,1747666271280,1.5092805578125,0.74625078046875,1.3654049890625,3.820876078125,-0.072272993890625,-4.1798646484375
343,1747666271290,1.4290260612903225,0.6730311283870969,1.459297029032258,3.934592808870968,-0.12674961572580645,-4.241035512903227
344,1747666271300,1.3657597401574801,0.6064937470866143,1.541771142519685,4.044846560629922,-0.15394285669291338,-4.261020840944882
345,1747666271310,1.4490061702479338,0.5327971355371901,1.5723479479338844,4.925053153719008,-0.19818791107438016,-4.299633206611571
346,1747666271320,1.6097509056,0.49631091584000003,1.5534185703999999,5.2777830568,-0.12932750256,-4.410065912
347,1747666271330,1.77555272421875,0.470391749375,1.5359323374999998,5.65437398984375,0.005688687109375001,-4.65509376171875
348,1747666271340,1.735837522580645,0.4104806538709677,1.3704050612903225,6.352584895161291,0.18995446129032256,-5.434257342741936
349,1747666271350,1.5775384479674797,0.39887286406504063,1.2516009699186992,6.514346586991869,0.2018040526829268,-5.623327432520325
350,1747666271360,1.333695788596491,0.38272671701754385,1.0747360850877192,6.506336496491228,0.1809875839473684,-5.5669648657894735
351,1747666271370,1.1270383663934427,0.35555139360655735,0.8764335868852459,6.398718394262295,0.18031540352459016,-5.39266822704918
352,1747666271380,0.9206377528346457,0.328306962992126,0.638240422992126,6.064006595275591,0.189627962992126,-4.928379160629921
353,1747666271390,0.8486558966666666,0.33037633589743587,0.5243913958974359,5.760584625641026,0.11515592974358975,-4.657158384615384
354,1747666271400,0.7886209845901638,0.3290691826229508,0.43078503508196725,5.474599239344262,-0.011185841557377047,-4.471198204918033
355,1747666271410,0.74583894,0.32166746,0.3743838,5.255503272,-0.11358672623999999,-4.345035712
356,1747666271420,0.6982416714999999,0.268389751,0.4397728575,4.969373450000001,-0.3061656595,-4.175294825
357,1747666271430,0.6586840031007751,0.22041018139534885,0.4919021051162791,4.679677806201551,-1.0154521913178294,-3.826369927131783
358,1747666271440,0.6628816363636363,0.18603818181818182,0.49681182181818184,4.667787881818182,-1.1584226636363637,-3.7645959272727274
359,1747666271450,0.6828160063492064,0.143372011984127,0.443014263968254,4.633393515873016,-1.3053317523809524,-3.7062746746031747
360,1747666271460,0.6682160209565218,0.031960888672173914,0.3086602486956522,4.4367091304347825,-1.3505646730434782,-3.7755828495652173
361,1747666271470,0.6314120965573771,-0.0254139603,0.23561125344262296,4.309754475409836,-1.3431525344262294,-3.8390678163934426
362,1747666271480,0.5492813096875,-0.08133207320312501,0.14854314925,4.162979609375,-1.2954256703125,-3.90231703125
363,1747666271490,0.475691949,-0.11399100133333334,0.08521665396666668,3.9486632116666667,-1.2182536683333334,-3.8938943200000002
364,1747666271500,0.3376768187096774,-0.16023145322580645,-0.028830246758064518,3.459078622580645,-1.1246669637096773,-3.694660711290323
365,1747666271510,0.3666553486178862,-0.17387391252032522,-0.04616253544715448,3.168448804878049,-1.1128921788617887,-3.586747393495935
366,1747666271520,0.4872169165289256,-0.2225459038016529,-0.04846653953719009,2.8086523834710744,-1.0801056991735536,-3.578792008264463
367,1747666271530,0.5135936536585366,-0.2433171214634146,-0.04788879105691057,2.6917851560975605,-1.0501965674796747,-3.6153191951219514
368,1747666271540,0.4167049383739837,-0.4023015786178862,-0.0672923409593496,2.1797460219512197,-0.7575176365853659,-3.9092496292682926
369,1747666271550,0.35934761179687497,-0.43962528046875,-0.063468234453125,2.08967935234375,-0.7018937365625,-3.92898511953125
370,1747666271560,0.23914921,-0.5245059305084746,0.003507805847457627,1.90956988220339,-0.5638286133898305,-3.8745680491525425
371,1747666271570,0.057151063463414635,-0.7857036170731707,0.16731017292682926,2.2291367,-0.4346827697560975,-3.471701169918699
372,1747666271580,0.013942010448818896,-0.9739479141732282,0.14530437157480314,2.66871631023622,-0.36756291803149604,-3.136908483464567
373,1747666271590,0.008242572149579831,-1.1037458042016806,0.07890431319327731,2.8869131705882354,-0.37485567294117644,-3.0199740235294117
374,1747666271600,-0.0101912964703125,-1.34802919375,-0.091664466640625,3.348457803125,-0.438983040625,-2.8177828953125
375,1747666271610,-0.06946373993103448,-1.5782340655172413,-0.3326752586206897,3.713491982758621,-0.5814172896551724,-2.742869068965517
376,1747666271620,-0.1637624,-1.7681948,-0.63284045,3.8368447,-0.7098254,-2.769663
377,1747666271630,-0.6576875295833333,-2.0808015825,-1.2715687029166667,2.6340611116666666,-0.7827118013333333,-2.7528540466666667
378,1747666271640,-0.9894196797619048,-2.2562744119047617,-1.5223884119047617,1.0793989,-0.42210788,-2.3628268
379,1747666271650,-1.080643177952756,-2.2781611070866137,-1.4524211692913387,0.5944825240944881,-0.1013314735433071,-2.0429883527559056
380,1747666271660,-1.204540570967742,-2.296035635483871,-1.323577519354839,-0.6203829003225807,0.7154069600806452,-1.1945716806451612
381,1747666271670,-1.28825615,-2.220799,-1.13645255,-1.0951940857142857,1.0794861928571429,-0.5843362628571428
382,1747666271680,-1.28825615,-2.220799,-1.13645255,-1.0951940857142857,1.0794861928571429,-0.5843362628571428
383,1747666271690,-1.3752626,-1.9126767,-0.9298581,-1.4404203,1.1148291,1.0079277
384,1747666271700,-1.3752626,-1.9126767,-0.9298581,-1.4404203,1.1148291,1.0079277
385,1747666271710,-1.1812371,-1.6774054999999999,-0.8546885,-1.6022996,0.77091193,1.8753563
386,1747666271720,-1.126236931707317,-1.6246137081300813,-0.8333404231707316,-1.6022996,0.77091193,1.8753563
387,1747666271730,-0.890206460625,-1.3745685640625,-0.75237507421875,-1.82353299296875,0.747804041875,2.469904740625
388,1747666271740,-0.7302893095081967,-1.1966187090163933,-0.7114588360655738,-2.012545624590164,0.8531484135245903,2.822723135245902
389,1747666271750,-0.5686380236220472,-1.027750048031496,-0.7134600248818898,-2.3241594763779525,1.0915055401574802,3.1291739913385825
390,1747666271760,-0.43432070325203254,-0.8812629341463414,-0.7339079261788618,-2.715146961788618,1.3616335284552845,3.3801358918699185
391,1747666271770,-0.3665860829752066,-0.7907192512396694,-0.7272159785123967,-3.194249650413223,1.6135677685950414,3.6098248842975207
392,1747666271780,-0.21549869551181103,-0.5480065214173229,-0.5694816410236221,-4.029036232283464,1.9122150929133859,3.9944769212598423
393,1747666271790,-0.1368761043934426,-0.4587155950819672,-0.44290787098360657,-4.36753626557377,1.9075619655737706,4.19117668852459
394,1747666271800,-0.052128225540983605,-0.3912917832786886,-0.3255443473770492,-4.583061565573771,1.8468359573770492,4.34328193442623
395,1747666271810,0.020988923,-0.34656128,-0.2421048,-4.704273,1.7666223,4.442212
396,1747666271820,0.06156988974796748,-0.3228301900813008,-0.1930314331707317,-4.742042621951219,1.6273152146341465,4.5043911300813
397,1747666271830,0.39441763196850393,-0.11355964746456693,0.2818015741732284,-4.19914554015748,0.935354961023622,4.456925618897638
398,1747666271840,0.41952812666666667,-0.026489598384615384,0.43223788076923075,-3.5173620888888886,0.4474248722222222,4.384179777777779
399,1747666271850,0.39044721057851245,0.13994162359504134,0.544314202892562,-2.4917748214876037,-0.19562833198347107,4.583690634710743
400,1747666271860,0.38401052504273503,0.2558408318803419,0.5037550189743589,-1.8654466957264957,-0.5627739685470086,4.906025958119658
401,1747666271870,0.4003759250847458,0.29784498601694914,0.4280826190677966,-1.6426528593220338,-0.6360918857627118,5.239810431355932
402,1747666271880,0.4540960732258064,0.3505921825806452,0.2664081648387097,-1.6351236717741937,-0.5858049711290323,5.456336956451613
403,1747666271890,0.7675642046153847,0.3844402287179487,-0.033648612564102565,-2.0651735897435897,-0.2319826016239316,5.683234299145299
404,1747666271900,0.9514237491935484,0.38542936524193544,-0.111262553,-2.993791443548387,0.48315500499999997,5.5426067258064515
405,1747666271910,1.0503285230769233,0.38820121384615386,-0.09208467923076923,-3.2861103547008548,0.7375701982905982,5.3040227333333325
406,1747666271920,1.1156360826446283,0.405278252892562,-0.02470020762809917,-3.521537072727273,0.950238776033058,5.048432792561984
407,1747666271930,1.0250846645669291,0.5141267984251968,0.25673092674015746,-3.9605520173228346,1.0858057448818899,3.9393545196850392
408,1747666271940,0.9303934838709679,0.5435233561290322,0.33450014096774194,-3.959815714516129,0.9036322692741936,3.724598060483871
409,1747666271950,0.8554368666666666,0.5426694228333333,0.36252670333333337,-3.933972175,0.68920873875,3.640146
410,1747666271960,0.8124909625,0.5112999570833333,0.3101642036666667,-3.9648055825,0.55158079125,3.6232861575
411,1747666271970,0.7931189391666666,0.4687404181666667,0.234115988,-4.061805975,0.5445965428333334,3.6480567133333333
412,1747666271980,0.9159039168,0.35086451584,0.16057991224,-4.5401559248000005,0.65359162592,3.768975104
413,1747666271990,0.9826018879310345,0.3359279827586207,0.2090539774137931,-4.92842939224138,0.7641134284482759,3.7610920818965514
414,1747666272000,1.0690707740157481,0.318938642519685,0.2812711858267717,-5.2468708645669295,0.8463032763779528,3.7398805622047244
415,1747666272010,1.2038397612068965,0.32474129318965517,0.5641214856034483,-5.429833482758621,0.7042644627586206,3.429903
416,1747666272020,1.2231263290322583,0.3248520041129032,0.6852851904838709,-5.379634122580645,0.5360047141935484,3.2515962258064515
417,1747666272030,1.1704833125,0.30586474812500003,0.8537427625,-5.191362040625,-0.03055280578124998,3.0664385249999997
418,1747666272040,1.1364368403225806,0.2949313891935484,0.9277284483870968,-5.040066917741936,-0.7735327144354838,3.054843508870968
419,1747666272050,1.0892503890625,0.284130316171875,1.033605328125,-4.9569614375,-1.24082003125,3.3536979296875002
420,1747666272060,1.0222202555555555,0.30867818999999996,1.1939821999999998,-4.763783936507936,-1.5694534198412697,3.789357185714286
421,1747666272070,1.0641794789473684,0.3591752042105263,1.3456417105263159,-4.45655132631579,-1.5688628000000002,4.196579810526316
422,1747666272080,1.133306899206349,0.3803458,1.3995133285714287,-4.312446861904762,-1.4959218095238096,4.294964333333334
423,1747666272090,1.3252308,0.4300289,1.5216968999999998,-3.9480221,-1.2767084,4.492303
424,1747666272100,1.765761859375,0.6104710890624999,1.6717655203125001,-2.80651543671875,-0.36463882210937504,4.1833576171875
425,1747666272110,1.8392597603305785,0.7150756512396693,1.5571901669421488,-2.019823449586777,0.30380196495867773,3.575964633884298
426,1747666272120,1.8055734301724138,0.8170426439655172,1.3183088901724138,-1.611720546551724,0.7027214653448276,3.1524016896551728
427,1747666272130,1.5525457599999999,0.9533364,0.936154772,-1.39081796,1.1541688399999999,2.7022235599999997
428,1747666272140,1.4548293546218487,1.0443045025210085,0.781785118487395,-1.4733710058823528,1.121512688235294,2.714721094117647
429,1747666272150,1.4600079788617886,1.0573472390243903,0.776272696504065,-1.5383820975609754,1.0271326581300813,2.7498123674796746
430,1747666272160,1.5173038733333333,1.1240301533333332,0.7809506233333333,-1.66265306,0.7161784,2.78982158
431,1747666272170,1.7316240795081967,1.306838570491803,0.803936595,-1.6920567098360657,0.3824617213114754,2.670332262295082
432,1747666272180,1.888615668253968,1.4031741904761905,0.8155037760317461,-1.6230980619047617,0.27739100063492067,2.3991392317460316
433,1747666272190,2.024450962096774,1.4873459096774193,0.822559572983871,-1.5177439709677418,0.2798156964516129,2.0191461193548386
434,1747666272200,2.0896182,1.5309712,0.8251576,-1.4624114,0.28955013,1.8154916
435,1747666272210,2.11851836460177,1.659578492920354,0.8135464501769911,-1.3263290309734512,0.3702167805309735,1.1346578433628318
436,1747666272220,1.8989606199999998,1.87147984,0.8013863800000001,-1.1988842,0.6631553280000001,0.29614747999999996
437,1747666272230,1.8045441078125,1.9519775656249998,0.8223585390625,-1.1228180484375,0.8816121837500001,0.004304691656249997
438,1747666272240,1.7915083950000001,1.9674228,0.8391684904166666,-1.037249175,0.9983065750000001,-0.1239547425
439,1747666272250,1.7659439555555556,2.009458888888889,0.9140486444444443,-0.8308640142857143,1.1371692714285715,-0.33641220285714285
440,1747666272260,1.7411043917355373,2.01785732231405,0.9334060325619835,-0.5806047157024793,1.1693222330578514,-0.547183797107438
441,1747666272270,1.6787044870967742,2.0200147258064516,0.9507761619354839,-0.09400920814516128,1.1101096330645162,-0.9388358221774193
442,1747666272280,1.6072198945312501,2.00171751875,0.967217904296875,0.17937484296874998,0.9639644646875,-1.13785105625
443,1747666272290,1.5349891439024392,1.9642818211382116,1.007654861788618,0.545299006504065,0.6944395585365855,-1.3435956528455284
444,1747666272300,1.4647339959999999,1.898247896,1.073188172,1.093986288,0.2634539608,-1.58531746
445,1747666272310,1.4851702770491801,1.771931724590164,1.1450126754098362,1.6118831090163934,-0.11721101983606558,-1.7904110442622951
446,1747666272320,1.5234507347457626,1.6891202686440676,1.1330524059322036,1.8250686720338982,-0.25526919237288137,-1.9026278949152544
447,1747666272330,1.5792944,1.5792944,1.1009423,2.0140228,-0.36713,-2.0152445
448,1747666272340,1.5954143520661157,1.5264569933884298,1.0785535694214876,2.0140228,-0.36713,-2.0152445
449,1747666272350,1.6205482785123966,1.4446009966942148,1.0691442289256199,2.094051188429752,-0.3195128077685951,-2.3035123115702483
450,1747666272360,1.64629142,1.2955428782608698,1.1318589930434784,2.1917633382608694,-0.1585275011304348,-2.901248688695652
451,1747666272370,1.5616851610169493,1.1554124847457625,1.3209743559322034,2.4259374940677967,-0.11600227381355932,-3.1758832627118645
452,1747666272380,1.454713559322034,0.9919458788135592,1.4447816016949153,2.952700047457627,-0.15844704669491527,-3.364857940677966
453,1747666272390,1.4326378267326734,0.9379096445544555,1.42946741980198,3.217227621782178,-0.18504378049504952,-3.4097893603960396
454,1747666272400,1.4165041277310926,0.8742971882352941,1.380791831092437,3.519220207563025,-0.2303526642857143,-3.4654436537815125
455,1747666272410,1.4285767064220185,0.8256075928440366,1.2833313853211008,3.7468511660550456,-0.2719078879816514,-3.552237333944954
456,1747666272420,1.4104394901785715,0.7715564785714285,1.1505686651785714,3.861540861607143,-0.256476135625,-3.714584261607143
457,1747666272430,1.3884913101694913,0.7425689898305085,1.0989711788135592,3.8663523898305083,-0.24912948355932202,-3.777880654237288
458,1747666272440,1.383785475,0.70930662609375,1.099310125,3.8463749492187502,-0.274860730859375,-3.8091360757812502
459,1747666272450,1.4030440536000002,0.69307767816,1.1308246096,3.91559728,-0.32859663488,-3.8251305776
460,1747666272460,1.4541612872881358,0.659386841101695,1.1843849881355932,4.1258512457627115,-0.4314779273728813,-3.883969234745763
461,1747666272470,1.479559243103448,0.6134210241379311,1.076103151724138,4.284587655172414,-0.45143994103448276,-4.008023770689655
462,1747666272480,1.4821750031249998,0.5938751375,1.0274429140624999,4.3029346,-0.45020768,-4.0317106
463,1747666272490,1.4322933272727272,0.5075563694214876,0.8958797024793388,4.0602850776859505,-0.43471897768595047,-4.199304850413223
464,1747666272500,1.4248062,0.4995851800000001,0.88739216,4.0048327,-0.4343252,-4.2284093
465,1747666272510,1.5055644169491527,0.5211490941525424,1.1260366589830508,3.9865844228813563,-0.7786564508474577,-4.219287475423729
466,1747666272520,1.572496636585366,0.5451822195121951,1.1808798585365854,4.106132003252033,-0.9471340991869919,-4.230961962601626
467,1747666272530,1.7376554333333334,0.5662071217054263,1.1371478403100777,4.278954759689923,-0.8901300844961241,-4.342636434108527
468,1747666272540,1.7947343477876108,0.5185525336283185,0.9882547690265486,4.402057053982301,-0.5377560702654867,-4.598982649557522
469,1747666272550,1.7714828999999999,0.40030876744186045,0.7633845914728682,4.297323455813953,-0.04999150325581395,-4.9193402395348835
470,1747666272560,1.6863388317460317,0.2875343161111111,0.6498721365079365,4.143547028571429,0.3807823746031746,-5.205357261904762
471,1747666272570,1.4016324412698413,0.11392824568253969,0.6251739460317459,3.9358048666666665,0.7464773333333333,-5.486588133333334
472,1747666272580,1.2506143008064516,0.026307009870967745,0.611678286532258,3.816853629032258,0.9270964004032258,-5.65953354032258
473,1747666272590,1.10516934,-0.11527312608000001,0.49212677839999996,3.811970152,1.0115928976,-5.829022919999999
474,1747666272600,1.0806855,-0.13911264,0.47127452,3.8111882,1.0311406,-5.871637
475,1747666272610,0.8383653703361345,-0.26652692352941176,0.3309621248739496,3.7711483764705878,1.059769106722689,-5.9786921403361335
476,1747666272620,0.5452239,-0.36803833,0.1666911,3.6890151999999996,1.0842859,-5.9357777
477,1747666272630,0.43832680625,-0.391282881640625,0.084569649625,3.68761689140625,1.08459133125,-5.93370171015625
478,1747666272640,0.2976307785365853,-0.43446555024390243,-0.023042574837398373,3.2426068341463417,1.1333933780487806,-5.290331365853658
479,1747666272650,0.28495928016,-0.47488074136,-0.002741251616,2.6629912528,1.0848868928,-4.438483284
480,1747666272660,0.28717205707317073,-0.4947338012195122,0.018226909658536586,2.6123181056910565,1.0831684406504065,-4.210714096747967
481,1747666272670,0.2762968124590164,-0.5389704163934427,-0.01615178816393443,2.654670036065574,1.098866444262295,-4.06124238852459
482,1747666272680,0.21119341109375,-0.6992621343750001,-0.116972062765625,2.7092063343749997,1.09165437890625,-3.98083687109375
483,1747666272690,0.1275199161,-0.858703181,-0.18848541075,2.8841186866666666,0.8579805966666666,-3.93001173
484,1747666272700,0.10433736217322834,-0.9276769366929134,-0.21021015622047245,2.9541442,0.7519751,-3.9205332
485,1747666272710,0.08911290578688524,-1.0882392860655736,-0.26627845860655736,3.3452883983606556,0.13685384240983606,-3.987377867213115
486,1747666272720,-0.2936408697377049,-1.7678586901639344,-0.8656030183606558,3.920107547540984,-0.5433195585737705,-3.913102595901639
487,1747666272730,-0.366127814765625,-1.8297048125,-0.9666077759375,3.97881350234375,-0.62621799140625,-3.81142684453125
488,1747666272740,-0.613804,-1.9839413,-1.313028,3.766307664705882,-0.5271048282352941,-3.322208611764706
489,1747666272750,-0.89813066,-2.080588,-1.9002297,2.5827382,0.2180789,-2.007914
490,1747666272760,-0.89813066,-2.080588,-1.9002297,2.5827382,0.2180789,-2.007914
491,1747666272770,-0.8233528983098591,-2.032673842253521,-2.071121421126761,0.6280038752112677,1.2625552092957746,-0.7630137084507043
492,1747666272780,-0.7535595625806452,-2.0028492956989252,-2.0793678967741935,-0.14777684215053763,1.5801047881720431,-0.3769695413978495
493,1747666272790,-0.7067898,-1.9880903,-2.0515454,-0.4288274,1.6652187,-0.26939157
494,1747666272800,-0.68527956688,-1.9362056672,-1.9079771184,-0.9345944975999999,1.6317725528,-0.051464175120000004
495,1747666272810,-0.7549265035294118,-1.6945325352941176,-1.4692533411764706,-1.3542163529411761,1.1347720411764706,0.3497023705882353
496,1747666272820,-0.7817050330508475,-1.609398302542373,-1.3401100966101696,-1.305320633898305,0.8300416347457628,0.535485493220339
497,1747666272830,-0.781202471484375,-1.466606721875,-1.15911365234375,-1.0066486414062499,-0.446461371171875,1.3352607664062501
498,1747666272840,-0.6823564632173914,-1.3137579634782608,-1.0024322608695653,-0.693417064,-1.1515818963478262,1.9010764
499,1747666272850,-0.512857262063492,-1.1331210087301586,-0.8607802376984127,-0.36968984285714285,-1.758361065079365,2.5003005904761904
500,1747666272860,-0.44081378694214873,-1.055628285123967,-0.8149394449586778,-0.3213656109090909,-1.8334994404958675,2.676856962809917
501,1747666272870,-0.34431099889830513,-0.9411116347457628,-0.7491626555932203,-0.3335117140677966,-1.8536913262711865,2.880286570338983
502,1747666272880,-0.2408454444,-0.7533656879999999,-0.640913844,-0.5273770743999999,-1.6648961648,3.18857968
503,1747666272890,-0.19152341804878048,-0.6453270585365853,-0.5787609394308942,-0.683185727804878,-1.4893044073170734,3.3827035048780485
504,1747666272900,-0.16791138,-0.592571,-0.54961693,-0.80573124,-1.3432927,3.5216382
505,1747666272910,-0.0974324118699187,-0.48445561235772355,-0.4893962752032521,-1.202446057723577,-0.8480796190243902,3.8996940113821137
506,1747666272920,0.0025192987903225783,-0.3792137768548387,-0.416277024516129,-1.7687356919354837,-0.1806732445967742,4.292549903225806
507,1747666272930,0.0943147762890625,-0.283356184375,-0.34097656375,-2.2287036609374997,0.31799353359375,4.5455915312499995
508,1747666272940,0.12803491398305084,-0.23523188991525423,-0.2970838410169492,-2.5076949423728814,0.5781166372881357,4.656594888135593
509,1747666272950,0.1581491,-0.18938842,-0.25406358,-2.705522,0.75441855,4.7317624
510,1747666272960,0.2142408237735849,-0.11979987316037735,-0.17277410660377357,-2.98881945754717,0.965386066981132,4.833281060377359
511,1747666272970,0.2949825183471075,-0.03873450538347107,-0.07328776826446282,-3.323167414876033,1.1725432479338844,4.951860132231405
512,1747666272980,0.38766091,0.019509205788976376,-0.008096165433070866,-3.5100317,1.2425,5.007262
513,1747666272990,0.50169382144,0.09312053344,0.053204482319999996,-3.7320592192,1.264437324,4.9001115232000005
514,1747666273000,0.47094455232,0.16893252928000002,0.16035928359999999,-4.006405988,1.1625205535999998,4.5311295176
515,1747666273010,0.4554108,0.19402552,0.19817449000000004,-4.025173696581196,1.0744859076923077,4.375491930769231
516,1747666273020,0.4535493815079365,0.19972406126984127,0.2070767666666667,-3.9542567396825397,1.004601880952381,4.350078023809525
517,1747666273030,0.42094492283464563,0.30712969999999995,0.38611777307086614,-3.593345137007874,0.7152366157480314,4.435814960629922
518,1747666273040,0.45685514065573773,0.3455210429508197,0.38789096803278694,-3.340341324590164,0.5172927032786885,4.593746901639345
519,1747666273050,0.5545096634920635,0.36145266063492065,0.3131215680952381,-3.154057221428571,0.38772975515873015,4.789421084920636
520,1747666273060,0.695345317768595,0.32202648809917356,0.18614710471074383,-3.2920892140495868,0.5263790425619834,4.835069063636364
521,1747666273070,0.8056148438016529,0.32845869132231403,0.08180153287603306,-3.5475671851239667,0.7528081132231406,4.743747314049587
522,1747666273080,0.8335756325396826,0.40012989873015875,0.06683682031746033,-3.8822232857142853,0.9781988809523811,4.527849571428572
523,1747666273090,0.7419645687499999,0.5010190275,0.19747281,-4.466117226666666,1.1732684833333333,4.09579047
524,1747666273100,0.7284718736,0.5190512039999999,0.24899694960000002,-4.604970856,1.1106996,4.013115788
525,1747666273110,0.7674358540178571,0.4965083266964286,0.41776063526785717,-4.779104253571428,0.8068657017857143,3.913595482142857
526,1747666273120,0.7873287,0.48006064,0.47932845,-4.81484,0.67073005,3.8869355
527,1747666273130,0.7873287,0.48006064,0.47932845,-4.81484,0.67073005,3.8869355
528,1747666273140,0.8793567359663864,0.4435176512605042,0.6358204076470588,-4.798577479831932,0.22545034512605044,3.885231242857143
529,1747666273150,1.0060320032786885,0.41648567278688525,0.7598982014754099,-4.766947089344262,-0.24537755442622952,4.023153430327869
530,1747666273160,1.0509802386554623,0.4190175575630252,0.780679683697479,-4.771602000000001,-0.06419731630252101,4.137200574789916
531,1747666273170,1.2079431233333333,0.5076675604166667,0.9232767416666667,-4.600960925,0.5640576885,3.9656456275
532,1747666273180,1.2573484592920354,0.5443837345132744,0.9945052327433628,-4.49664407079646,0.6964890814159292,3.841326132743363
533,1747666273190,1.362369846456693,0.5697391023622047,1.070734846456693,-4.116341653543307,0.83972808503937,3.363597188976378
534,1747666273200,1.3786794,0.5693855,1.0736078,-4.0591993,0.85154617,3.286455
535,1747666273210,1.3254133613445378,0.5118926077310924,0.9725845088235294,-3.716360517647059,0.7595313537815127,2.5020835235294117
536,1747666273220,1.1671518319672132,0.5112919180327868,0.8288484176229508,-3.6726621852459016,0.6404671803278689,2.2365879754098357
537,1747666273230,1.1100094936,0.5077366743999999,0.7595686488,-3.7949930656,0.5498422512000001,2.291819824
538,1747666273240,1.2196485322580644,0.5058834161290322,0.8300229870967742,-4.062514875,0.38677128145161294,2.5171491370967747
539,1747666273250,1.356338158196721,0.5251351299180327,0.9660226094262296,-4.288914772131148,0.22127341967213116,2.7025479409836066
540,1747666273260,1.4391898951612903,0.5868887556451614,1.1315124048387097,-4.268391419354838,0.17822486008064517,2.676471560483871
541,1747666273270,1.5100925746031748,0.6508445071428571,1.2771128388888888,-4.08160773015873,0.24253289746031748,2.5421303285714285
542,1747666273280,1.552591103125,0.714946645546875,1.3580622234375002,-3.6942075,0.3592651375,2.256230825
543,1747666273290,1.5838376547008548,0.8017593408547009,1.3639003034188033,-3.184456182905983,0.4963254051282051,1.881887899145299
544,1747666273300,1.5921084715447156,0.9001386793495935,1.2864396268292684,-2.8140723983739835,0.5841560347967479,1.666932125203252
545,1747666273310,1.5922150277310922,0.9917706978151261,1.2181799453781512,-2.600001574789916,0.5549376947058824,1.5663713974789915
546,1747666273320,1.6232166851239669,1.1414658462809917,1.1691532752066116,-2.5578593272727272,0.2206334181818182,1.3470689454545455
547,1747666273330,1.6305465,1.1744035,1.159272,-2.5546384,0.18753563,1.3255776
548,1747666273340,1.6305464999999997,1.1744035,1.159272,-2.5546384,0.18753563,1.3255776
549,1747666273350,1.6277278016393442,1.323902505737705,1.3749585147540984,-2.526508662295082,-0.11460733811475408,0.6875138172131148
550,1747666273360,1.582332935,1.4207792049999999,1.5102262000000002,-2.2161936366666666,0.13328062233333332,0.23256657958333332
551,1747666273370,1.5243180341463414,1.4868622211382114,1.5852430658536585,-1.9075284837398374,0.511065761788618,0.12023119235772357
552,1747666273380,1.5521584390625,1.563228659375,1.63118706875,-1.3304454781250001,1.0027162625,0.09403507109374999
553,1747666273390,1.5584644444444444,1.6272924587301585,1.5911641238095238,-0.7476796928571429,1.1212480190476188,-0.15503371746031747
554,1747666273400,1.533647679338843,1.6828796983471075,1.5093851371900826,-0.21598377836363636,1.1544494876033058,-0.4879500509090909
555,1747666273410,1.4606160363636362,1.7105750272727271,1.4542927545454545,0.13708623398347106,1.0282376645454545,-0.7882584689256198
556,1747666273420,1.3581246966101697,1.7178652355932202,1.4246407745762713,0.42609402881355934,0.8048615567796611,-1.0018811152542373
557,1747666273430,1.2928583666666666,1.6808765484126984,1.4126808142857141,0.6277658476190476,0.6262241452380952,-1.078438938095238
558,1747666273440,1.2369541647540985,1.6027479770491804,1.4265185221311476,1.2307232524590164,0.14508549901639342,-1.200230013114754
559,1747666273450,1.256978175609756,1.5271177788617885,1.503281443902439,1.6991589073170734,-0.10977695853658537,-1.2367935658536584
560,1747666273460,1.261776,1.5143752,1.518036,1.844813,-0.18570304,-1.2486086
561,1747666273470,1.2795173870967742,1.375622780645161,1.514520831451613,2.715660637903226,-0.612180597016129,-1.3952359322580647
562,1747666273480,1.2910938412698412,1.301828503174603,1.4834303253968255,3.0829205571428573,-0.7711737500000001,-1.5096371190476192
563,1747666273490,1.3061701438016529,1.2461583727272727,1.4157963479338844,3.6159738628099176,-0.976808841322314,-1.7309043132231403
564,1747666273500,1.3344391952380952,1.1572342730158731,1.314352823809524,3.831123738095238,-0.945280013015873,-2.0120253476190477
565,1747666273510,1.323592242857143,1.1055560190476192,1.252292538095238,3.888884522222222,-0.8292059250793651,-2.218410574603175
566,1747666273520,1.349469318548387,1.0260698467741936,1.1471360129032258,3.8226764548387098,-0.5395319483870968,-2.470733238709678
567,1747666273530,1.366898792063492,1.0046868777777778,1.1264907761904763,3.7931628714285712,-0.44800664285714287,-2.561212636507937
568,1747666273540,1.3886857000000001,0.9859913,1.1133891,3.7592647,-0.3555236,-2.6584857
569,1747666273550,1.379606025203252,0.9322431347967479,1.166772169918699,3.761678324390244,-0.3397006956097561,-2.8172510121951215
570,1747666273560,1.351935345967742,0.8948397941935483,1.2263739008064516,3.7843150379032258,-0.3362419168548387,-3.045788920967742
571,1747666273570,1.3441810705882353,0.8787926764705882,1.2306802176470588,3.910235630252101,-0.4089563031932773,-3.1886293042016804
572,1747666273580,1.3089769929133859,0.7778776889763779,1.183177977952756,4.135985843307087,-0.4410976145669291,-3.3912640007874013
573,1747666273590,1.2981190168,0.7456553864,1.1391108592,4.24026026,-0.41917572999999997,-3.4897509
574,1747666273600,1.2428049121951221,0.7049385236585365,1.0245522634146342,4.291720603252033,-0.39576619398373986,-3.6469698723577237
575,1747666273610,1.227818913559322,0.6860345875423729,1.0100061220338983,4.287445659322034,-0.40921759016949155,-3.6807220220338985
576,1747666273620,1.2121175294117648,0.6645822294117648,1.0196568470588236,4.303437852941176,-0.44025417647058823,-3.701555935294118
577,1747666273630,1.175031014285714,0.6358039595238096,1.0623231142857144,4.362402047619048,-0.5019130565079365,-3.722331573015873
578,1747666273640,1.1304034344537814,0.6035535466386555,1.0804906605042017,4.531254470588236,-0.5981705260504201,-3.760856033613445
579,1747666273650,1.104103006557377,0.5659887616393442,1.0413522229508196,4.714111852459017,-0.6684768344262295,-3.803151860655738
580,1747666273660,1.119588215,0.5554620775,1.011763693,4.789259625,-0.6714630629999999,-3.8313619950000004
581,1747666273670,1.1829001919354838,0.5212177262096774,0.8639646212903226,4.744245362903226,-0.4842929827419355,-3.945223870967742
582,1747666273680,1.2079320627906978,0.476127335503876,0.740772396744186,4.623932596899225,-0.2962838558914728,-4.0568316976744185
583,1747666273690,1.2044226,0.45687518,0.7089863,4.5442266,-0.21991148999999996,-4.105625
584,1747666273700,1.1563640790697676,0.418113583875969,0.6925323209302326,4.361999446511628,-0.18178213294573642,-4.172034489922481
585,1747666273710,1.0976853362068966,0.3840514161206897,0.7264406344827586,4.2044538922413786,-0.24315596577586207,-4.204343439655172
586,1747666273720,1.063026288888889,0.32933006722222224,0.7041535777777778,4.194627506349207,-0.3693262224603175,-4.21888246031746
587,1747666273730,1.0506607748031498,0.27959736196850393,0.6570693598425197,4.192964751968504,-0.40764914062992125,-4.2413766834645665
588,1747666273740,1.0472497,0.24234885,0.6160005,4.189314,-0.4166101,-4.2626176
589,1747666273750,1.0389338902439025,0.22242147731707315,0.5900212971544715,4.182803026016261,-0.4053960053658537,-4.27836105203252
590,1747666273760,1.0282133,0.174745,0.53082454,4.169155,-0.3885103,-4.320039
591,1747666273770,0.8417765974137931,0.020046358362068965,0.3521198998275862,4.00629645,-0.2666742779310345,-4.446193175862069
592,1747666273780,0.6582553328571429,-0.08067641738095238,0.2687399453174603,3.8290391444444443,-0.25656340388888893,-4.565199805555555
593,1747666273790,0.526019638125,-0.146800441875,0.182852264375,3.6672658354166665,-0.4804836858333333,-4.504112979166667
594,1747666273800,0.4983649,-0.16132185,0.16058967,3.6144896,-0.5534439,-4.477642
595,1747666273810,0.4554108,-0.2277054,0.11617125,3.4623842,-0.6414085,-4.334089
596,1747666273820,0.44995543176470587,-0.3550602205882353,0.0461411734117647,3.2117498029411764,-0.7037167785294118,-4.094252382352941
597,1747666273830,0.45589894,-0.38219365,0.032703668,3.1655037,-0.7104363,-4.0549235
598,1747666273840,0.44604020153225804,-0.4219415229032258,-0.0007931889032258076,3.0362564129032257,-0.5845635708064516,-4.0223752282258065
599,1747666273850,0.4146746615789474,-0.547071454122807,-0.13863736394736842,2.7325180263157893,-0.24811846666666665,-3.9700775684210523
600,1747666273860,0.4001238564754099,-0.6774248930327869,-0.39905759942622954,2.369285849180328,0.40713666967213114,-4.135477831147541
601,1747666273870,0.4010110923076923,-0.9059425512820514,-0.6910365947008547,1.72691601025641,1.4918268305128206,-4.546779858974359
602,1747666273880,0.20972653031746033,-1.3437927357142858,-1.022884519047619,0.9716829761904763,2.782607495238095,-5.052554023809524
603,1747666273890,0.15546446,-1.398448,-1.0452971,0.915687,2.8857274,-5.087897
604,1747666273900,-0.48730367140495867,-1.6820626768595042,-1.044980547107438,1.1708974495867768,2.719158076033058,-4.607973721487603
605,1747666273910,-0.9946361462809917,-1.7258639628099173,-1.1122233272727273,2.224210869421488,1.1610377404958678,-2.7979850190082645
606,1747666273920,-1.0895522066115704,-1.7290347132231405,-1.1779574586776862,2.6421992033057853,0.4950330759504132,-2.1051325421487603
607,1747666273930,-1.012705497704918,-1.78275813852459,-1.3842166639344262,3.274818655737705,-0.5354384027868853,-1.0238101409836067
608,1747666273940,-0.9327316079999999,-1.8510659669565217,-1.5639973226086956,3.3312235026086956,-0.718882142173913,-0.7100591393043478
609,1747666273950,-0.855987489516129,-1.9440400508064515,-1.8715846282258064,3.137128024193548,-0.7851884620967742,-0.3070681708064516
610,1747666273960,-0.8588436239495799,-1.940831431932773,-2.1431241882352943,2.3304252655462183,-0.45435542899159664,0.037822314285714295
611,1747666273970,-0.843046995,-1.87406676,-2.1693515999999997,0.61960569645,0.41510836458333333,0.48564808899999995
612,1747666273980,-0.7894903433333333,-1.8103527452380952,-2.041422623809524,-0.592335674,1.0405071333333333,0.7725409
613,1747666273990,-0.72354965359375,-1.652118846875,-1.7576430968749999,-1.3821876453125,1.3096759703124998,0.9715906875
614,1747666274000,-0.7132483824390244,-1.4918207365853657,-1.5280960463414635,-2.1661132268292684,1.3289000536585367,1.3604564780487804
615,1747666274010,-0.753170406,-1.3471549983999997,-1.3856438656,-2.5004131648,1.102948988,1.7784095216
616,1747666274020,-0.7238106754310345,-1.2872694094827586,-1.3081153310344829,-2.592812272413793,1.0142522465517243,1.9158892879310345
617,1747666274030,-0.6666195827642276,-1.2190242300813008,-1.2093989528455285,-2.8539624,0.7031059,2.3451116
618,1747666274040,-0.41306034098214284,-1.02736769375,-0.8940056991071429,-3.0493738857142856,0.06488263142857142,2.897268332142857
619,1747666274050,-0.19005333574803152,-0.8723643648818897,-0.6683460007874016,-3.1187845708661417,-0.62981649496063,3.3350019488188978
620,1747666274060,-0.03627839205882353,-0.7518111929411765,-0.5598673235294118,-3.0915889411764703,-1.0660676976470589,3.4369434294117647
621,1747666274070,0.0679771205882353,-0.630227611764706,-0.46515873470588237,-3.1561250352941177,-1.5305408058823529,3.5381315235294117
622,1747666274080,0.14006918048387096,-0.4913384387096774,-0.3181010491935484,-3.2612273024193548,-1.6584252153225805,3.682773441129032
623,1747666274090,0.17470838983333334,-0.410524626,-0.20027744416666668,-3.294294508333333,-1.6549968449999999,3.7560677983333335
624,1747666274100,0.19711994276119402,-0.3767151009701492,-0.15068531680597014,-3.3618741373134324,-1.604332752238806,3.957376613432836
625,1747666274110,0.23722363,-0.32972133,-0.082491346,-3.390913,-1.5283848,4.102571
626,1747666274120,0.24414410288135593,-0.3210635045762712,-0.0722988539118644,-3.3928698322033894,-1.5058449067796609,4.124676050847458
627,1747666274130,0.31323259780487805,-0.22581843751219513,0.028382072585365854,-3.406214368292683,-1.2788686951219512,4.296274951219512
628,1747666274140,0.41828633715447155,0.017927293471544717,0.2046152317073171,-3.3862096341463412,-0.5474445560975609,4.2950432926829265
629,1747666274150,0.42757242105691057,0.0846838937398374,0.22713397333333335,-3.4209247113821135,-0.3865088508130081,4.236266178861789
630,1747666274160,0.4446548665178572,0.1478768982142857,0.23206575767857143,-3.5172093749999997,-0.19463693437500001,4.2137101875
631,1747666274170,0.4747418151724138,0.17502270689655172,0.21342385206896552,-3.652347619827586,-0.10911844043103448,4.281196293103448
632,1747666274180,0.533842467804878,0.19218020219512197,0.17825702341463415,-3.947614866666666,-0.02076941773333333,4.441193866666667
633,1747666274190,0.6122996150819673,0.20002692024590163,0.17940407942622952,-4.418828931147541,0.07870147407213114,4.611762144262294
634,1747666274200,0.7132524107199999,0.21170306528,0.21561970072,-4.7579806,0.1445795832,4.693326592
635,1747666274210,0.8460049908403361,0.25987174579831934,0.3493156596638655,-5.052168828571428,0.16651980453781515,4.489028086554622
636,1747666274220,0.8891005925,0.28408263250000004,0.39982680249999997,-5.117661540322581,0.16620460548387095,4.2903431258064515
637,1747666274230,0.9777471535433071,0.33340333393700783,0.5591140393700788,-5.0930335984251975,0.1335774694488189,3.6980290346456695
638,1747666274240,0.9573644088,0.31001712504,0.6881204304,-4.958989320000001,0.100695025968,3.0659179992
639,1747666274250,0.950359,0.30580372,0.6887296,-4.9151696109375,0.10140840198437501,2.93412418984375
640,1747666274260,0.7633310779508197,0.25560396368852456,0.6422726435245901,-4.876256573770491,0.1697604563114754,2.874817016393443
641,1747666274270,0.6094253247899161,0.2808442775630252,0.667923186302521,-4.9977295546218485,0.23656911655462187,3.26620912605042
642,1747666274280,0.55315283096,0.30725247487999996,0.7057823790400001,-5.124690152,0.2702418964,3.6430243408
643,1747666274290,0.5902950226356589,0.32206476519379845,0.7594532224806202,-5.223134717054264,0.2786019070542635,3.8986650782945733
644,1747666274300,0.7690564262295082,0.30937055278688524,0.8726907147540983,-5.353382610655737,0.3535958446721312,4.167813233606557
645,1747666274310,1.1082223439024392,0.23727721658536585,1.001003819512195,-5.3842008487804875,0.6139046881300813,3.900990330894309
646,1747666274320,1.268586905882353,0.19885538806722686,1.0986042840336134,-5.287803552941177,0.8639123077310924,3.3498514823529413
647,1747666274330,1.243125245967742,0.20903502137096772,1.128117166935484,-5.142441024193548,0.9681524585483872,2.9078761387096774
648,1747666274340,1.1694813460176992,0.22915031053097343,1.1294493690265486,-5.025053195575221,0.9955157252212389,2.659750479646018
649,1747666274350,0.8649023779527559,0.3224861007874016,1.152495987401575,-4.713922234645669,0.6175799602362205,2.651780442519685
650,1747666274360,0.8279397980000001,0.33684781300000005,1.15978446,-4.690167954545455,0.5170141363636364,2.7161290045454543
651,1747666274370,0.8686688778333334,0.3782175445,1.2116446408333332,-4.65941547,-0.08368854533333334,3.1363856833333332
652,1747666274380,1.07656581336,0.35172945448000004,1.2400588312,-4.721177148000001,-0.27269024568,3.2088164416
653,1747666274390,1.347265247761194,0.30855759074626865,1.2838139791044776,-4.808421156716418,-0.3646956619402985,3.1578724895522385
654,1747666274400,1.4226097666666666,0.34192421,1.4167522666666668,-4.767706768421053,-0.07500782205263158,2.7138492947368418
655,1747666274410,1.4061527829268292,0.3821083406504065,1.468178869105691,-4.707466536585366,0.029391060650406503,2.592760537398374
656,1747666274420,1.2883782413793103,0.5672984489655173,1.6049120586206895,-4.441611724137931,0.24705285620689657,2.4397009155172413
657,1747666274430,1.2669012000000002,0.74669312,1.7589206,-3.1393198750000004,0.09851590409090909,2.6376743931818183
658,1747666274440,1.2832946959349594,0.883020901300813,1.8818540040650409,-2.8668204268292685,0.017744891463414632,2.6930216804878047
659,1747666274450,1.4109618379032258,1.0304136086290323,1.9559297677419356,-2.200740598387097,-0.45795187387096775,2.7718897741935487
660,1747666274460,1.6193456032520326,1.230534630081301,1.9262069406504065,-1.6568602593495936,-0.9122006448780489,2.6851301869918704
661,1747666274470,1.7725795361344538,1.5408708058823528,1.8289997983193276,-1.2483159411764706,-0.9657369016806723,2.097110630252101
662,1747666274480,1.82800838,1.6711965679999998,1.806765596,-0.97310835,-0.62980205,1.7482964
663,1747666274490,1.8740455806201548,1.7458228186046512,1.7471396759689923,-0.7274836813953488,-0.26534281744186045,1.5106271906976745
664,1747666274500,1.8713294792,1.7624252432,1.668957216,-0.51385496032,0.06280671751999999,1.2900008304000001
665,1747666274510,1.7712821333333333,1.8608023216666667,1.5190122483333333,-0.14854715675,0.5495190935,0.694798135
666,1747666274520,1.7332720218487394,1.9122747092436974,1.441756879831933,-0.07548549214285714,0.6386160000000001,0.3413864071428571
667,1747666274530,1.6943560546218488,1.9549252226890756,1.3601781899159664,-0.1381325437394958,0.6069844957983193,-0.050060149831932764
668,1747666274540,1.6648573170731706,1.960011819512195,1.3478924487804878,-0.21496993699186992,0.5468038577235772,-0.3032921073170731
669,1747666274550,1.6455113658536584,1.8811397463414632,1.4828383024390244,-0.18038404170731706,0.42012629390243905,-0.7730127292682928
670,1747666274560,1.6143980383333334,1.76647821,1.6250633633333331,0.09485719166666667,0.2704096741666666,-1.2529253033333334
671,1747666274570,1.5791577759999997,1.6835166860000002,1.6767368539999998,0.3063916894,0.2087448689,-1.4467304870000002
672,1747666274580,1.5367758352941177,1.5987951196078434,1.7310024450980392,0.5516412769607842,0.13936111970588236,-1.6465633147058825
673,1747666274590,1.4141751440366972,1.4114031844036699,1.79418353853211,1.1765376678899082,0.02449065198165137,-1.9987341926605506
674,1747666274600,1.2267419442477876,1.1941613185840707,1.7756525584070797,1.97815462920354,-0.023477768203539823,-2.3206553557522125
675,1747666274610,1.1540528923076925,1.1206295435897435,1.7351219128205129,2.241076558974359,0.0002976012307692304,-2.374871728205128
676,1747666274620,1.0928929036697248,1.014610876146789,1.6841719788990825,2.472687135779817,0.012368620724770641,-2.3994731165137613
677,1747666274630,1.0647126967479674,0.9267508068292682,1.6500313650406504,2.687225891869919,0.012877834341463414,-2.404147162601626
678,1747666274640,1.0712648999999999,0.884268226,1.6347442,2.9566142260869563,0.00547122802173913,-2.3949105130434782
679,1747666274650,1.0857443736,0.84167927104,1.6194448144,3.1714901168,0.002076941904,-2.3871294672
680,1747666274660,1.12388365,0.7879998375,1.6279229,3.3643404,0.00580322025,-2.3904685
681,1747666274670,1.1954708921739132,0.7187591891304348,1.6808583852173913,3.7474563460869565,-0.12083976523478261,-2.475544683478261
682,1747666274680,1.24036565546875,0.656060188671875,1.7122083296875,4.2886033109375,-0.318461224375,-2.67498359765625
683,1747666274690,1.2368821,0.6428468,1.6983943,4.465425,-0.3549127,-2.7635543
684,1747666274700,1.2136966714285713,0.5876550142857143,1.693530592857143,4.795738355555556,-0.4404144373015873,-2.9315616380952383
685,1747666274710,1.154917912,0.5232880360000001,1.678440232,5.221773687999999,-0.599112204,-3.0797382159999995
686,1747666274720,1.073051649180328,0.47479536295081964,1.567323662295082,5.805352762295082,-0.6920302081967213,-3.0288100049180327
687,1747666274730,1.0746352032258064,0.4584635011290322,1.4549217637096774,5.989839088709678,-0.675424825,-2.971800187096774
688,1747666274740,1.1129010375000001,0.45062119875,1.3425285,6.0715423625,-0.6275876699999999,-2.9420796250000003
689,1747666274750,1.254983061111111,0.42478163888888887,0.9587788555555556,5.932485972222222,-0.4039176766666666,-3.046215361111111
690,1747666274760,1.2492818612903225,0.41738117661290325,0.7915681758064516,5.541729896774194,-0.23508459709677418,-3.2836371258064516
691,1747666274770,1.188884225,0.41908694333333335,0.7526928916666666,5.228649833333334,-0.15378532166666667,-3.4468070916666664
692,1747666274780,1.0985233427419354,0.42089835,0.801991760483871,4.96322064516129,-0.16710120741935483,-3.5509005387096777
693,1747666274790,1.0455453347107437,0.4161478552892562,0.8767544595041322,4.87553226446281,-0.25504886950413225,-3.5683011247933885
694,1747666274800,0.9995640193548387,0.3971126324193548,1.0072400677419353,4.997488612903226,-0.47227767217741934,-3.493188677419355
695,1747666274810,1.0586629546218487,0.35170289865546217,0.9895639655462185,5.284667129411765,-0.5550249829411765,-3.405537835294118
696,1747666274820,1.1307172399999998,0.31854352,0.8329186,5.607284675000001,-0.636216145,-3.3939673750000003
697,1747666274830,1.216254376,0.28391472384000005,0.61332759776,5.6300368696,-0.63075501528,-3.5581874488
698,1747666274840,1.2525058433333334,0.25919692483333334,0.4773556478333333,5.503132125,-0.5955936125,-3.751628875
699,1747666274850,1.2580226411290323,0.23176777725806452,0.34909437459677417,5.233420556451613,-0.5403497191935485,-3.9760923225806453
700,1747666274860,1.1996921764705881,0.20522344411764704,0.248507715,4.960540264705883,-0.48838676117647056,-4.186547058823529
701,1747666274870,1.0086887,0.12983845,0.12568948,4.6102,-0.4343252,-4.436714
702,1747666274880,0.8759214,0.088104665,0.14228538,3.9364157,-0.5131268,-4.9223523
703,1747666274890,0.7694959301694916,0.0783754677118644,0.1772310640677966,3.801238425423729,-0.6095399661016949,-5.030692530508475
704,1747666274900,0.5960787015686274,0.05370216666666667,0.19781557470588235,3.669060268627451,-0.7288101588235294,-5.061437790196079
705,1747666274910,0.42880858233333335,0.016335566486666665,0.07929419759999999,3.5584275483333334,-0.7309104833333333,-4.975695914166667
706,1747666274920,0.3676087232231405,-0.002117852183471074,-0.017610445008264464,3.489630957024793,-0.6554887404958677,-4.874436817355371
707,1747666274930,0.3458387382677165,-0.02804544512598425,-0.1275958192913386,2.762626137007874,-0.015165814173228351,-4.216494877952756
708,1747666274940,0.3643755344,-0.031454097544,-0.12775127832,2.5270713871999995,0.10906632608,-4.0964086112
709,1747666274950,0.4694847925,-0.04915719500000001,-0.06770554999999999,2.027309025,0.27259862,-3.94410235
710,1747666274960,0.51881691184,-0.09608826768,-0.009328845087999998,1.9006999064,0.21194580608000002,-3.9949072199999995
711,1747666274970,0.5347619973333334,-0.15356082566666668,0.05291160866666667,1.8769699891666667,0.09649634733333333,-4.055152606666667
712,1747666274980,0.4879430676033058,-0.23348613834710746,0.10168110719008264,1.9350544363636364,-0.03809577781818181,-4.100682790909091
713,1747666274990,0.41944192,-0.29770062838709677,0.11044574951612902,2.012199902419355,-0.08960506451612903,-4.0892303620967745
714,1747666275000,0.3093909842063492,-0.38604626349206345,0.052832585716666665,2.241177385714286,-0.062657322,-3.907355885714286
715,1747666275010,0.15160759062992127,-0.5379809535433071,-0.07885739338188977,2.434807847244094,0.21775181448818898,-3.5440429952755905
716,1747666275020,-0.07297312,-1.0328503,-0.7907455,2.581634870967742,0.4118315464516129,-2.978382006451613
717,1747666275030,-0.07625924181102361,-1.1832452937007873,-0.941030937007874,2.619799096850394,0.4087794644094488,-2.2405671842519683
718,1747666275040,-0.08446821008333333,-1.4046125308333333,-1.1507482058333334,2.5660005933333334,0.182852316,-2.02685088
719,1747666275050,-0.10665302,-1.5995512,-1.2844733,2.5619688,-0.18448131,-1.9462167
720,1747666275060,-0.12879111133858268,-1.66827151496063,-1.5056237566929136,2.465807992125984,-0.6893253639370078,-2.0274953866141736
721,1747666275070,-0.28439091657894733,-1.6930915561403508,-1.6532031359649124,2.0737696315789473,-1.053763994385965,-2.2776486122807014
722,1747666275080,-0.68895994848,-1.7610781408,-1.791056084,1.43543556,-0.8875921127999999,-2.5424603
723,1747666275090,-0.8455415864957264,-1.7796488675213675,-1.8578889008547008,1.197567407179487,-0.7173019854700855,-2.5268153632478634
724,1747666275100,-1.201296273015873,-1.8631872174603175,-2.0218398619047617,0.4426979298571429,-0.2550701822222222,-2.1895251777777776
725,1747666275110,-1.373510207377049,-1.8596041606557379,-1.934831714754098,-0.1559608973442623,0.07150127672131149,-1.810123924590164
726,1747666275120,-1.5319474,-1.8235958,-1.7723436,-0.5338961999999999,0.26083946,-1.5381587
727,1747666275130,-1.5820372071428572,-1.7442422,-1.5970351,-1.2311067587301587,0.5523870168253968,-0.48994300895238097
728,1747666275140,-1.6024717243697477,-1.672790817647059,-1.4588921630252099,-1.4630222,0.5821546,0.111177474
729,1747666275150,-1.4827872642857143,-1.4781850428571428,-1.2094953785714286,-1.7743889611111112,-0.06451415740476191,1.445510745968254
730,1747666275160,-1.2805133129032258,-1.3363079129032258,-0.992108441935484,-1.8867656653225806,-0.5586165841129033,2.2519153717741935
731,1747666275170,-1.1118027875,-1.2330992625,-0.84608545,-1.889024375,-0.878347875,2.7204120375
732,1747666275180,-0.8307708650000001,-1.0834921499999999,-0.67030323,-1.8781302000000002,-1.2146103868852458,3.296128839344262
733,1747666275190,-0.5603238914655173,-0.9542953508620691,-0.5323646056896552,-1.9057995120689655,-1.3796444163793102,3.7577271396551724
734,1747666275200,-0.4566106188235294,-0.899123274789916,-0.477736945882353,-1.9448768798319327,-1.3505049907563025,3.935681719327731
735,1747666275210,-0.3167924135,-0.7861938110000001,-0.38553115675,-2.0161454933333336,-1.1905712958333334,4.144995616666667
736,1747666275220,-0.17771540333333333,-0.670955099059829,-0.3040035613675214,-2.112079669230769,-0.9171436797435898,4.312927811965812
737,1747666275230,0.04773998203252033,-0.5145897508130082,-0.19643235691056912,-2.26725863902439,-0.4310771763414634,4.4751887073170735
738,1747666275240,0.17678736789473684,-0.43870576078947365,-0.14384820263157896,-2.3680190999999997,-0.08735372999999999,4.4861942500000005
739,1747666275250,0.27217613309523814,-0.36706405785714286,-0.09737303253968253,-2.4473976666666664,0.16406094857142856,4.473240174603174
740,1747666275260,0.37305089076923076,-0.25778079846153845,-0.042935299999999996,-2.594443813675214,0.5162176786324787,4.420863033333333
741,1747666275270,0.4036430895652174,-0.19460701669565217,-0.0073450612608695655,-2.6816134547826085,0.6649719665217391,4.384891568695652
742,1747666275280,0.39683707285714287,-0.08930751633333334,0.09275337395238095,-3.1063176777777777,0.9544430055555555,4.196169155555555
743,1747666275290,0.37259835105263156,-0.06037205463157896,0.14058981494736844,-3.2408651263157897,0.9452335842105263,4.135557978947368
744,1747666275300,0.35870606047619047,-0.040467016,0.17692988095238096,-3.3359349714285713,0.9226683095238095,4.129274857142857
745,1747666275310,0.318716391,0.00829184475,0.23134797025,-3.5281795133333334,0.8729264,4.397359385833332
746,1747666275320,0.30409533,0.014399378,0.24967057,-3.5802813,0.8729264,4.6053133
747,1747666275330,0.28938159184,0.020125937288,0.30681510535999995,-3.6434103136,0.7032916295999999,5.26849272
748,1747666275340,0.3094128707627119,0.023497749059322035,0.329748215338983,-3.6658022,0.5693264,5.59858
749,1747666275350,0.6608289559999999,0.00771220932,0.2768585484,-3.8827719311999997,0.065284388976,6.17841344
750,1747666275360,0.8518321898305086,-0.007967020915254237,0.23895273186440677,-4.035458564406779,-0.013169840559322033,6.011690545762712
751,1747666275370,1.0010307342105262,0.010768490219298245,0.20136436385964912,-4.234099842105263,-0.007491137421052631,5.583018842105264
752,1747666275380,1.0172466876033057,0.08299559896694216,0.17891816314049586,-4.628950138016529,0.11205591066115701,4.573134051239669
753,1747666275390,0.9459658,0.102504045,0.19304928,-4.8765373,0.18936823,3.9590178
754,1747666275400,0.9459658,0.102504045,0.19304928,-4.8765373,0.18936823,3.9590178
755,1747666275410,0.7582274419658119,0.08452098867521368,0.32829871452991455,-5.071575423076924,0.06689757964102565,3.870880846153846
756,1747666275420,0.5434070366666667,-0.036066240000000006,0.8245338666666667,-5.1726658871794875,-0.2725711974358974,4.669970871794872
757,1747666275430,0.7324107886597938,-0.05409012979381444,0.8449236837113401,-5.048839218556701,-0.11287781890721652,5.3187154226804125
758,1747666275440,0.8715500424778762,-0.05927351079646018,0.8178099260176991,-5.023409946902656,0.05902147787610619,5.528043845132744
759,1747666275450,1.3043384488372094,-0.052086357674418604,0.7107003941860465,-5.117625333333334,0.6088290466666666,5.690413466666667
760,1747666275460,1.6705844743589744,0.010056411692307692,0.6587355248717949,-5.3159738717948715,1.013759565982906,5.410141306837607
761,1747666275470,1.7581441198347105,0.15539185583471074,0.7705694066115703,-5.421181628099173,1.0828822950413224,4.778142727272728
762,1747666275480,1.7013826779527559,0.32871821118110234,0.9736596881889764,-5.378903976377952,0.8013157166929133,3.9842893559055117
763,1747666275490,1.6447018,0.37706845999999994,1.0687267,-5.26688,0.47342056,3.7189476000000004
764,1747666275500,1.583413556097561,0.37706846,1.228161568292683,-5.041023829268292,0.003233110731707322,3.5554443
765,1747666275510,1.5749013,0.37706846,1.2503053000000002,-4.968167000000001,-0.14844026000000002,3.5027013
766,1747666275520,1.640966679130435,0.35030915973913046,1.297051787826087,-3.8468043113043477,-0.8880120883478261,3.4634306904347825
767,1747666275530,1.8159564317460317,0.442781833015873,1.1167324317460317,-3.445425377777778,-0.9844529207936508,3.4155172682539683
768,1747666275540,1.8704038182608695,0.5310537253913044,1.0462734947826087,-3.519816088695652,-0.7252564210434783,3.242876372173913
769,1747666275550,1.8411307176,0.65503597352,1.0505903432,-3.6775358999999996,-0.627881516,3.004508844
770,1747666275560,1.7843639924369747,0.7238840557142857,1.1315929773109243,-3.728855030252101,-0.6144175000000001,2.8524326487394958
771,1747666275570,1.7035780628099173,0.7739055203305785,1.3094841561983472,-3.671007388429752,-0.6272122161157025,2.7036946719008266
772,1747666275580,1.6519312596638658,0.8130367003361345,1.4139364420168068,-3.438134478991597,-0.6751960529411765,2.6055353378151263
773,1747666275590,1.6337193,0.8412653,1.4301754,-3.1129694,-0.74281216,2.5234842
774,1747666275600,1.7865877757575759,0.9094904496969697,1.2256185363636365,-2.8582385,-0.47036624,2.5283713
775,1747666275610,1.8210961387096773,0.9214499693548387,1.2133069951612903,-2.880229625,-0.40805798499999996,2.499507875
776,1747666275620,1.9358622,0.9642702,1.1814811,-2.988167915966387,-0.09536684605042016,2.2623829571428575
777,1747666275630,1.9879684000000002,1.05688985,1.33206445,-3.145956,0.37751472,1.6963727
778,1747666275640,2.021057672,1.16067758,1.511153688,-3.076463968,0.4082045888,1.578988844
779,1747666275650,1.9010414627906977,1.23642238372093,1.722788762790698,-2.526240358139535,0.524150784883721,0.8649141290697674
780,1747666275660,1.8874573666666667,1.3054622333333334,1.8978704666666668,-1.7520398606837606,0.3202082597435897,0.5433359027350427
781,1747666275670,1.9048335272727273,1.350690440909091,1.885164659090909,-0.8546930268181818,0.1492084712121212,0.25561933515151514
782,1747666275680,1.9170423749999999,1.3938088112068967,1.7927729318965517,-0.20650405452586207,0.10638007672413793,-0.0015903558620689628
783,1747666275690,1.9286868400000001,1.41421408,1.72685138,0.0651182318,0.167865766,-0.190834304
784,1747666275700,1.9322857771653543,1.4073877637795276,1.6838180897637796,0.3894097444094488,0.37514821488188976,-0.6111538724409449
785,1747666275710,1.8499539,1.3528093,1.6915607,0.9232777334426229,0.7007926106557377,-1.3030657573770492
786,1747666275720,1.766728430081301,1.3283936398373986,1.6813698634146341,1.1010523079674797,0.7413470471544715,-1.445883287804878
787,1747666275730,1.67022101875,1.23497534375,1.5966225437500001,1.7589387765625,0.7287574742187499,-1.81500948828125
788,1747666275740,1.6212563213114755,1.1676698229508196,1.527106224590164,2.0808173901639346,0.6895767393442622,-1.977851450819672
789,1747666275750,1.5826469139534884,1.0785647077519378,1.4253529403100773,2.400738385271318,0.6014417947286822,-2.174727572868217
790,1747666275760,1.5469082715447153,1.0009720406504066,1.328790556097561,2.5856288097560975,0.5356245195121951,-2.3621264585365855
791,1747666275770,1.5803955976,0.91337158064,1.2978339816,2.5884559279999997,0.6089984136000001,-2.6250346288
792,1747666275780,1.6280082466666668,0.8494860278333333,1.3184989333333335,2.586617210833333,0.7042410645833334,-2.8263157675
793,1747666275790,1.658203711023622,0.7969737580314961,1.3876691362204723,2.646224965354331,0.8426332751968504,-3.06904474488189
794,1747666275800,1.6314823212598426,0.7420781425196851,1.5041536417322834,2.8680026858267715,0.9424640417322834,-3.3255359842519687
795,1747666275810,1.57698481300813,0.6681017473170732,1.6244112861788618,3.33581582601626,0.8823625577235772,-3.536567089430894
796,1747666275820,1.5357175586206897,0.5992278486206896,1.5905463068965515,3.7812031543103446,0.7451239344827585,-3.653511319827586
797,1747666275830,1.4673027250000001,0.49351426249999997,1.4389310499999999,4.4176961875,0.5246416191666666,-3.8129087775
798,1747666275840,1.4504541325203253,0.4679212585365854,1.3593254869918698,4.582929731707317,0.43742918585365853,-3.8841443406504066
799,1747666275850,1.436462880952381,0.44500934476190473,1.2618456952380952,4.673119,0.35796702,-3.9516873
800,1747666275860,1.3628668831932773,0.43239355907563026,1.1274768411764706,4.674720796638655,0.23227766058823532,-4.127226324369748
801,1747666275870,1.3397901033613444,0.41491987504201683,1.1016190731092437,4.64789389579832,0.18134484907563025,-4.2179219521008395
802,1747666275880,1.3180607258064516,0.4057412401612903,1.0900875346774195,4.612682677419354,0.17319507758064515,-4.232098963709678
803,1747666275890,1.290526788392857,0.4027380401785714,1.0726141160714284,4.584128910714285,0.19634954660714285,-4.217991758928572
804,1747666275900,1.2710500666666666,0.4041587933333333,1.00722428,4.509407,0.3023783,-4.1850380000000005
805,1747666275910,1.2822729753846154,0.4389163006153846,0.8733569987692307,4.3487685630769235,0.5023003784615384,-4.210308970769231
806,1747666275920,1.266273247008547,0.45493939410256407,0.8459566572649572,4.315502073504274,0.5251143634188035,-4.232272906837607
807,1747666275930,1.1877310168000002,0.52760883432,0.7671012143199999,4.1964439752,0.31621316239999997,-4.354056863199999
808,1747666275940,1.1827015,0.53985465,0.75999427,4.1789293,0.2406809,-4.3817363
809,1747666275950,1.1758678,0.5620638,0.77317333,4.174653,0.035430185,-4.517959
810,1747666275960,1.1758678,0.5620638,0.77317333,4.174653,0.035430185,-4.517959
811,1747666275970,1.0342377863013699,0.4573900219178082,0.716986695890411,4.221229479452055,0.025723285931506853,-4.78453902739726
812,1747666275980,1.007971715625,0.4249265375,0.666596590625,4.2081361875,0.1785253726875,-4.7860906875
813,1747666275990,0.9718480322314049,0.3911471258677686,0.5830406454545455,4.185502305785124,0.2481930352892562,-4.778066639669421
814,1747666276000,0.9233158368217055,0.3557995330232558,0.4891455869767442,4.126413697674419,0.392222833255814,-4.757068302325582
815,1747666276010,0.7596530305309735,0.24260369203539825,0.35805356707964603,3.9697537955752216,0.39277554477876103,-4.715777151327433
816,1747666276020,0.6850132907563026,0.1929426305882353,0.33799056285714285,3.9096454663865545,0.24130205062184876,-4.715453785714286
817,1747666276030,0.5744457854676259,0.1538824825179856,0.3554175876258993,3.9153516791366902,-0.11346711858273381,-4.749015561151079
818,1747666276040,0.5287265309174312,0.1387140789908257,0.36343930990825685,3.9326214064220184,-0.3079713485321101,-4.750614651376147
819,1747666276050,0.4915631286956522,0.11392167086956521,0.35470005217391304,3.94011615942029,-0.5304788942028985,-4.73092108115942
820,1747666276060,0.5101104399099099,0.04499667945945946,0.24762574936936937,3.753761399099099,-0.7573408124324325,-4.738321965765765
821,1747666276070,0.51593703,0.01586372,0.19353738,3.6456437,-0.77518797,-4.7610836
822,1747666276080,0.4600037134645669,-0.008207626318110237,0.1448258718110236,3.501965311811024,-0.6566945777952756,-4.778899730708662
823,1747666276090,0.39368060800000004,-0.039347451755555554,0.17110040044444447,3.239327885925926,-0.4714250745185185,-4.689942805925925
824,1747666276100,0.33430726983870973,-0.07749211346774193,0.2615585175806452,3.1330293362903228,-0.4406850806451613,-4.449163108064516
825,1747666276110,0.29754097721153844,-0.1186258983653846,0.26551551134615387,3.1939675923076924,-0.46211955923076925,-4.226588519230769
826,1747666276120,0.278264877008547,-0.14607346846153846,0.2543013855555556,3.2325265128205127,-0.47118073794871795,-4.103260358974359
827,1747666276130,0.246768035,-0.24395266214285713,0.12083448535714288,3.1829745000000003,-0.455574583,-3.7436876857142853
828,1747666276140,0.264779941322314,-0.34531479066115706,-0.06635129876033058,2.941003170247934,-0.32381916223140494,-3.4221176198347107
829,1747666276150,0.2919524962295082,-0.3996817524590164,-0.15066734147540983,2.7213145680327866,-0.12325958844262296,-3.331038233606557
830,1747666276160,0.29756679750000004,-0.44725526666666665,-0.20576059833333332,2.540894025,0.09504045000000001,-3.2659910749999996
831,1747666276170,0.23403105861788617,-0.6013808674796747,-0.30007134780487804,2.3015861414634147,0.5036261137398375,-3.184450443089431
832,1747666276180,0.008532242800000003,-0.943076292,-0.48139215056,2.214205692,0.91530581984,-3.0631715799999997
833,1747666276190,-0.2270619881818182,-1.1619343363636363,-0.6738420418181817,2.3092186757575757,1.0364161696969696,-2.8955383484848483
834,1747666276200,-0.3598058675609756,-1.2756455219512195,-0.8090080956097561,2.3535694113821135,1.0736726520325202,-2.66499149593496
835,1747666276210,-0.6359531381967213,-1.5646950327868854,-1.3939429704918032,1.978342206557377,1.0470230459016394,-2.278767629508197
836,1747666276220,-0.7058135,-1.6476305,-1.5824672,1.8093829,1.0354166,-2.1429152
837,1747666276230,-0.7767885617886179,-1.7650199715447155,-1.7794749105691057,1.2611735234146342,1.1513320178861788,-1.9046877723577234
838,1747666276240,-0.8534495788135592,-1.8480344372881354,-1.9048564703389832,0.6674375825423728,1.2890913237288137,-1.6286289152542373
839,1747666276250,-0.9735985777777778,-1.8597316976190479,-1.9555028888888888,0.09092195793650795,1.3805942317460318,-1.3203998222222224
840,1747666276260,-1.074801011111111,-1.7782010555555556,-1.827581977777778,-0.578591185,1.2141237904761906,-0.8501644500000001
841,1747666276270,-1.1063232214285714,-1.7087841928571428,-1.6326906642857144,-0.9751445571428571,0.8988009238095238,-0.44636794761904763
842,1747666276280,-1.1026900774193547,-1.6659976903225808,-1.4991098483870968,-1.070915741935484,0.6522168596774194,-0.20372355479032256
843,1747666276290,-1.0974594756756757,-1.620018972972973,-1.3888835891891893,-1.1012414216216215,0.45524319135135133,-0.003896330594594593
844,1747666276300,-1.04667001875,-1.41703831875,-1.06278539921875,-1.03253406875,-0.150635555625,0.705396645
845,1747666276310,-0.9898589864406779,-1.3143310033898306,-0.9478563016949153,-0.9829339508474576,-0.3544467881355932,1.0259533508474576
846,1747666276320,-0.9563642918032786,-1.2465523901639346,-0.8892846098360656,-0.9606607059016393,-0.4487355819672131,1.2095031704918033
847,1747666276330,-0.8476166712,-1.0021439832,-0.8066053040000001,-1.1175412736,-0.49966332319999995,2.030296212
848,1747666276340,-0.7909695388524589,-0.9112177229508196,-0.7897052393442623,-1.2564947024590165,-0.4312708677868853,2.3615249532786886
849,1747666276350,-0.6759592165853658,-0.7977377951219512,-0.7641214199186993,-1.5292788382113822,-0.1976074537398374,2.701876778861789
850,1747666276360,-0.3929963025423729,-0.6020168389830508,-0.6738730394067797,-2.057187054237288,0.3296498150508475,3.0964034084745764
851,1747666276370,-0.23652019075630254,-0.4545966060504202,-0.5445737420168067,-2.4441848235294112,0.6700062184873949,3.2536427394957985
852,1747666276380,-0.179086540234375,-0.3998038940625,-0.48849201445312507,-2.5299939062499996,0.7323319625,3.2910173125
853,1747666276390,-0.0909299393220339,-0.31493518644067797,-0.36586869110169495,-2.6001323694915253,0.690251866101695,3.3631132813559317
854,1747666276400,0.021994331521739127,-0.21806513945652176,-0.22196741891304347,-2.5177010478260873,0.41771230260869563,3.478260025
855,1747666276410,0.12251673786885245,-0.1089215440327869,-0.08943298157901639,-2.2501472344262297,-0.04209462622950819,3.628189053278688
856,1747666276420,0.21047419365079362,0.01978025990476191,0.020183147423492063,-1.9551082087301586,-0.47138435142857144,3.7716226174603174
857,1747666276430,0.25367540141732287,0.10992953409448819,0.0333070882519685,-1.7022602181102362,-0.7550102166929133,3.9153143291338584
858,1747666276440,0.29766713264462813,0.1803986456198347,0.012890658743801653,-1.5655466933884297,-0.876536088429752,4.053560429752066
859,1747666276450,0.3621690429268293,0.2248541024390244,-0.0406325543902439,-1.535149063414634,-0.8657748097560976,4.24491756097561
860,1747666276460,0.40933406247863247,0.23018352384615384,-0.1281342271794872,-1.768726441025641,-0.5759676035897435,4.368192897435898
861,1747666276470,0.441377535,0.22599701,-0.209767205,-2.2137175444444446,-0.07181060539682539,4.477361055555556
862,1747666276480,0.44712248992125986,0.2271481120472441,-0.19044151779527557,-2.3967707133858265,0.09506891157480314,4.500658051181102
863,1747666276490,0.48635492241935485,0.2413175095967742,-0.11107359915322582,-2.638327,0.25350907,4.5307875
864,1747666276500,0.5340389317073171,0.27974318780487806,0.028774944073170727,-2.9927877723577234,0.26135596617886175,4.529873634146341
865,1747666276510,0.5542063619512195,0.3082026382113821,0.10622244650406504,-2.997277341463415,0.13357090219512194,4.546967965853658
866,1747666276520,0.5964454006666667,0.35357185166666666,0.13522398658333332,-3.010628973333333,-0.10258463933333334,4.601281333333333
867,1747666276530,0.62943928968,0.35185831776000004,-8.590996000000022e-05,-3.41437024,-0.07073819672000001,4.729709840000001
868,1747666276540,0.6564936634999999,0.32550320866666665,-0.09554841691666667,-3.866227135,0.15079718556666666,4.8488446650000006
869,1747666276550,0.6906897222222222,0.2844855142857143,-0.1581878346031746,-4.084923583333333,0.29338502,4.9030078999999995
870,1747666276560,0.7554812788135593,0.27329032779661017,-0.14154493830508474,-4.939207976271187,0.9329258050847458,5.084241983050847
871,1747666276570,0.9728713028225807,0.3074235709677419,0.10916049040322581,-5.866276757258064,1.3665745282258064,4.895079801612903
872,1747666276580,1.1217525967479676,0.3458271390243903,0.34875186642276423,-6.061317814634146,1.3673250585365853,4.651336629268293
873,1747666276590,1.1533325408000001,0.3543769788,0.43885009352000004,-6.0977155824,1.3151391719999999,4.479509176
874,1747666276600,1.0926931952,0.32500419255999996,0.73000842472,-5.832639296,0.6841690520000001,3.49610392
875,1747666276610,0.9842766735042736,0.31206784957264955,0.6714035316239316,-5.770791529914529,0.5081041447863248,3.272305952991453
876,1747666276620,0.9650024,0.3104408,0.6550496,-5.764735,0.48502702,3.2436945
877,1747666276630,0.93071613359375,0.30683714375000004,0.637340215625,-5.8148069453125,0.451548733125,3.25999689296875
878,1747666276640,0.8437688896774194,0.3125271322580645,0.6455943974193549,-6.018825612903225,0.33620248629032257,3.3808633322580643
879,1747666276650,0.8869233863492064,0.3267151831746032,0.9580177333333333,-6.036836958730158,0.15992549063492062,3.739964272222222
880,1747666276660,0.9808804282352941,0.3226006129411764,1.171044111764706,-5.894177243697478,0.050383550605042016,3.8935780596638656
881,1747666276670,1.2054744387931033,0.31363672637931034,1.3302571310344828,-5.508661715517242,-0.03155961489655172,3.859430843965517
882,1747666276680,1.38539089375,0.334808424375,1.3735236187500002,-5.07796996875,0.056409588437500005,3.471012775
883,1747666276690,1.4758141,0.3499781,1.3850248,-4.817894,0.12217305,3.2119296
884,1747666276700,1.4277151548387097,0.43258754370967745,1.3951256693548388,-4.700647225806452,0.12118778225806452,3.014482148387097
885,1747666276710,1.295095668548387,0.6201790019354838,1.4703229,-4.367282362903227,0.060830353822580646,2.5521260403225807
886,1747666276720,1.2232084491228072,0.7478706428070175,1.6681184403508773,-4.118298048245614,-0.18426160409649123,2.5209068859649126
887,1747666276730,1.2427743023809523,0.8310245658730159,1.8045322404761905,-3.3989706206349206,-0.3514705412698413,2.558536293650794
888,1747666276740,1.2792771598290598,0.8695780162393163,1.8040920410256411,-3.1196105897435897,-0.3566356702564103,2.5560481564102564
889,1747666276750,1.390809257480315,0.9629442078740157,1.7640322740157481,-2.78587257007874,-0.29290267606299214,2.4903773992125986
890,1747666276760,1.552671341025641,1.150606881196581,1.7297692965811964,-2.587014266666667,-0.18997909533333338,2.289115733333333
891,1747666276770,1.6749930884297521,1.387588509090909,1.7321046049586775,-2.285691254545455,-0.02715573672727273,1.7217514454545455
892,1747666276780,1.6905845,1.5595258,1.7708794,-2.0995439333333334,-0.011199196,1.3312789666666667
893,1747666276790,1.6656508953488374,1.6147452697674418,1.7810616604651164,-1.9495835279069769,-0.01687692806976744,1.0138516406976743
894,1747666276800,1.5667201295652176,1.7294343391304348,1.8198648921739131,-1.8070455686956521,-0.001577626043478261,0.7005774424347827
895,1747666276810,1.4317785019607845,1.8290511862745098,1.9137246921568627,-1.4644476,0.11178834366666666,0.2620611826666666
896,1747666276820,1.384297072477064,1.8595886100917434,1.9630464513761465,-1.2615712495412843,0.17360902844036696,0.08008499601834862
897,1747666276830,1.335767312295082,1.9036885049180328,1.9865199303278687,-0.9162478459016393,0.26760904737704916,-0.057621617377049184
898,1747666276840,1.304621381512605,1.9386348647058824,1.9237617722689075,-0.5070848836974791,0.4507928625210084,-0.23367906268907562
899,1747666276850,1.284415257142857,1.9565139666666667,1.8522201666666667,-0.14791665214285715,0.59895335,-0.47280970857142857
900,1747666276860,1.2444251220338982,1.9270284745762714,1.812747652542373,0.40199075694915254,0.592601409322034,-0.9139993854237288
901,1747666276870,1.2170112076923079,1.8993453111111112,1.8150225102564104,0.544902230940171,0.5362874807692307,-1.0126892897435897
902,1747666276880,1.1122239016129032,1.7795000983870968,1.8410537467741934,1.1985767290322582,0.3889635238709678,-1.309084251612903
903,1747666276890,1.0648217,1.7174308,1.8592281,1.5228871,0.34208453,-1.4282030000000001
904,1747666276900,1.0602704734375,1.577925415625,1.824920934375,2.220686003125,0.30495539671875,-1.5554919843750001
905,1747666276910,1.069941031451613,1.4794710935483872,1.7525101717741933,2.6572145822580646,0.2703325108064516,-1.646173431451613
906,1747666276920,1.090967385483871,1.3557065838709677,1.6758506467741936,3.0846921709677417,0.1552780051612903,-1.7812436548387098
907,1747666276930,1.1232915655737705,1.1786325245901639,1.5585175655737704,3.542713,-0.0213802825,-1.97676
908,1747666276940,1.1297411,1.142432,1.5209647,3.626707,-0.053145275,-2.031127
909,1747666276950,1.1643073112,1.0296736208,1.3968118712,3.721132164,-0.06159965132,-2.1764737768
910,1747666276960,1.2404209049180328,0.9300541201639345,1.2534520229508197,3.689841366393442,0.04127345899180328,-2.322114012295082
911,1747666276970,1.2581513570247933,0.9083043957024793,1.229334488429752,3.6514999884297525,0.1108695161570248,-2.380026833057851
912,1747666276980,1.2717422671875,0.8539372261718751,1.23382563515625,3.4475325359375,0.5346502474218751,-2.74999122421875
913,1747666276990,1.2695858,0.84785485,1.2390786,3.4368423624999997,0.634307171875,-2.86671421875
914,1747666277000,1.228135485858586,0.8170174190909091,1.28694098989899,3.472787533333334,0.7370366545454545,-3.017933515151515
915,1747666277010,1.189047,0.7873287,1.3225462,3.5570683,0.7837401,-3.0995302
916,1747666277020,1.176356,0.7524285,1.3276714,3.695124,0.7996226,-3.1282408
917,1747666277030,1.249397964102564,0.7105132446153847,1.2660313076923078,3.895926225641025,0.7649442487179487,-3.1795848974358973
918,1747666277040,1.3139155545454546,0.6810528754545455,1.1998076181818182,4.045093954545455,0.712768679090909,-3.2680735818181814
919,1747666277050,1.3276425543307087,0.6719491866141731,1.1540314669291338,4.0681076338582685,0.6059831243307087,-3.481321179527559
920,1747666277060,1.23655265,0.6158418585,1.129283415,4.084570925,0.42810454800000003,-3.8682126549999998
921,1747666277070,1.170933976,0.58082500752,1.1510169288000003,4.14299074,0.38195692688000005,-3.9548442136
922,1747666277080,1.1238609209302326,0.5340767186046511,1.1584375860465117,4.295737015503876,0.3908069663565891,-3.954348531007752
923,1747666277090,1.069324052,0.47236009360000003,1.1431504424,4.5109907616000005,0.4399060656,-3.9146052696
924,1747666277100,1.064641847368421,0.4677512921052632,1.134352360150376,4.585719660902255,0.4653690887218045,-3.8982342060150375
925,1747666277110,1.0385855708333334,0.4433869466666666,0.9758649699999999,4.822333418333333,0.5779447015,-3.9032302875
926,1747666277120,1.0354810661016949,0.4392161879661017,0.9438066233898306,4.850311715254237,0.5772055420338984,-3.9215891322033896
927,1747666277130,1.029404688235294,0.40560878470588235,0.7357177494117648,4.885294399999999,0.4591037339495798,-4.034426205042017
928,1747666277140,1.0269929,0.38390204,0.6543175,4.825835,0.3005457,-4.1355577
929,1747666277150,0.9662284000000001,0.3787422478740157,0.5993949960629922,4.679170000787401,0.04795051596850394,-4.278081714173228
930,1747666277160,0.83400080390625,0.359751822734375,0.52597002734375,4.3708172124999995,-0.21609358675,-4.4786350624999995
931,1747666277170,0.8076897641129033,0.34369167064516126,0.5126008798387097,4.266400994354838,-0.19101362717741935,-4.501683012096774
932,1747666277180,0.7538967033333334,0.3272865861904762,0.4552074304761905,4.126530547619048,-0.084367278,-4.4574930634920635
933,1747666277190,0.7371275072727272,0.3222725565289256,0.4364146901652893,4.071770346280991,-0.04854611680165289,-4.437526776859504
934,1747666277200,0.6135658201612904,0.269996202016129,0.3501670318548387,3.7751570346774193,0.11207899826612905,-4.338207241935485
935,1747666277210,0.5665223365853658,0.18789431146341462,0.3336381453658537,3.352085736585366,0.2690935926829268,-4.255883365853658
936,1747666277220,0.574148593548387,0.12995654677419355,0.35422152258064515,3.1878495387096772,0.2811359612903226,-4.256489387096774
937,1747666277230,0.5764632,0.113974735,0.36022848,3.1655037,0.2779437,-4.2595634
938,1747666277240,0.58904482848,0.0717547846,0.36275888159999997,3.1487709543999998,0.23191866464,-4.3082369872
939,1747666277250,0.5582466367187501,-0.1106075015625,0.27164335,3.1215215,0.09407325,-4.4868054
940,1747666277260,0.4767607788429752,-0.15911725107438016,0.18131435966942147,3.060939785123967,0.09104416487603305,-4.453485317355372
941,1747666277270,0.43403953100000003,-0.19001483133333333,0.127113145,2.9521081733333334,0.11673634813333332,-4.36562978
942,1747666277280,0.35720853,-0.2590558497560976,0.05218459858211382,2.7212508146341468,0.24638727845528455,-4.06377338699187
943,1747666277290,0.18744222341880343,-0.4500040046153846,-0.019209599940170942,2.364831692307692,0.5794500585470086,-3.2915612316239313
944,1747666277300,0.1925437369047619,-0.49468079071428567,-0.026476337523809523,2.334048279365079,0.6764023549206349,-3.0260713238095236
945,1747666277310,0.28224717140495864,-0.5818486221487603,-0.01879039102479339,2.4128067636363637,0.7496427163636363,-2.728790563636364
946,1747666277320,0.5427773765853658,-0.829983139593496,-0.16292904765040653,2.8447894666666667,0.7078239626016259,-3.0008580504065043
947,1747666277330,0.7071423434920636,-1.064229065079365,-0.36872014158730154,3.209364665079365,0.7040124973809524,-3.4464094976190474
948,1747666277340,0.6689367509090909,-1.5495255008264464,-0.8589685595041323,3.4443358148760335,1.0208416136363636,-4.250541823966942
949,1747666277350,0.4954264044354839,-1.8316063161290324,-1.1962406887096775,3.3626850524193546,1.502767912096774,-4.651605950806451
950,1747666277360,0.24461085048780487,-2.081641595121951,-1.534727204878049,2.9074305162601624,1.9772863821138211,-4.575127463414634
951,1747666277370,-1.1022129238095235,-2.4641335476190473,-2.4428195936507935,1.8165969190476188,2.5985043333333335,-3.9015381142857146
952,1747666277380,-1.2098847904761905,-2.464989723809524,-2.476441315873016,1.0046115535714284,2.585399785714286,-2.998170264285714
953,1747666277390,-1.3884256099173553,-2.4710009917355373,-2.5194594528925616,0.29574459463636366,2.2571521867768594,-2.1129677421487605
954,1747666277400,-1.3548711472,-2.4652632768,-2.3502459439999996,-0.478297724888,1.30804333248,-1.09366380288
955,1747666277410,-1.3169329,-2.455704,-2.2370288,-0.7965683,0.82527894,-0.66523224
956,1747666277420,-1.3208791542372882,-2.3954137152542376,-2.069092461016949,-0.9201287315254237,0.41341082338983054,-0.28821449796610166
957,1747666277430,-1.2809186879032257,-2.233031356451613,-1.853701425,-1.0354264764516128,-0.2639233219354839,0.453513254516129
958,1747666277440,-1.1150093260504201,-1.9149080487394958,-1.5221666453781513,-1.20323,-1.087427357142857,1.598721602857143
959,1747666277450,-0.91039211056,-1.6295468095999999,-1.2525642784,-1.35597416,-1.5179952215999999,2.4232388912
960,1747666277460,-0.8151175506896552,-1.5180445206896553,-1.1542477517241378,-1.4587461379310345,-1.6760456793103449,2.817605379310345
961,1747666277470,-0.6127402575,-1.2967941275000001,-0.9692551045833333,-1.5913039666666668,-1.8181386000000002,3.2381967333333335
962,1747666277480,-0.54265441744,-1.2213444392,-0.9085860964,-1.6297885,-1.8515326,3.350596
963,1747666277490,-0.12100441187692307,-0.7895189188034187,-0.5932406068376069,-1.7503429974358973,-1.860230882051282,3.617810317948718
964,1747666277500,0.06329349219435484,-0.6386407245967741,-0.48323136177419357,-1.9710897016129032,-1.7576858983870967,4.059963140322581
965,1747666277510,0.3572604293548387,-0.33480718903225803,-0.2978364351612903,-2.1941244749999997,-1.2550127532258064,4.324413669354838
966,1747666277520,0.46297657,-0.21208574,-0.22575295,-2.252871,-1.0732902,4.360966999999999
967,1747666277530,0.4901771528225806,-0.1766620136129032,-0.20358310588709677,-2.3947937346774193,-0.7833262693548386,4.367484451612903
968,1747666277540,0.6301209285714287,0.013702070714285716,-0.07771480314285714,-2.988265557142857,0.39697514285714286,4.365591857142857
969,1747666277550,0.6626610244715446,0.09658912552845529,0.006518114902439026,-3.340429694308943,0.9535804601626016,4.240264227642276
970,1747666277560,0.6180343019166668,0.13969429949999998,0.11906943789166666,-3.647323741666667,1.260902165,4.076080059166666
971,1747666277570,0.5122642975609756,0.17747128829268294,0.30164881292682927,-4.045418005691057,1.405432149593496,3.820271813821138
972,1747666277580,0.4799919859375,0.18016763546875,0.34544777718749997,-4.10579722109375,1.267846109375,3.763326025
