id,timestamp,acc_x,acc_y,acc_z,gyro_x,gyro_y,gyro_z
1,1747486216040,-0.07590181,0.29945824,1.00576,-0.056459017,0.20453078,-0.165116
2,1747486216050,2.3295264,-1.2556745,0.36022848,-0.6066681,0.39095205,5.859487
3,1747486216060,2.3100019,-1.3066825,0.35876414,-1.1590078,0.43729106,6.0240703
4,1747486216070,2.34477995,-1.31961755,0.41184659,-1.38990385,0.59974388,6.14977165
5,1747486216080,2.4426468,-1.3535415,0.54632217,-1.81387905,0.9968212,6.40543525
6,1747486216090,2.7756631,-1.3093672,0.94913864,-2.1635521,1.5225292,6.70317675
7,1747486216100,3.0470545,-1.2947236,1.0579882,-2.1182783,1.5121429,6.8070397
8,1747486216110,3.4443798,-1.138527,1.1307173,-1.6202673,0.6380934,6.5337996
9,1747486216120,3.5919125000000003,-0.94376935,1.1227854,-1.21839625,-0.0146473999999999,6.3063658
10,1747486216130,3.9656863,-0.34802565,0.8073414,-0.3818973049999999,-1.217331,5.813947300000001
11,1747486216140,3.7885005,0.28457075,-0.6723777,0.47723848,-2.1869879,5.2464275
12,1747486216150,3.5393183,0.53887844,-1.3838046,-1.5286545,-0.19014971,5.3002234
13,1747486216160,3.2918441,0.5874458,-1.5170598,-3.3491914,0.7669904,5.550028
14,1747486216170,3.16676485,0.564260365,-1.2304146,-4.06504905,1.0378339,5.8413778
15,1747486216180,3.1351593,0.56426036,0.07834238,-5.1734567,1.5435683,7.061638
16,1747486216190,5.4715195,1.8797289,1.206375,-3.2985914,0.7946873,8.274974
17,1747486216200,7.1115837,2.9516282,0.59183884,-2.3872576,0.3472762,7.5585837
18,1747486216210,7.9967794,4.0559874,0.16351835,-1.8386464,0.13954964,5.823268
19,1747486216220,7.9967794,4.826964,0.15497635,-1.2026836,0.13209279,3.510579
20,1747486216230,7.7335639,5.03807385,0.288597675,-0.82238418,0.131293845,2.8120318
21,1747486216240,6.95612,5.003906,0.43661842,1.4839134,-0.25246766,0.46498793
22,1747486216250,7.0513024,4.629522,-0.0026846298,1.8034927,-0.12410331,-0.46552056
23,1747486216260,6.9815016,4.176552,-0.2801777,1.707619,0.19760656,-1.3677995
24,1747486216270,6.8200578,3.5473723,-0.40342665,1.5462314,0.409327865,-1.7587516
25,1747486216280,5.821009,2.2697322,-0.5886661,0.725711415,1.132109835,-2.7057718
26,1747486216290,5.3863435,1.7357352,-0.50837123,-0.364320435,1.98671825,-3.43627695
27,1747486216300,5.19121975,1.5418317,-0.37938699,-1.2096078,2.68739595,-3.7989995
28,1747486216310,4.6248846,0.9601213,0.1598575,-1.9137475,3.3358757,-4.287689
29,1747486216320,4.1211505,0.34338856,1.0589644,-1.7965685,3.2836776,-4.6131277
30,1747486216330,3.7882566,0.14277348,1.3796556,-0.42876893,2.5118935,-5.1883707
31,1747486216340,3.456583,-0.013667206,1.5578175,0.5113269,2.107093,-5.3114085
32,1747486216350,3.2127695,-0.10689708,1.5580615,1.4471618,1.7923075,-5.405152
33,1747486216360,3.09818475,-0.15448824,1.5075416499999998,1.8615497,1.66687255,-5.43844135
34,1747486216370,2.8594969,-0.22392253,1.3844148,2.6173548,1.44369965,-5.4842477
35,1747486216380,2.52391805,-0.21733298,1.102650665,3.3904704,1.18457415,-5.5159395
36,1747486216390,2.2035928,-0.1513155,0.7155758,3.9414785,0.96140116,-5.6139436
37,1747486216400,2.2394693,-0.1513155,0.5869577,3.9585228,0.85540736,-5.8142133
38,1747486216410,2.3470986,-0.18645974,0.5776835,3.956925,0.63915867,-6.189719
39,1747486216420,2.37443295,-0.26345981,0.62490855,4.042146,0.217313945,-6.6373965
40,1747486216430,2.40494015,-0.42514774,0.70886425,4.205664,-0.443150015,-7.2800175
41,1747486216440,2.42605115,-0.5963539,0.7796408749999999,4.356399,-0.8974853249999999,-7.64007675
42,1747486216450,2.4171429,-0.8366282,0.8263778,4.4815675,-1.2146678,-7.93142625
43,1747486216460,2.1982236,-1.0672623,0.77097684,4.4826326,-1.0439591,-8.14448
44,1747486216470,2.16613005,-1.0815397,0.756943555,4.431499949999999,-0.99282645,-8.078167
45,1747486216480,2.1198812,-1.0931324,0.7682922,4.2887545,-1.077515,-7.846205
46,1747486216490,2.1198812,-1.0931324,0.7682922,4.2887545,-1.077515,-7.846205
47,1747486216500,2.088886,-0.9203399,0.7917217,4.2093925,-1.6399746,-7.59214
48,1747486216510,2.3004837,-0.7873287,0.69287854,3.8898132,-2.2301311,-7.411577
49,1747486216520,2.366379,-0.74413055,0.6977597,3.7326868,-2.2722092,-7.4813523
50,1747486216530,2.3854155,-0.732415795,0.68811945,3.6709014,-2.2762039,-7.53355015
51,1747486216540,2.476937,-0.7394935,0.6208816,3.4509242,-2.2732744,-7.748201
52,1747486216550,2.4960955,-0.7559673250000001,0.6091668800000001,3.3997915,-2.3068302000000003,-7.8075895
53,1747486216560,2.5015867,-0.82198477,0.69507504,3.3779535,-2.8442562,-7.9846897
54,1747486216570,2.4576566,-0.84199744,0.67677075,3.4365432,-3.1622376,-8.001734
55,1747486216580,2.3773615,-0.88324314,0.6045298,3.397661,-3.4434674,-7.935155
56,1747486216590,2.310734,-0.9127741,0.528628,3.251187,-3.5840824,-7.7375484
57,1747486216600,2.4222682,-0.844438,0.375116,2.700978,-3.4983284,-7.3125076
58,1747486216610,2.4010353,-0.7492558,0.3355787,2.382464,-3.406183,-7.20172
59,1747486216620,2.4010353,-0.7492558,0.3355787,2.382464,-3.406183,-7.20172
60,1747486216630,2.2597260500000003,-0.6773808800000001,0.346561275,1.89590435,-3.1417311,-6.97082425
61,1747486216640,2.1247623,-0.6882414,0.39781332,1.6000272,-2.7478497,-6.6669574
62,1747486216650,1.9819889,-0.87201655,0.4412555,1.3241237,-2.0730047,-6.2259383
63,1747486216660,1.7872313,-0.93205464,0.45052966,1.2144015,-1.6793894,-6.035256
64,1747486216670,1.6828968,-0.949870795,0.46688151,1.1558119,-1.401888,-5.8983693
65,1747486216680,1.2717823,-1.0526189,0.45516676,1.1350393,-1.3171995,-5.7407103
66,1747486216690,0.9691513,-1.1805049,0.37755656,1.0588728,-1.4157364,-5.5478973
67,1747486216700,0.618319025,-1.34707395,0.30580372,0.85593995,-1.4921692,-5.38890645
68,1747486216710,-0.099087246,-1.7215798,0.20183535,0.3834952,-1.4839134,-5.1883707
69,1747486216720,-0.292380588,-1.824694,0.21330604,0.2484729299999999,-1.39443115,-5.13670535
70,1747486216730,-0.8427297,-2.1474595,0.34460884,-0.040480047,-1.0998856,-4.8623996
71,1747486216740,-1.6088253,-2.4659543,0.571338,-0.0053263223,-0.95660746,-4.5438857
72,1747486216750,-1.9126767,-2.5323381,0.5771954,0.20746025885,-0.8924253,-4.04001555
73,1747486216760,-2.1584423,-2.5762684,0.36437747,0.6556703,-0.5901565,-2.9539783
74,1747486216770,-2.20652165,-2.6367945500000003,0.2032996869999999,0.65620292,-0.49321744,-2.68579805
75,1747486216780,-2.3863916,-2.8527853,-0.40659937,0.30200246,-0.15499598,-1.8290591
76,1747486216790,-2.37907,-3.2156982,-1.1841658,-1.4487597,0.17630127,-1.2048141
77,1747486216800,-2.5054917,-3.3911755,-1.3152245,-2.6413233,0.56618804,-0.9981528
78,1747486216810,-2.6037247,-3.50954325,-1.17733215,-3.10551225,0.74488617,-0.8527442
79,1747486216820,-3.0494952,-3.782155,-0.46102414,-3.9207058,1.0333065,-0.20293288
80,1747486216830,-3.1659107,-3.841949,0.091033354,-3.6543896,0.84635264,0.50173956
81,1747486216840,-2.7820086,-3.5315084,0.84614646,-1.6223978,-0.12197278,1.8461033
82,1747486216850,-2.5064678,-3.3382149,0.75950617,-0.41172472,-0.42983422,2.6434538
83,1747486216860,-2.0937672,-3.1005034,0.48665017,0.108124346,-0.32117724,3.2682314
84,1747486216870,-1.6898522,-2.8498566,0.21745501,0.20612867,0.05486112,3.8269625
85,1747486216880,-1.2822767,-2.6289847,0.059794027,0.013315806,0.5225122,4.346279
86,1747486216890,-0.46029195,-2.2245817,0.15326795,-0.5118596,1.2559468,5.2320466
87,1747486216900,-0.007321717,-2.0469081,0.30946457,-0.65886605,1.4572818,5.575594
88,1747486216910,0.1956118765,-1.9735689,0.37438382,-0.683899775,1.51613765,5.71807315
89,1747486216920,0.595743735,-1.81822645,0.49836491,-0.69135665,1.60508725,5.97400315
90,1747486216930,0.946454,-1.66495855,0.60477385,-0.62664185,1.6620789,6.185192000000001
91,1747486216940,1.6293261,-1.4077222,1.1690342,-0.29667616,1.6831179,6.518353
92,1747486216950,1.8272567,-1.3140042,1.3435352,0.90973586,1.6378441,6.909305
93,1747486216960,2.0466642,-1.2366381,1.3791674,1.6207999,1.7108147,7.077617
94,1747486216970,2.1602728,-1.18148115,1.34048435,1.9289276,1.76594215,7.117298
95,1747486216980,2.37260255,-1.0565238,1.19795495,2.44558085,1.90602445,7.164169749999999
96,1747486216990,2.7868898,-0.7597502,0.733148,2.8043087,2.457565,7.085074
97,1747486217000,2.8908582,-0.6560259,0.61038715,2.6237464,2.7398603,6.9742866
98,1747486217010,2.9303954,-0.5767073,0.5359497,2.2423816,3.1531827,6.8326063
99,1747486217020,2.9152638,-0.5602334,0.5332650800000001,2.06900985,3.303385,6.8022463
100,1747486217030,2.86706245,-0.55571832,0.54180708,1.555286,3.7289581,6.784137
101,1747486217040,2.8339927,-0.56767714,0.5530337,1.555286,3.7289581,6.784137
102,1747486217050,2.7129405,-0.6496804,0.58891016,0.59761333,4.4362936,7.0493875
103,1747486217060,2.915996,-0.67042524,0.69214636,0.36804888,4.4868937,6.9828086
104,1747486217070,3.107581,-0.47737598,0.84931916,0.5161206,4.0719733,6.3047676
105,1747486217080,3.03814665,-0.436618415,0.8155172799999999,0.590689115,3.8852857,6.12473795
106,1747486217090,2.7783477,-0.3612047,0.6467517,0.69295454,3.3486588,5.739645
107,1747486217100,2.72172635,-0.3568116799999999,0.56462645,0.61998392,3.3116409,5.7377808
108,1747486217110,2.6372825,-0.33618885,0.4310051,0.404534185,3.3172336,5.78678295
109,1747486217120,2.634842,-0.28725538,0.30970863,-0.1486044,3.5228295,5.9713397
110,1747486217130,2.7895741,-0.14130914,0.277005,-1.1446266,4.114584,6.0821276
111,1747486217140,2.82923355,-0.126909765,0.32203356,-1.38484375,4.25466635,6.057892799999999
112,1747486217150,2.894763,-0.07687803,0.54668826,-1.9489013,4.5428205,5.9388494
113,1747486217160,2.9145316,-0.054302735,0.61368198,-2.09617405,4.544951,5.8118167
114,1747486217170,2.9343002,-0.03172744,0.6806757,-2.2434468,4.5470815,5.684784
115,1747486217180,2.8281353,0.040513504,0.60184515,-2.5052357,4.4474793,5.4991615
116,1747486217190,2.7895743,0.050885938,0.576951325,-2.620018,4.3212453,5.44483305
117,1747486217200,2.7231906500000003,0.096158556,0.5400986999999999,-2.70017905,4.0874197500000005,5.4227287
118,1747486217210,2.6804807,0.39366436,0.62478656,-2.62534425,3.63122025,5.39556425
119,1747486217220,2.7419832,0.5857374,0.63235235,-2.2849922,3.1462586,5.289038
120,1747486217230,2.8638897,0.708010075,0.572070175,-2.18112895,3.15078595,5.14176525
121,1747486217240,3.0699961,0.968419175,0.40440283,-1.9387813,3.3417346,4.535896
122,1747486217250,3.137112,1.3030217,-0.021721095,-1.99870245,3.5023233,4.2602589
123,1747486217260,3.04009905,1.3467079,-0.3194709275,-2.4948493000000003,3.8623827,3.8189731
124,1747486217270,2.90550135,1.41150505,-0.701298505,-3.149188,4.0810282,3.67942335
125,1747486217280,2.8679166,1.432616,-0.78537625,-3.367301,4.100203,3.7055223
126,1747486217290,2.7139168,1.9927274,-0.5954997,-3.41364,2.6818032,3.6085835
127,1747486217300,2.9604144,2.5101287,-0.44906533,-2.9161615,1.5765914,3.6123118
128,1747486217310,3.9371314,3.3692105,-0.6355251,-2.3315976,0.816791524,3.65518865
129,1747486217320,4.24537585,3.62864325,-0.71154892,-1.5893746,-0.029561091,3.65305815
130,1747486217330,4.96034165,4.11285265,-0.87335887,-1.40827965,0.108656985,3.3377399
131,1747486217340,5.9837956,4.6202474,-1.0111293,-1.4476944,1.3635385,2.2631543
132,1747486217350,6.2776408,4.6507547,-0.7584079699999999,-1.0527476,2.3473102,1.1334413628
133,1747486217360,6.5104713,4.4333,-0.136428,0.56672066,3.1435955,-1.2303804
134,1747486217370,6.37440915,4.168864,-0.033313815,1.33371113,2.58379905,-1.8013622
135,1747486217380,6.1202235,3.6248603,0.088714812,2.89299205,1.211738385,-2.8895298
136,1747486217390,5.5166698,2.856202,-0.09322987,4.977448,-1.0759171,-4.278102
137,1747486217400,4.9437454,2.46034115,-0.655659785,5.02218915,-1.56700405,-4.64215615
138,1747486217410,3.999854,1.7711234,-1.9836973,3.6123118,-1.536644,-4.996623
139,1747486217420,3.9218777,1.684117,-2.12280995,1.7028252,-0.9219864,-4.9300437
140,1747486217430,3.7748333,1.5229172,-2.1972474,0.774979875,-0.695351375,-4.91779335
141,1747486217440,3.5402944,1.2900866,-1.6813104,-1.6010925,-0.21944448,-4.9316416
142,1747486217450,3.39971745,1.132547635,-1.0603067350000002,-2.2469091,-0.207726565,-4.97611645
143,1747486217460,3.2052038,0.8332114,0.06955632,-2.896454,-0.30679616,-5.144162
144,1747486217470,3.1754289,0.7730513,0.33289411,-2.7148264,-0.40613208,-5.25202
145,1747486217480,3.05815935,0.6728658249999999,0.8211306,-2.20243425,-0.5781723000000001,-5.4839813500000005
146,1747486217490,2.7651687,0.54815257,1.4169964,-0.7590009,-0.660464,-5.8605523
147,1747486217500,2.46327,0.35925224,1.7860109,1.3528858,-0.4644553,-6.199839
148,1747486217510,2.3779719000000004,0.31129502,1.7551377,1.84104325,-0.433562635,-6.2847938
149,1747486217520,2.1416023,0.12593354,1.5473229,3.1356058,-0.44048685,-6.526343
150,1747486217530,2.0137165,-0.038316987,1.3071706,3.7284255,-0.58056915,-6.6786757
151,1747486217540,1.8726513,-0.3372871,0.8659151,4.3697147,-1.045557,-6.964699
152,1747486217550,1.7681948,-0.44857723,0.6892177,4.4442835,-1.3315805,-7.0611053
153,1747486217560,1.6591012,-0.5444917,0.6016011,4.418717,-1.758219,-7.0898676
154,1747486217570,1.5756336000000002,-0.5576708,0.5963538749999999,4.3928843,-1.96115185,-7.0552466
155,1747486217580,1.2554306,-0.55401,0.6228341,4.2733083,-2.54758,-6.8368673
156,1747486217590,1.3303561,-0.48494175,0.6262509,3.875432,-3.0546458,-6.2951803
157,1747486217600,1.4589742,-0.3441207,0.6653,3.5995286,-3.0322752,-6.074138
158,1747486217610,1.6698397,-0.20256752,0.64309084,3.2629051,-2.8288097,-5.8983693
159,1747486217620,1.7706353,-0.164616615,0.63576912,3.06290155,-2.67487905,-5.839779849999999
160,1747486217630,2.0094452,-0.1026260749999999,0.652609075,2.6847326,-2.3776703,-5.7950387
161,1747486217640,2.2477672,-0.023429496,0.91155386,2.2093585,-2.2551649,-6.2531023
162,1747486217650,2.2109146,-0.12471326,1.0645777,2.2588933,-2.5182853,-6.322345
163,1747486217660,2.1496563,-0.16473864,1.2634844,2.4527714,-2.9087045,-6.35377
164,1747486217670,2.10413955,-0.171816295,1.32693925,2.6035063000000003,-3.08473955,-6.3465795
165,1747486217680,2.0112758,-0.23014598,1.4350566,3.069027,-3.4424021,-6.2834625
166,1747486217690,1.97845015,-0.25613808,1.33596935,3.284743,-3.3031188,-6.17613695
167,1747486217700,1.8841219,-0.28457075,1.0423685,3.5910065,-3.0003173,-5.9686766
168,1747486217710,1.8913216,-0.306413875,0.96549045,3.58115275,-2.97235415,-5.914880800000001
169,1747486217720,1.94513625,-0.35656764,0.8352858999999999,3.53880845,-2.9643646500000003,-5.8208715
170,1747486217730,2.0048083,-0.418070065,0.712769175,3.4248252,-2.99339305,-5.707421
171,1747486217740,1.9856498,-0.55840296,0.41221267,2.7542412,-2.812298,-5.2608085
172,1747486217750,1.91560535,-0.565846715,0.39403042,2.5592978,-2.7015105000000004,-5.143363000000001
173,1747486217760,1.6093135,-0.5513253,0.40635532,2.1965753,-2.4234765,-4.88184075
174,1747486217770,1.4783768,-0.56047745,0.40891792,1.89643705,-2.0612867,-4.5638595
175,1747486217780,1.2693417500000002,-0.58646955,0.4067214,1.67992205,-1.7017600000000002,-4.281031499999999
176,1747486217790,0.981842275,-0.7209450850000001,0.41929035,1.5539545499999998,-1.44716175,-4.0677122
177,1747486217800,0.5464442,-0.9606094,0.49568027,1.6676716,-1.6149409,-3.7907436
178,1747486217810,0.30421737,-1.1017965,0.487626385,1.7955033,-1.79017695,-3.72496355
179,1747486217820,-0.19402552,-1.3864892,0.3738957,2.3419838,-2.6977823,-3.4168358
180,1747486217830,-0.19402552,-1.3864892,0.3738957,2.3419838,-2.6977823,-3.4168358
181,1747486217840,-0.66798469,-1.6333531,-0.008664035,2.1606226,-2.7771445,-3.309244
182,1747486217850,-1.0200372,-1.7766147,-0.273710215,1.3789848,-2.3840618,-3.2107072
183,1747486217860,-1.33304065,-1.8949825,-0.46090213,0.9653959,-2.07034145,-3.1225564500000003
184,1747486217870,-1.63640385,-2.03738995,-0.5381462349999999,-0.257794,-1.003479125,-2.72015275
185,1747486217880,-1.8287209,-2.2126231,-0.51349646,-1.8024274,0.34567833,-2.1859226
186,1747486217890,-1.9846735,-2.3348956,-0.39830142,-1.9483686,0.511859565,-2.1901838
187,1747486217900,-2.1110952000000003,-2.4355693,-0.3636453,-2.097772,0.804008335,-2.202967
188,1747486217910,-2.690243,-3.163226,-0.55840296,-1.8466359,0.78563255,-2.2221417
189,1747486217920,-2.690243,-3.163226,-0.55840296,-1.8466359,0.78563255,-2.2221417
190,1747486217930,-3.5002692,-3.6310837,-0.47054234,-1.2916331,0.009054748,-1.5616777
191,1747486217940,-3.790453,-3.7299268,-0.5039782,-0.91186637,-0.48363006,-0.7701862
192,1747486217950,-3.9078445,-3.7460344,-0.54083085,-0.6492787,-0.8277105,0.26631612
193,1747486217960,-3.4253433,-3.4416952,-0.77561396,-0.70200926,-0.28975195,2.8138962
194,1747486217970,-3.1832385,-3.33296775,-0.86103398,-0.91612743,-0.0620516649999999,3.28793885
195,1747486217980,-2.9411337,-3.2242403,-0.946454,-1.1302456,0.16564862,3.7619815
196,1747486217990,-2.0731443,-2.89049205,-1.03468065,-1.92786235,0.6671218999999999,4.7920921
197,1747486218000,-1.4943626,-2.67059635,-1.00942075,-2.41575345,0.8570052800000001,5.2733253
198,1747486218010,-0.63979613,-2.3738228,-0.8324793,-2.9574405,0.83463468,5.69756685
199,1747486218020,-0.06931226,-2.186753,-0.6760386,-3.2714272,0.7462177,5.9207397
200,1747486218030,0.4373506,-1.8519063,-0.4144092,-3.3880737,0.13528858,6.114085
201,1747486218040,0.59159476,-1.7913802,-0.3180066,-3.4338800000000003,-0.03062636,6.28053275
202,1747486218050,0.93303084,-1.7332945,-0.0319715,-3.5238948,-0.36005938,6.787865
203,1747486218060,1.1016744,-1.7884516,0.08932495,-3.5665054,-0.330232,7.3870764
204,1747486218070,1.1736713,-1.8065118,0.14899694,-3.56277705,-0.291083515,7.48987435
205,1747486218080,1.4096746,-1.8357986,0.28408262,-3.5196338,-0.16245283,7.7157106
206,1747486218090,1.5238934,-1.84909975,0.29872606,-3.50338855,-0.145674915,7.7364831
207,1747486218100,2.3473425,-1.8043152,0.46322066,-3.4653053,-0.25885928,7.64274
208,1747486218110,2.557964,-1.654708,0.72753465,-3.012568,-1.1345067,6.9492526
209,1747486218120,2.59286425,-1.590399,0.8317471249999999,-2.66822125,-1.49350075,6.7886641
210,1747486218130,2.63618435,-1.51071435,0.960365275,-2.0620857,-2.00030035,6.6089008
211,1747486218140,2.7292922,-1.530727,0.93986446,-1.4349113,-2.143312,6.6887956
212,1747486218150,2.7168453,-1.530727,0.91863143,-1.0929613,-1.593103,6.7282104
213,1747486218160,2.6641288,-1.5736811,0.87201655,-1.08523815,-1.33158055,6.66376185
214,1747486218170,2.59432855,-1.61346245,0.8509055750000001,-1.11906035,-0.76352827,6.531935150000001
215,1747486218180,2.277542,-1.6839949,0.85322416,-1.2234563,-0.187486538,6.46908465
216,1747486218190,2.0747306,-1.6842391,0.95011485,-1.3502227,0.41918156,6.620086
217,1747486218200,2.1250064,-1.65849105,1.041758375,-1.28577425,0.462857415,6.7055735
218,1747486218210,2.1752822,-1.632743,1.1334019,-1.109472985,0.417583675,6.80411035
219,1747486218220,2.3993268,-1.4743499,1.2049106,-0.48842376,-0.2775014,6.599846
220,1747486218230,2.4066485,-1.4368871,1.2318790000000002,-0.35499938,-0.354733065,6.5447185
221,1747486218240,2.3380685,-1.2332213,1.2871579,0.18269286,-0.2050634,6.3788037
222,1747486218250,2.2997513,-1.1856301,1.2402989,0.28336033,0.16298546,6.370814
223,1747486218260,2.267048,-1.1482893,1.1753798,0.30200246,0.5917544,6.3937173
224,1747486218270,2.2631428,-1.120955,1.0889834,0.24714136,0.9965549,6.3894563
225,1747486218280,2.4164107,-1.0736078,1.0365112,0.15073492,1.2410331,6.236058
226,1747486218290,2.5192809,-1.0047837,0.924854975,0.0197073899999999,1.1646004,6.041647299999999
227,1747486218300,2.5801733,-0.8856837,0.73339206,-0.3222425,0.9086706,5.8317904
228,1747486218310,2.6062875,-0.88690406,0.6386978,-0.582167,0.8330368,5.943643
229,1747486218320,2.63337775,-0.87482321,0.58939825,-0.7507451,0.8444884,6.0198095
230,1747486218330,2.6973207,-0.72070104,0.5261874,-1.2373047,1.009338,6.3005066
231,1747486218340,2.7939675,-0.41977844,0.55962324,-1.6117451,1.2378373,6.5748124
232,1747486218350,2.9281988,-0.39146784,0.588178,-1.8679413,1.037035,6.4017067
233,1747486218360,2.9774985,-0.29726174,0.81685966,-1.9547603,0.74035877,6.0054283
234,1747486218370,2.98079325,-0.26394792,0.88678205,-1.85356015,0.6820355650000001,5.93831665
235,1747486218380,2.975302,-0.07272906,0.99770606,-1.3640711,0.5592638,6.0810623
236,1747486218390,3.7099142,0.5706058,0.55815893,-0.5635249,0.051665325,6.598248
237,1747486218400,4.4608784,1.0369992,0.13203497,-0.52837116,-0.5203817,6.544985
238,1747486218410,5.130572,1.4870408,-0.11275445,-0.78563255,-1.1712582,6.2499065
239,1747486218420,5.2750535,1.7821059,-0.1308146849999999,-1.007473875,-1.3853764000000002,6.03445675
240,1747486218430,5.4566317,2.6838975,0.14106509,-1.6207999,-1.6729978,5.4983625
241,1747486218440,5.927418,3.6825798,0.9515792,-1.3299826,-0.4495416,4.8091364
242,1747486218450,6.101431,4.0091286,1.001855,-0.86499476,0.39521313,4.094344
243,1747486218460,6.051644,4.2529416,1.0011228,-0.32117724,1.2287825,3.289004
244,1747486218470,5.9192427,4.3980336,1.0271149,0.063915865,1.5664714000000002,3.00271425
245,1747486218480,5.7615814,4.659784999999999,1.05701195,0.947819085,2.0317256500000003,2.48073475
246,1747486218490,6.852884,5.010251,0.3682824,3.3720946,1.474326,0.2908172
247,1747486218500,6.852884,5.010251,0.3682824,3.3720946,1.474326,0.2908172
248,1747486218510,7.0273843,4.370089,-0.49226347,3.8067226,0.5544701,-2.8229508
249,1747486218520,6.6994934,4.0829557,-0.598672435,3.4786211,0.5161206,-3.5103128
250,1747486218530,5.128863,2.4459417,-0.5515694,1.5249261,0.9331717,-5.190501
251,1747486218540,4.706644,1.9016942,-0.33435842,0.7930894,1.3432984,-5.413674
252,1747486218550,4.353493,1.4560456,-0.036120474,0.27643612,1.707619,-5.4925036
253,1747486218560,4.0393915,1.1409676,0.29140437,0.08362326,1.9803267,-5.517537
254,1747486218570,3.82901415,0.84138735,0.5332651150000001,0.25885926,2.17180785,-5.47892135
255,1747486218580,3.5522534,0.4634647149999999,0.83906883,0.62451128,2.37447435,-5.4403057
256,1747486218590,3.4302247,0.23746772,0.9850151,1.2298478,2.2178805,-5.5223308
257,1747486218600,3.261337,0.12178457,1.0848345,1.8439728,1.7907095,-5.7028933
258,1747486218610,3.052668,0.018060237,1.1099724,2.3595607,1.3635385,-5.813148
259,1747486218620,2.8912242,-0.0593059115,1.0839803,2.80670545,0.94622115,-5.9063587
260,1747486218630,2.6633968,-0.163884445,1.0171086,3.40511775,0.398675225,-6.0616212
261,1747486218640,2.438864,-0.24259292,0.86201024,3.7412088,0.13688648,-6.2568307
262,1747486218650,2.324157,-0.2894519,0.788549,3.8413436,0.094808534,-6.4065003
263,1747486218660,2.2115246,-0.36022851,0.7338801500000001,3.88422045,0.062051653,-6.58040465
264,1747486218670,2.0437353,-0.48689421,0.67262175,3.95799005,-0.076166409,-6.86802615
265,1747486218680,1.9240253,-0.60221125,0.7225314700000001,4.146542,-0.60240704,-7.152718
266,1747486218690,1.777713,-0.6884855,0.8150291700000001,4.2698465,-0.8602010200000001,-7.20651385
267,1747486218700,1.6046765,-0.78513217,0.8180799,4.5934205,-1.6074841,-7.289072
268,1747486218710,1.6761851,-0.81417495,0.60697037,4.5598645,-2.3238745,-7.3188996
269,1747486218720,1.70681425,-0.7804950749999999,0.517889485,4.41738525,-2.38938825,-7.331682649999999
270,1747486218730,1.7869871,-0.6816519,0.2933568,3.8035266,-2.3920512,-7.3444657
271,1747486218740,1.811393,-0.6365013,0.19426957,3.2101743,-2.1315942,-7.3029203
272,1747486218750,1.8128573,-0.5976962,0.17791773,2.582201,-1.748099,-7.217167
273,1747486218760,1.9124327,-0.54839665,0.5195979,1.7347832,-1.2884374,-6.982276
274,1747486218770,1.9192662,-0.528628,0.7302193,1.7134778,-1.4066817,-6.91836
275,1747486218780,1.8514184,-0.5125202,0.8991069,1.8375812,-1.6064188,-6.838998
276,1747486218790,1.7923565,-0.5276518,1.01479,2.0240026,-1.8130801,-6.740461
277,1747486218800,1.6510473,-0.55718267,1.057012,2.3856597,-1.7172064,-6.4682856
278,1747486218810,1.60003935,-0.549250835,1.04163635,2.525742,-1.5020229,-6.246178
279,1747486218820,1.470933,-0.5266756,0.97134787,2.583799,-1.3827133,-6.113286499999999
280,1747486218830,1.4736177,-0.51740134,0.8998391,2.7324033,-1.0636666,-5.727927
281,1747486218840,1.5280424,-0.51642513,0.810026,2.8144288,-0.9800433,-5.5170045
282,1747486218850,1.7843026,-0.5017817,0.7175283,3.005111,-1.3571469,-5.5186024
283,1747486218860,1.8694785,-0.53350914,0.65993077,3.0786142,-1.6410398,-5.6965017
284,1747486218870,1.8401916,-0.55535227,0.663835685,3.118029,-1.7789916,-5.78438585
285,1747486218880,1.6107779,-0.630888,0.68336034,3.2623725,-2.1353226,-5.923403
286,1747486218890,1.3903941,-0.66944903,0.70142055,3.377421,-2.2647521,-5.8142133
287,1747486218900,1.0391958,-0.643823,0.68482465,3.6203012,-2.108691,-5.2549496
288,1747486218910,0.9191196,-0.62478656,0.60770255,3.7097836,-1.8935076,-4.826713
289,1747486218920,0.7873287,-0.61746484,0.5110559,3.6863477,-1.7971011,-4.453338
290,1747486218930,0.7304634,-0.6160005,0.47005424,3.627758,-1.6948358,-4.1225734
291,1747486218940,0.8049008,-0.73388016,0.4612682,3.610714,-1.623463,-3.8988678
292,1747486218950,0.9266854,-0.8710403,0.45004156,3.614975,-1.617604,-4.009123
293,1747486218960,0.7750038,-0.95426385,0.43759465,3.6418729,-1.69110725,-4.2048653
294,1747486218970,0.107385196,-1.2183337,0.4148973,3.7571878,-1.9600866,-4.7079363
295,1747486218980,-0.144481892,-1.3844147,0.40415879,3.83175635,-2.021073,-4.72604585
296,1747486218990,-1.3591548,-2.003466,-0.1444819,3.8599858,-1.9105518,-3.4791536
297,1747486219000,-1.40699,-2.1594186,-0.7473033,3.1302795,-1.8748654,-2.6690202
298,1747486219010,-1.37086955,-2.1191491,-0.98501505,2.4562335,-1.88684965,-2.32999975
299,1747486219020,-1.2340755,-2.03189855,-1.28776805,0.978445435,-1.7534253,-1.8029601
300,1747486219030,-0.9957536,-2.036902,-1.2515256,-1.4327807,-0.93636745,-1.5584819
301,1747486219040,-1.0363891,-2.1511207,-1.17367135,-2.2027006,-0.52597432,-1.66261155
302,1747486219050,-1.824816,-3.1393082,-0.36047253,-5.088236,0.9981528,-2.326005
303,1747486219060,-2.438376,-3.5366337,0.060770255,-5.2794504,1.0104034,-2.2461102
304,1747486219070,-2.728438,-3.7096703,0.1967101275,-5.1271177,0.91932327,-1.9939088
305,1747486219080,-3.5327287,-4.1538544,0.51544887,-4.450675,0.83037364,-0.9816412
306,1747486219090,-3.77812815,-4.1658132000000005,0.468589885,-3.84480585,0.97791277,0.1243696
307,1747486219100,-3.98045155,-4.12737415,0.33423639,-3.01416585,1.22691835,1.8357169
308,1747486219110,-3.491971,-3.8875878,0.09493827,-2.6186864,1.42266065,2.91909085
309,1747486219120,-3.18848585,-3.7468889,-0.018060235,-2.32866815,1.6088155999999998,3.71857165
310,1747486219130,-2.6691320000000003,-3.46780955,-0.235271195,-2.16461745,1.76274635,4.279966
311,1747486219140,-1.5500076,-2.8527853,-0.6128277,-2.1283984,1.8338528,4.9380336
312,1747486219150,-1.34255895,-2.7314888,-0.6367453249999999,-2.1960427,1.60508725,5.3273876
313,1747486219160,-1.1351103,-2.6101923,-0.66066295,-2.263687,1.3763217,5.7167416
314,1747486219170,-0.64138247,-2.42653915,-0.667252475,-2.3979103,1.007740185,5.9899818
315,1747486219180,0.091887555,-2.1708891,-0.653341225,-2.6463832,0.48948902,6.346845500000001
316,1747486219190,0.976229,-1.8650855,-0.41074833,-3.2463934,-0.16405073,6.6871977
317,1747486219200,1.2478647,-1.7913802,-0.208913,-3.4125748,-0.330232,6.8666945
318,1747486219210,1.4677603,-1.7332945,-0.016107777,-3.4951327,-0.43782368,7.069095
319,1747486219220,1.5548886999999998,-1.70937695,0.0782203465,-3.4874095,-0.49854374,7.17162675
320,1747486219230,2.156246,-1.6722802,0.48006064,-3.089267,-1.0753845,7.4994617
321,1747486219240,2.2665596,-1.6512914,0.53717,-2.9720878500000003,-1.2029499,7.5191691
322,1747486219250,2.3473425,-1.62786185,0.53948855,-2.78007385,-1.44716175,7.59506925
323,1747486219260,2.6868262,-1.5258459,0.48128092,-2.7084348,-1.7060211,7.770039
324,1747486219270,2.81654275,-1.4930202,0.45992591,-2.79498755,-1.70309155,7.80519265
325,1747486219280,3.342852,-1.3135161,0.55669457,-3.5015242,-1.3337111,7.6869483
326,1747486219290,3.3609123,-1.291795,0.7804951,-3.7364151,-1.0274476,7.4318175
327,1747486219300,3.3457806,-1.3325526,1.1138773,-3.7284255,-0.7451525,7.159642
328,1747486219310,3.2302196,-1.34182675,1.41760655,-3.17448805,-0.59654811,6.885336499999999
329,1747486219320,2.9735935,-1.3745304,1.7572123,-1.8903117,-0.4596616,6.43473
330,1747486219330,2.8970815,-1.3936889,1.7074245499999998,-1.561145,-0.5086637700000001,6.375874
331,1747486219340,2.6619325,-1.4533609,1.4931422,-0.96832538,-0.6298376,6.30796335
332,1747486219350,2.591766,-1.4588522,1.4096746,-0.508131165,-0.773914605,6.3329971
333,1747486219360,2.4758387500000003,-1.4683704,1.2361499,-0.044208474,-0.9054748,6.4789386
334,1747486219370,2.3571049,-1.4648316,1.03663315,0.081759048,-0.8080031000000001,6.65337565
335,1747486219380,2.2985312,-1.4539711,0.8992289499999999,0.242081345,-0.64368605,6.9202242
336,1747486219390,2.3719923,-1.4123594,0.79831123,0.32597092,-0.41758367,7.166034
337,1747486219400,2.37992415,-1.3783133,0.748767615,0.312921435,-0.358994125,7.20970975
338,1747486219410,2.3979845,-1.2987505499999998,0.634548815,0.218645535,-0.25353294,7.32449195
339,1747486219420,2.5998199,-1.17281705,0.484453615,-0.34700989,-0.022370555,7.5761607
340,1747486219430,3.0904968,-1.0118613,0.51788944,-1.112935,0.339020395,7.7402115
341,1747486219440,3.2542593,-0.9117979,0.80392456,-1.7752632,0.9129316,7.5378113
342,1747486219450,3.16774105,-0.8168596,1.08873938,-1.82586325,1.03943175,7.41157745
343,1747486219460,2.9897013,-0.5613316,1.4492118,-1.2271847,0.9416938,6.9449916
344,1747486219470,2.9979992,-0.30165476,1.3132721,-0.5608617,0.3888215,6.845922
345,1747486219480,3.0377805,0.009274175,1.0260166,-0.16884442,-0.13848437,6.7031765
346,1747486219490,3.13845405,0.1830429375,0.8588374299999999,-0.1057275,-0.378701515,6.53273425
347,1747486219500,3.2019090500000003,0.62612885,0.336676983,-0.19547603,-0.6593987,5.9388494
348,1747486219510,2.8893938,0.9576807,-0.20085911,-1.6197346,0.41918156,5.5968995
349,1747486219520,2.7251432,1.0623811,-0.1330112,-2.0887173,0.82238418,5.654423749999999
350,1747486219530,2.800313,1.2171135,0.1718163,-3.2362735,1.7875137,5.7992997
351,1747486219540,2.9918978,1.470689,0.48713827,-3.4951327,1.8311896,5.768407
352,1747486219550,4.0393915,2.4037197,1.0216236,-3.1872714,1.0753845,5.6267266
353,1747486219560,4.43757105,2.6668135,1.053107,-2.4381241,-0.0500673999999999,5.34736105
354,1747486219570,5.1715733,3.2563338,1.0179628,-0.9257148,-1.9068234,4.6221824
355,1747486219580,5.7793975,3.95580165,0.862254265,-0.59228704,-1.8642128,4.3643885
356,1747486219590,6.8768005,5.7104516,0.09200958,0.2247708,-0.9667275,3.3172336
357,1747486219600,6.91865655,5.7143564,-0.070288485,0.34967305,0.041279,2.1544974
358,1747486219610,6.948554,5.5835416,-0.329721355,0.53103435,1.347027,-0.2892193
359,1747486219620,6.8857095,5.21513725,-0.46224445,0.562193325,1.17711725,-0.8261126000000001
360,1747486219630,6.8348236,4.9814525,-0.49763274,0.5933523,1.0072075,-1.3630059
361,1747486219640,6.5502524,3.6701329,-0.8188121,-0.16564862,-0.060720075,-3.3449304
362,1747486219650,6.28301,3.0690198,-0.7475473,-0.92731273,-0.113983296,-4.055462
363,1747486219660,5.50886,1.965637,-0.076389916,-2.2226744,0.8362326,-4.8735847
364,1747486219670,5.3396065,1.71962735,0.190120592,-2.3156187,1.15368145,-5.02778185
365,1747486219680,4.850882,1.1192465,0.95011485,-2.1928468,1.8951055,-5.5015583
366,1747486219690,4.517011500000001,0.8412653,1.258359125,-1.50921337,1.96594555,-5.68478365
367,1747486219700,3.9581203,0.35607952,1.6488507,0.07350325,1.9068234,-5.92287
368,1747486219710,3.89271305,0.287255385,1.61602505,0.619983925,1.7435716,-5.97879665
369,1747486219720,3.7379808,0.13374338,1.4345685,1.8935076,1.170193,-6.160957
370,1747486219730,3.5998445,0.09005712,1.2895985,2.4383903,0.73822826,-6.283995
371,1747486219740,3.407771,0.05686534,1.1360865,3.1547806,0.05752428,-6.660566
372,1747486219750,3.2676823,0.03904916,1.0797093,3.3965957,-0.07456851,-6.888
373,1747486219760,3.153952,-0.040513504,1.0348027,3.5776906,-0.06924219,-7.1319456
374,1747486219770,3.0956221,-0.105554762,1.0243082,3.6629118,-0.0215716049999999,-7.2525868
375,1747486219780,2.9471131,-0.24210479,0.998560175,3.8461373,0.08468852,-7.482950150000001
376,1747486219790,2.5521066,-0.6457755,0.94206095,4.4831653,0.14966966,-7.9399486
377,1747486219800,2.421048,-0.79831123,0.9066727,4.765993,-0.07190535,-8.056063
378,1747486219810,2.2826674,-0.942305,0.80514485,4.9934273,-0.40107206,-8.11625
379,1747486219820,2.238127,-0.99648575,0.750476025,5.04402735,-0.64768078,-8.114918
380,1747486219830,2.1389177000000004,-1.0576221,0.6404061999999999,5.0677295,-1.1986888,-8.0858895
381,1747486219840,2.11695255,-1.0308978,0.51410659,4.7572048,-2.005094,-8.0033318
382,1747486219850,2.14611745,-0.98123215,0.401596205,4.20379985,-2.5451831,-7.911985299999999
383,1747486219860,2.1607609,-0.943769375,0.36254704,3.59207175,-2.49591465,-7.800399
384,1747486219870,2.1993219,-0.8939816949999999,0.403426625,2.8280108,-2.1116205,-7.636082
385,1747486219880,2.2402015,-0.84053314,0.5276518,1.8636801,-1.2048141,-7.437144
386,1747486219890,2.2028608,-0.76511943,0.7856203,1.33957,-0.48363006,-7.1127706
387,1747486219900,2.2171381500000003,-0.7488896650000001,0.8435839,1.3843112,-0.5107943,-6.945524
388,1747486219910,2.2226293,-0.73583263,0.99868226,1.5925703,-0.7440872,-6.8128986
389,1747486219920,2.187119,-0.7183825349999999,1.03370448,1.7571537,-0.9672601,-6.7484503
390,1747486219930,2.15148675,-0.69422087,1.0686046500000002,2.10416355,-1.4711302000000002,-6.6211512500000005
391,1747486219940,2.1613711,-0.6940988299999999,1.030043585,2.427205,-2.000833,-6.5127604
392,1747486219950,2.3675992,-0.7490117,0.85444444,2.8362665,-2.4975126,-6.4736123
393,1747486219960,2.43862,-0.75194037,0.8222289,2.8565066,-2.2551649,-6.562029
394,1747486219970,2.4112856,-0.750231985,0.79257592,2.8557076500000003,-2.0996363,-6.611829999999999
395,1747486219980,2.327818,-0.82052046,0.72875494,2.866094,-1.7390442,-6.708503
396,1747486219990,2.1852886,-0.8991069300000001,0.7061796499999999,2.9625004,-1.86421275,-6.560164800000001
397,1747486220000,1.9753993,-1.0604287,0.58158845,3.0578415,-2.2530344,-6.0991716
398,1747486220010,1.9053549,-1.0667742,0.48494175,2.9518478,-2.463424,-5.8142133
399,1747486220020,1.7329284500000002,-1.03870765,0.414287175,2.60616945,-2.34651125,-5.5194013
400,1747486220030,1.2678773,-1.0611609,0.3807293,1.9366508,-1.8285265,-4.8613343
401,1747486220040,1.0421244,-1.1475571,0.40000984,1.7006947,-1.5052186,-4.4906225
402,1747486220050,0.914116415,-1.22089635,0.39781332,1.61414195,-1.42479115,-4.35480125
403,1747486220060,0.6440671,-1.4597064,0.45248213,1.4460965,-1.2261194,-4.166782
404,1747486220070,0.4565091,-1.66105365,0.460780065,1.48444605,-0.997620165,-4.34814315
405,1747486220080,0.1299604905,-2.02189225,0.46456295,1.6271915,-0.788562,-4.557733750000001
406,1747486220090,-0.2853029,-2.7104998,0.25723633,2.0490363,-0.9864349,-4.5236454
407,1747486220100,-0.2853029,-2.7104998,0.25723633,2.0490363,-0.9864349,-4.5236454
408,1747486220110,-1.5370725,-3.2940407,-0.5886661,1.7699369,-2.3212113,-3.7401435
409,1747486220120,-1.84848955,-3.3716509500000003,-0.69666142,1.02052335,-2.32174395,-3.18194495
410,1747486220130,-2.1599066,-3.4492612,-0.80465674,0.2711098,-2.3222766,-2.6237464
411,1747486220140,-2.6572952,-3.6808712,-1.01479,-2.1092236,-1.5254587,-1.3800501
412,1747486220150,-2.8593748,-3.7658033,-0.7980672,-3.2479913,-1.0450244,-0.6711166
413,1747486220160,-2.9782307,-3.8248653,-0.046614934,-4.6221824,-0.09960223,0.9076053
414,1747486220170,-2.9782307,-3.8248653,-0.046614934,-4.6221824,-0.09960223,0.9076053
415,1747486220180,-2.87462835,-3.7830094,0.171450218,-4.6416235,0.287088785,1.5571503
416,1747486220190,-2.7734666,-3.6903896,0.2962855,-4.6887617,1.0956244,2.6051042
417,1747486220200,-2.838874,-3.64536105,0.312759365,-4.66852165,1.25940885,2.7680896
418,1747486220210,-3.0358281,-3.50258755,0.401474165,-4.2943474,1.4165354,3.3228261
419,1747486220220,-3.1673748,-3.4048426,0.4737151,-3.9404132,1.4098775,3.7145772
420,1747486220230,-2.8896377,-3.0870802,0.6274712,-2.3073628,0.7456851,4.9092712
421,1747486220240,-2.4334948,-2.894763,0.49397188,-1.3630059,0.3898868,5.4680023
422,1747486220250,-1.6512914,-2.4366674,-0.004148973,0.056459017,-0.09427591,6.503972
423,1747486220260,-1.2195541,-2.268024,-0.26358184,0.4282363,-0.0793622,7.2491245
424,1747486220270,-0.8772638,-2.17394,-0.36523166,0.47537425,-0.061252705,7.46164485
425,1747486220280,0.024161667,-1.9053549,-0.6428468,0.43089947,-0.020240024,7.9639173
426,1747486220290,0.59110665,-1.7479379,-0.7817154,0.16298546,-0.087884314,8.15673
427,1747486220300,1.6695957,-1.4926541,-0.8053889,-0.6194513,-0.38722363,8.157795
428,1747486220310,2.029336,-1.3977158,-0.65675807,-0.7717841000000001,-0.445813165,8.089618
429,1747486220320,2.1523409,-1.36879505,-0.57036181,-1.0247844000000002,-0.5265069499999999,7.927165299999999
430,1747486220330,2.3294044,-1.3475621,-0.362180975,-1.1560782500000002,-0.57444385,7.76817465
431,1747486220340,2.4068928,-1.38112,0.3355787,-0.67963874,-0.6199839,8.046475
432,1747486220350,2.467419,-1.3789234,0.4148973,-0.34408042,-0.5139901,8.368185
433,1747486220360,2.5801733,-1.3576905,0.40220633,-0.10972224,-0.40586576,8.652611
434,1747486220370,2.711232,-1.2983845,0.37291947,0.022903185,-0.32117724,8.817726
435,1747486220380,2.7607756,-1.26775535,0.353760975,0.0452737374999999,-0.27137612,8.849418
436,1747486220390,3.0946457,-1.1102165,0.22648512,-0.049002163,0.16990969,8.63024
437,1747486220400,3.1268616,-1.0662861,0.19304928,-0.1004011765,0.2585929449999999,8.496016749999999
438,1747486220410,3.0785382,-1.0377314,0.19622204,-0.26844665,0.3930826,8.113054
439,1747486220420,3.0585254500000003,-1.04151425,0.2141602349999999,-0.340085685,0.34993938,7.9814938
440,1747486220430,2.9812813,-1.0452971,0.3259384349999999,-0.4577973949999999,0.2567287299999999,7.74953245
441,1747486220440,2.8247187,-1.0365112,0.53253293,-0.64182186,0.05752428,7.246994
442,1747486220450,2.70269,-1.0225998,0.6321083,-0.69987875,0.13848437,7.06803
443,1747486220460,2.5711432,-0.989164,0.73583263,-0.717189325,0.2250371199999999,6.986537
444,1747486220470,2.514766,-0.9567044,0.798067215,-0.7102651,0.449541615,6.82648085
445,1747486220480,2.42104805,-0.89495792,0.89446983,-0.6146575999999999,0.7430219650000001,6.67281655
446,1747486220490,2.2055452,-0.79611474,0.7895252,-0.4575310999999999,1.172856185,6.42514255
447,1747486220500,2.1333044,-0.7682922,0.6892177,-0.51292485,1.6474315,5.988917
448,1747486220510,2.1455072,-0.75608935,0.6499244500000001,-0.605070205,1.7020263,5.844041
449,1747486220520,2.16576395,-0.7200909,0.6006248750000001,-0.7816377800000001,1.794438,5.5039552
450,1747486220530,2.032997,-0.5544981,0.55840296,-1.135572,1.7427727,4.4895573
451,1747486220540,1.9087718,-0.53985465,0.57402265,-1.262871,1.5536882,4.2179146
452,1747486220550,1.7696592,-0.5615757,0.63454884,-1.3741912,1.3693974,4.0858216
453,1747486220560,1.671304,-0.6152683,0.7175283,-1.448227,1.3065468,4.065049
454,1747486220570,1.61321845,-0.6363792500000001,0.76878033,-1.4559502,1.3475595,4.108725
455,1747486220580,1.4528728,-0.6269831,1.010397,-1.4005564499999998,1.51107765,4.23416
456,1747486220590,1.602968,-0.51593703,1.3403623,-0.35792887,1.8865833,4.4208474
457,1747486220600,1.6542201,-0.42905265,1.4230978,0.21038973,1.5947009,4.2051315
458,1747486220610,1.7313421,-0.41343296,1.4660518,0.7803062,1.1259845,3.9121838
459,1747486220620,1.73524705,-0.444672305,1.45165245,1.0575413,0.89136002,3.81391315
460,1747486220630,1.6517794,-0.5605995,1.3747745,1.8327875,0.29987195,3.7593184
461,1747486220640,1.8826576,-0.48323336,1.0706791,2.6051042,0.45327002,4.577441
462,1747486220650,2.2277546,-0.30848834,0.66896087,2.5406556,1.0860372,4.9779806
463,1747486220660,2.800313,0.117635585,0.1313028,1.8924423,1.845038,4.9694586
464,1747486220670,3.4556065,0.6733539,-0.64821607,0.9571401,2.163552,4.2770367
465,1747486220680,3.4826969,0.86567105,-0.865548985,0.9571401,2.163552,4.2770367
466,1747486220690,2.8176408,1.2424954,-0.61795294,-1.9643476,0.7259777,3.1174965
467,1747486220700,3.1683512,1.1741594,0.076389916,-2.122007,0.40373522,3.827495
468,1747486220710,4.056964,1.6376241,0.7665838,-1.7054884,0.48842376,4.557734
469,1747486220720,4.99255735,2.4489924,0.713379325,-0.4607269,1.5036207,4.6104646
470,1747486220730,5.9281507,3.2603607,0.66017485,-0.4607269,1.5036207,4.6104646
471,1747486220740,7.569924,4.5380006,0.07541369,1.3475596,2.156628,2.5465147
472,1747486220750,7.962368,5.03124,-0.2774931,2.4005735,1.4274544,0.94488955
473,1747486220760,7.70452115,5.0028075,-0.7469372000000001,2.8871330000000004,0.87112003,0.1885517749999999
474,1747486220770,7.146728,4.6868753,-1.8016307,3.8594532,-1.0434265,-2.8985846
475,1747486220780,6.978206500000001,4.421463149999999,-2.03946445,3.0668964,-0.95234644,-3.8823564
476,1747486220790,6.51498615,3.80948965,-2.2599701000000003,2.4980452,-0.73077142,-4.22457255
477,1747486220800,5.90728375,3.16908335,-2.05300955,1.366468025,-0.203731825,-4.73297
478,1747486220810,4.9214144,2.0659447,-1.0858107,0.32463935,0.384826775,-4.96093665
479,1747486220820,4.9437457,1.9204865,-0.931200435,-0.978711675,0.907339,-5.15588
480,1747486220830,5.1054335,1.5290186,-0.5208182,-2.3952472,1.1899004,-5.690643
481,1747486220840,5.075659,1.300337,-0.21330604,-2.847452,1.3124058,-6.1689463
482,1747486220850,4.9765716,0.9867234,0.2806658,-3.0024478,1.3598101,-6.6062374
483,1747486220860,4.5126185,0.46322066,1.7799095,-2.41122605,1.28843735,-6.995059
484,1747486220870,4.1540985,0.25162303,2.404208,-0.54435015,1.1536814,-7.668839
485,1747486220880,3.760434,0.05344854,2.7698057,1.0221212,1.0887003,-7.839281
486,1747486220890,3.389223,-0.11690342,2.8027534,2.612561,0.91985583,-7.9383507
487,1747486220900,3.073413,-0.27602875,2.600674,4.3196473,0.4261058,-8.001202
488,1747486220910,3.0233812,-0.5432714,1.692781,5.6879797,-0.6002765,-8.179633
489,1747486220920,3.1925128,-0.58427304,1.3691611,5.768407099999999,-0.90680635,-8.326373
490,1747486220930,3.2247284,-0.6179529450000001,1.28313095,5.840845099999999,-1.5398398000000002,-8.659002000000001
491,1747486220940,3.3225954,-0.788549,1.2261436,5.775331,-2.6104305,-9.197494
492,1747486220950,3.2282672,-0.91777725,1.2947237,5.67306565,-3.2051144000000003,-9.3969645
493,1747486220960,3.0717046,-1.1229074,1.3740423,5.2661347,-4.138552,-9.665677
494,1747486220970,2.9854303,-1.1404795,1.3493925,5.014998650000001,-4.15240065,-9.6185395
495,1747486220980,2.81532235,-1.1661055,1.3027776,4.32364215,-3.96571325,-9.398296
496,1747486220990,2.5926201,-1.150974,1.201982,3.0823426,-3.1691618,-8.829977
497,1747486221000,2.54075805,-1.1215651,1.2169915,2.6975158,-2.85197925,-8.61506
498,1747486221010,2.5328261000000003,-1.1098503,1.2806904,1.83332005,-2.16142155,-8.0331595
499,1747486221020,2.70439825,-1.1287647,1.3805098,1.2538162,-1.8690065,-7.515441
500,1747486221030,3.0802467,-1.154879,1.4645876,1.3427658,-2.0762005,-7.6145105
501,1747486221040,3.449505,-1.2461562,1.475082,1.5488945,-2.245045,-7.9852223
502,1747486221050,3.2371752,-1.4006445,1.4309076,2.1379857,-2.420281,-8.915198
503,1747486221060,3.0538883,-1.50229435,1.42675865,2.2650184500000003,-2.40323665,-8.856076
504,1747486221070,2.6969546,-1.6386003,1.3971057,2.6711507,-2.2786007,-8.330368
505,1747486221080,2.2277546,-1.5841756,1.2568948,2.938532,-2.2301311,-7.7412767
506,1747486221090,2.1852884,-1.3164448,0.8690878,3.1004522,-2.2812638,-6.9593725
507,1747486221100,2.2987752,-1.2154051,0.7909895,3.1510522,-2.5688853,-6.872554
508,1747486221110,2.3002396000000003,-1.21247645,0.763533075,3.170227,-2.9779468,-6.8368673
509,1747486221120,2.30878165,-1.2442039,0.750842125,3.17475435,-3.1646344,-6.7931914
510,1747486221130,2.361498,-1.3229123,0.7726852500000001,3.19313015,-3.43521155,-6.73646625
511,1747486221140,2.1439209,-1.5439061,0.7839118700000001,3.2210933,-3.28314505,-6.65204415
512,1747486221150,1.4655638,-1.9719826,0.7883049,3.2160335,-2.751578,-6.3612266
513,1747486221160,1.16610552,-2.0600873,0.766339765,3.18753755,-2.5787389,-6.2195466
514,1747486221170,0.5503490600000001,-2.2175042,0.666276315,3.1774175,-2.06288465,-5.8384483
515,1747486221180,-0.26162934,-2.6663256,-0.039781332,2.9289446,-1.3938985,-4.932707
516,1747486221190,-0.83491987,-2.6529024,-0.46102414,1.135572,-1.9813919,-3.37316
517,1747486221200,-0.7653635,-2.6123888,-0.06296677,0.88576745,-1.8706044,-3.1582429000000003
518,1747486221210,-0.848220965,-2.6231273,0.063332855,0.53849119,-1.54303555,-2.7955203500000003
519,1747486221220,-1.3362135,-2.6458244,0.319715,0.46179214,-0.9518138,-2.1326594
520,1747486221230,-1.5841756,-2.6243474,0.34729347,0.5965481,-0.87564737,-1.619202
521,1747486221240,-1.7088889,-2.8154445,-0.053936653,0.6460829,-0.6679208,-0.9139969
522,1747486221250,-1.81676215,-2.92685655,-0.2331966865,0.4577974,-0.66925238,-0.77418093
523,1747486221260,-2.2602143,-3.260849,-0.7900133,-0.4660532,-0.71479243,-0.33822146
524,1747486221270,-2.40262165,-3.367746,-0.876531625,-0.99868545,-0.73290193,-0.198938135
525,1747486221280,-2.9367409,-3.8622057,-0.4080637,-2.5965822,-0.8042747,0.28975195
526,1747486221290,-3.1446776,-3.9429886,0.091033354,-4.003264,-0.99442434,1.6239957
527,1747486221300,-3.1473622,-3.8600097,0.64479923,-4.051201,-0.9177253,2.392584
528,1747486221310,-2.9474795,-3.7845955,0.95524013,-3.9505332,-0.7004114,2.9491847
529,1747486221320,-2.8447313,-3.661835,1.1150976,-3.90419425,-0.502804825,3.1345407
530,1747486221330,-2.9728613,-3.573486,1.2173575,-3.7129793,0.60560286,4.379302
531,1747486221340,-2.90721,-3.5139365,1.2830089,-3.5084486,0.89588743,5.189436
532,1747486221350,-2.4786453,-3.3877587,1.27886,-3.1686292,0.98110855,5.9644156
533,1747486221360,-1.9268318,-3.2130136,1.2356619,-2.7004454,0.99495703,6.600911
534,1747486221370,-1.64055275,-3.1116079,1.167936,-2.4386567,0.999484415,6.87361875
535,1747486221380,-0.7826916,-2.792259,0.9086252,-1.5675366,1.0471549,7.7588534
536,1747486221390,0.48787045,-2.4088452,0.36462155,-0.9752496,1.1867046,8.58976
537,1747486221400,0.794528375,-2.33086885,0.239420172,-0.938497965,1.1446266500000002,8.727445
538,1747486221410,1.36281565,-2.1788211000000004,0.0061014319999999,-0.92891058,0.98723385,8.9362365
539,1747486221420,1.8567875,-2.04666405,-0.165714865,-1.009071765,0.74089145,9.0219905
540,1747486221430,2.285108,-1.92951655,-0.25564995,-1.12412035,0.54062171,8.994294
541,1747486221440,2.56479765,-1.7818619,-0.186337698,-1.1057445,0.33289513,8.757539
542,1747486221450,2.6895108,-1.6464102,-0.048323333,-0.89588743,0.19973709,8.738364
543,1747486221460,2.869137,-1.6393324,0.04344219,-0.74355459,0.0828243135,8.7181245
544,1747486221470,2.9239279,-1.6517794,0.106286935,-0.23009711,-0.4125236815,8.603076
545,1747486221480,3.0261879,-1.6166352000000002,0.2220921,0.41625208,-1.1400993,8.4219805
546,1747486221490,3.18812,-1.4533609,0.26553428,1.2618058,-2.1518342,8.078965
547,1747486221500,3.3084402,-1.2881342,0.13227904,1.4359765,-2.3387881000000004,7.903995650000001
548,1747486221510,3.1710358,-0.9279056,-0.3321619,1.1424961,-1.9371834,7.022756
549,1747486221520,3.0996491,-0.9111877,-0.39854547,0.7203850700000001,-1.5499598,6.86855885
550,1747486221530,3.0282624,-0.8944698,-0.46492904,0.29827404,-1.1627362,6.7143617
551,1747486221540,2.6101923,-1.006004,-0.17596528,-1.43624277,0.283360345,6.463225850000001
552,1747486221550,2.400059,-1.074584,0.17376876,-2.6205506,1.2277173,6.460829
553,1747486221560,2.2492316,-1.3525653,0.98452693,-2.9976542,1.8413097,6.453372
554,1747486221570,2.1616151,-1.4018649,1.3635478,-2.5811357,1.8530275,6.386793
555,1747486221580,2.0234787,-1.4135796,1.6259093,-1.8498317,1.6053536,6.3654876
556,1747486221590,1.99834075,-1.41931495,1.6511692999999998,-1.4000238,1.3547501,6.3593623
557,1747486221600,2.0078589,-1.42151145,1.61028975,-0.4921521815,0.8082693999999999,6.33193175
558,1747486221610,2.1250064,-1.40406135,1.31351605,0.7797736185,-0.14753912,6.1191454
559,1747486221620,2.1685706,-1.3393862,0.98635732,1.85728865,-0.98403807,5.8427093
560,1747486221630,2.0542298,-1.2664130500000002,0.81820192,2.3323966,-1.2351742,5.73485115
561,1747486221640,1.9317131,-1.2265097,0.7104506500000001,2.69938015,-1.3068132,5.74949865
562,1747486221650,1.9697862,-1.0382195,0.5930591,3.1782165,-0.9422264,5.9473715
563,1747486221660,2.1586864,-0.8891005,0.5684093,3.2176313,-0.44741106,5.9937105
564,1747486221670,2.29328395,-0.776102,0.48128088,3.17581965,-0.074302195,5.9953084
565,1747486221680,2.8173969,-0.456143,0.11153416,2.8160267,1.0982877,5.8275294
566,1747486221690,2.9595603,-0.36352328,-0.044052335,2.5126926000000003,1.4024207,5.623797400000001
567,1747486221700,3.08671415,-0.088714817,-0.325572365,1.133974,2.0112193,4.706871
568,1747486221710,3.0038567,0.05051985,0.07565775,-0.4149205,1.4258565,3.755057
569,1747486221720,3.0038567,0.05051985,0.07565775,-0.4149205,1.4258565,3.755057
570,1747486221730,2.83082,-0.77122086,1.4367651,-0.07350325,1.2026836,3.9329565
571,1747486221740,2.8967154,-0.9266854,1.6652026,0.545948,1.8130801,4.8117995
572,1747486221750,3.9063804,-0.1164153,0.6577343,0.664725,3.226686,6.4640245
573,1747486221760,5.34705,0.28432667,-0.023429496,0.077231675,3.8988678,6.4267406
574,1747486221770,6.4748387,0.81319875,-0.74413055,-0.9358348,3.9526637,4.9753175
575,1747486221780,6.142921,1.7501346,-1.1892909,-1.6911073,3.145726,3.6980655
576,1747486221790,5.563773,2.0772933,-1.2925271500000002,-2.05090035,2.6533075,3.36889885
577,1747486221800,4.850149500000001,2.44130465,-1.223337,-3.1273501,1.65435575,3.01043735
578,1747486221810,4.770831149999999,2.55784205,-0.6920243699999999,-3.9843554,1.20534675,3.25970925
579,1747486221820,5.1439948,2.8192274,0.0434421899999999,-4.023770150000001,1.45035755,3.8288268
580,1747486221830,5.759629,3.30087425,0.68323826,-3.3001893,2.0410466,4.5252433
581,1747486221840,7.917217,5.1867046,1.4467713,-2.3307986,2.2716765,4.7207193
582,1747486221850,7.9967794,5.8424864,1.1048472,0.23276028,2.620018,1.8988339
583,1747486221860,7.9967794,6.0638466,0.8351639,1.2650015,2.3813987,-0.6428871
584,1747486221870,7.9967794,5.6125846,0.7487676,1.7891116,2.08552145,-1.7957695500000002
585,1747486221880,7.3478312,4.757896,0.5440036,3.1840754,1.0961571,-4.645086
586,1747486221890,5.419535,2.8430228,0.036852647,3.8573227,-0.08575379,-6.602509
587,1747486221900,5.000977,2.38199865,0.0013423155,3.74999725,-0.254864525,-6.77881025
588,1747486221910,4.34068015,1.61407255,-0.01195880575,3.4213631,-0.5222459,-7.01290225
589,1747486221920,3.97105525,1.08678695,0.06125836725,2.93347205,-0.67564397,-7.1204941
590,1747486221930,3.7410314,0.695197085,0.2015912799999999,2.42454195,-0.73263565,-7.23580885
591,1747486221940,3.2757363,0.00024405724,0.8158834,1.8109496,-0.34514567,-7.572965
592,1747486221950,3.1022117,-0.23893206,1.0260166,2.0426445,-0.07669904,-7.6560555
593,1747486221960,2.911115,-0.42905265,1.1438963,2.4495757,-0.020240024,-7.749266
594,1747486221970,2.8469278,-0.511177925,1.16720375,2.69538545,-0.112918032,-7.80519265
595,1747486221980,2.6921954,-0.7682922,1.1822133,3.1851407,-0.3850930999999999,-7.92396965
596,1747486221990,2.4818182,-1.0069802,1.2583592,4.314321,-1.5824504,-8.263256
597,1747486222000,2.3229368,-1.0853225,1.2083274,4.6317697,-1.9680761,-8.271246
598,1747486222010,2.2275105,-1.1495095,1.0850785,4.7335024,-2.2461102,-8.132762
599,1747486222020,2.2228733500000004,-1.1467029,0.987333575,4.6301717,-2.2959113,-8.0637858
600,1747486222030,2.3178117,-0.9901402,0.6667644,3.4924695,-2.3803334,-7.9617867
601,1747486222040,2.2943823,-0.9391323,0.7477914,2.8426583,-2.3584955,-7.9607215
602,1747486222050,2.3429496,-0.9010593,0.971836,2.3180156,-2.292449,-7.9372854
603,1747486222060,2.391517,-0.8812907,1.3137602,2.065015,-2.1299963,-7.9186435
604,1747486222070,2.38114455,-0.87518925,1.4539710499999998,2.08658665,-2.0309267,-7.89920225
605,1747486222080,2.3918831000000003,-0.835407935,1.6835068999999998,2.43199865,-1.8439728,-7.7436735
606,1747486222090,2.6148295,-0.7385172,1.649583,3.1984565,-1.9909793,-7.6065207
607,1747486222100,2.7756631,-0.6191732,1.3933228,3.384878,-2.292449,-7.734885
608,1747486222110,2.79299115,-0.59366922,1.27153825,3.36969785,-2.422145,-7.807323
609,1747486222120,2.79848245,-0.574754805,1.0673844,3.25970925,-2.6181537,-7.924236
610,1747486222130,2.7680972,-0.63454884,0.9906283,3.058108,-2.7150928,-7.976433999999999
611,1747486222140,2.6143413,-0.77146494,1.1902672,2.753176,-2.6205506,-7.760452
612,1747486222150,2.6142191500000003,-0.80551092,1.20344635,2.7686224,-2.442119,-7.5591164
613,1747486222160,2.693904,-0.85127175,1.142676,2.7499802,-2.214152,-7.4504595
614,1747486222170,2.52867725,-0.82283905,1.06616405,2.6684874,-1.95795595,-7.36843425
615,1747486222180,2.2114027,-0.8075854,0.9730562,2.5374599,-1.5899072,-7.119695
616,1747486222190,2.0815644,-0.7907455,0.9723241,2.595517,-1.7092168,-6.9897327
617,1747486222200,1.940255,-0.79269797,0.93278676,2.711098,-1.9366508,-6.8927937
618,1747486222210,1.89254185,-0.8133207849999999,0.90105936,2.7606328,-2.0652814,-6.8512483500000005
619,1747486222220,1.8448287,-0.8339436,0.86933196,2.8101676,-2.193912,-6.809703
620,1747486222230,1.4362769,-0.9615856,0.7663397,2.9507825,-2.5923212,-6.641924
621,1747486222240,1.4362769,-0.9615856,0.7663397,2.9507825,-2.5923212,-6.641924
622,1747486222250,0.9844049,-1.1981991,0.690071885,3.0961912,-2.3688818,-6.1558969
623,1747486222260,0.45370243,-1.410895,0.435032055,2.9992521,-2.2069616,-5.396896099999999
624,1747486222270,-0.1261776,-1.6439695,-0.030019043,2.4469125,-2.0325246,-4.526841
625,1747486222280,-0.3590082,-1.8492217,-0.28676724,1.953695,-1.68152,-4.149738
626,1747486222290,-0.6279593,-2.1067023,-0.6455314,1.3086774,-1.4253238,-3.750796
627,1747486222300,-0.77146497,-2.267658,-0.8755554000000001,0.7912251750000001,-1.44609645,-3.5779569
628,1747486222310,-1.10228457,-2.71269635,-1.1334019,-1.0412960249999998,-1.3611416,-3.2732914
629,1747486222320,-1.6986383,-3.2681708,-0.8393129,-3.4722295,-0.8186557,-2.9017804
630,1747486222330,-1.6986383,-3.2681708,-0.8393129,-3.4722295,-0.8186557,-2.9017804
631,1747486222340,-2.362718,-4.1292048,0.0605262,-4.473578,-0.11771172,-2.0245352
632,1747486222350,-2.8547378,-4.2348814,0.5933032,-3.9979374,-0.034088463,-1.412008
633,1747486222360,-3.2730517,-4.34007,0.5981843,-2.7451866,-0.20026971,0.07350325
634,1747486222370,-3.3066096,-4.3339685,0.497022575,-2.59818005,-0.145674912,0.35633096
635,1747486222380,-3.4787917,-4.2778354,0.26284966,-2.3281355,0.21891184,1.2026836
636,1747486222390,-3.6254702,-4.194368,0.20671648,-2.2844596,0.588026,1.8418423
637,1747486222400,-3.5708014,-4.0551333,0.167423265,-2.25836065,0.76379465,2.2240059
638,1747486222410,-3.2547474,-3.6850204,0.13886857,-1.8849854,1.4626081,4.6381617
639,1747486222420,-2.9999517,-3.57897745,0.123614995,-1.72146735,1.53770925,5.040032650000001
640,1747486222430,-2.1752822,-3.2320502,-0.011714748,-1.2255868,1.7795243,6.040582
641,1747486222440,-1.6090695,-2.9557774,-0.09176553,-0.8516789,1.8104169,6.5284734
642,1747486222450,-1.0079564,-2.6704745,-0.234539,-0.45220476,1.6410398,6.821954
643,1747486222460,-0.058085624,-2.1342807,-0.601113,0.04474111,0.984837,7.2576466
644,1747486222470,0.182798863,-2.03104445,-0.6500465,0.07669904,0.81039995,7.3532541
645,1747486222480,0.9086252,-1.6947334,-0.75316066,0.0793622,0.33076462,7.5143757
646,1747486222490,1.2173575,-1.4777666,-0.77683425,-0.1107875,0.08149273,7.4936028
647,1747486222500,1.40967465,-1.4423783,-0.760848495,-0.4644553,0.075633775,7.565508149999999
648,1747486222510,1.7081566,-1.3889297,-0.5379022,-1.1217234,0.14327806,7.8025293
649,1747486222520,1.8226196,-1.4101628,-0.2945771,-1.2873721,0.19547603,7.988418
650,1747486222530,1.8831458,-1.42749085,-0.187069882,-1.304949,0.21571605,8.072308
651,1747486222540,2.1350129,-1.4587302,0.028554698,-1.27405635,0.265250845,8.2613925
652,1747486222550,2.561869,-1.3669646,0.1632743,-1.1771172,0.25832662,8.370316
653,1747486222560,2.7810323,-1.193928,0.16815543,-1.1712582,0.16831179,8.286693
654,1747486222570,2.88780735,-1.10069815,0.149607085,-1.2250541,0.13235911,8.14155025
655,1747486222580,3.1117299,-0.8515157,-0.02318544,-1.5962988,0.16138756,7.668839
656,1747486222590,3.09135105,-0.8211306,-0.051740135,-2.17420475,0.32517198,7.27309325
657,1747486222600,2.898668,-0.8664033,0.03636453,-3.3981936,0.64075655,6.5034394
658,1747486222610,2.6843855,-0.9855032,0.3533949,-3.8344195,0.5901565,6.1385865
659,1747486222620,2.5152539000000003,-1.02540655,0.58476115,-3.86664365,0.54488276,6.0131517500000005
660,1747486222630,2.13855165,-1.10240655,1.1238836,-3.7614487,0.44474791,5.826464
661,1747486222640,1.8958367,-1.1532925,1.49716915,-3.0365363,0.381364675,5.7084858
662,1747486222650,1.8284769,-1.1541467,1.5019283,-1.6671388,0.5784386,5.54843
663,1747486222660,1.82139925,-1.1600041,1.41626415,-1.4439659,0.7028082,5.50022675
664,1747486222670,1.7616051,-1.1829455,1.163909,-0.93636745,1.0247844,5.3811836
665,1747486222680,1.73817565,-1.1940501,1.08825125,-0.7866978,1.149953,5.347095
666,1747486222690,1.8531268,-1.2329772,0.71826047,-0.75580513,1.0482203,5.1510863
667,1747486222700,1.8455609,-1.2315128,0.6042857,-0.8431568,0.8341021,4.9849052
668,1747486222710,1.7984579,-1.2759314,0.5747548,-0.9832391,0.6151902,4.9215217
669,1747486222720,1.7607511,-1.2765415,0.6036756,-1.0399644,0.56831857,4.95028385
670,1747486222730,1.5795386,-1.232001,0.9200958,-1.0929613,0.56459016,5.1175303
671,1747486222740,1.5146192,-1.1761118,0.97208,-0.7616641,0.6775082,5.4174023
672,1747486222750,1.5688,-1.1414558,0.97452056,-0.56672066,0.7414241,5.527657
673,1747486222760,1.7701472,-1.1050912,0.91814333,-0.42184472,0.7669904,5.502091
674,1747486222770,1.85068615,-1.07629245,0.840411095,-0.42104578,0.7720503999999999,5.4285877
675,1747486222780,2.0605752,-0.9442575,0.6572462,-0.5230448,0.69508505,5.1766524
676,1747486222790,2.3551524,-0.6535853,0.4790844,-0.77231675,0.30040458,4.928446
677,1747486222800,2.5096407,-0.42636803,0.43442193,-0.9358348,-0.032490566,4.8410945
678,1747486222810,2.6680338,-0.22477673,0.47664383,-1.1952267,-0.294013,4.7079363
679,1747486222820,2.6997612,-0.073949344,0.64162654,-1.4434333,-0.082025364,4.639227
680,1747486222830,2.5687025,0.061258372,0.83150303,-1.6932379,0.45806372,4.6876965
681,1747486222840,2.5074441,0.15302388,1.0262607,-2.2237396,1.8727349,5.1968927
682,1747486222850,2.7312446,0.21525851,1.0692148,-2.3297334,2.479403,5.455752
683,1747486222860,2.8901259,0.314223705,1.0513986,-2.31588495,2.5531726,5.46906785
684,1747486222870,3.2250946000000003,0.53521755,0.9989263,-2.1947111,2.3542345,5.3883741
685,1747486222880,4.3517847,1.1536586,0.856641,-1.1606057,-0.39254996,4.752145
686,1747486222890,4.5894966,1.6627622,0.74535084,-0.5523396,-1.9004318,4.970524
687,1747486222900,4.9499693,2.4747405,0.6160005,-0.43915526,-2.19630905,5.059207300000001
688,1747486222910,5.39757,3.1581008,0.48835856,-0.38775626,-2.3031018,5.0754523
689,1747486222920,5.863231,3.3886129,0.347903605,-0.73609773,-1.32279217,4.626443350000001
690,1747486222930,6.3223027,3.7132091,0.275418605,-1.18057935,0.1576591299999999,3.8815573
691,1747486222940,6.2989955,3.9241966,0.506418795,-1.1443604,0.8860337,3.3771547
692,1747486222950,6.2822776,4.0411,0.66944903,-1.0120013,1.1142666,3.1686292
693,1747486222960,6.8104174,4.347269750000001,0.585615365,-0.00186425,0.3123887900000001,1.9944414
694,1747486222970,7.3385572,4.6534395,0.5017817,1.0082728,-0.48948902,0.8202536
695,1747486222980,7.2261691,4.1366482,0.123004853,1.0399644,-0.3331614499999999,-1.50868075
696,1747486222990,6.7794223,3.5457858,0.0174500938999999,0.59335229,0.180296015,-2.77421495
697,1747486223000,5.7106957,2.5472255,0.21306199,-0.22104238,1.0887003,-4.2077947
698,1747486223010,5.01647485,1.94293975,0.455776945,-0.46738479,1.43890595,-4.635232
699,1747486223020,4.08905725,1.15805162,0.7987994,-0.6625945,1.8093517,-5.14602615
700,1747486223030,3.8558605,0.97744924,0.8991069,-0.6114618,1.8295918,-5.229383
701,1747486223040,3.414605,0.67945538,1.09313245,-0.096672752,1.5342471,-5.3074138
702,1747486223050,3.2863528000000004,0.53924447,1.12547005,0.386424673,1.19602565,-5.4070160000000005
703,1747486223060,3.2237523,0.35449314,1.206619,1.145159325,0.529702753,-5.8235345
704,1747486223070,3.1088013,0.19414754,1.39368885,2.2445123,-0.34887412,-6.5002437
705,1747486223080,2.9810373,0.092985807,1.5470789,2.58300005,-0.44927531,-6.65896825
706,1747486223090,2.8928106,-0.10128376,1.6037002,3.2418661,-0.58269967,-7.0014509
707,1747486223100,2.86242545,-0.18609366,1.6004054,3.8733015,-0.63436497,-7.379886000000001
708,1747486223110,2.6033587,-0.7214332,1.4360328,5.3305836,-0.6396913,-8.155132
709,1747486223120,2.485723,-0.95743656,1.2778838,5.751363,-0.6791061,-8.304802
710,1747486223130,2.3600335,-1.1294969,1.069947,6.0672135,-0.8341021,-8.379903
711,1747486223140,2.2524045,-1.2717823,0.77122086,6.0629525,-1.0743192,-8.362859
712,1747486223150,2.2566754,-1.2878900999999998,0.559501215,5.7564227500000005,-1.5686019,-8.3058675
713,1747486223160,2.26106835,-1.2522578,0.2957973849999999,5.196626500000001,-2.3494407,-8.243017
714,1747486223170,2.2746134,-1.0941086,0.2604091,4.422978,-3.0466564,-8.236093
715,1747486223180,2.3319669,-0.9850151,0.25870067,3.8908784,-3.2549155,-8.194547
716,1747486223190,2.4269053,-0.920705975,0.24845028,3.6045886,-3.2645029,-8.147941750000001
717,1747486223200,2.5558896,-0.825035525,0.23710162,2.1933794,-3.0466564,-7.9484706
718,1747486223210,2.6531463,-0.780251,0.25601605,1.85968535,-2.9041772,-7.89627265
719,1747486223220,2.6832874,-0.7912336,0.283838575,1.29269835,-2.60004415,-7.79027885
720,1747486223230,2.7396647,-0.8218627700000001,0.353272875,0.87591365,-2.24477855,-7.6976008
721,1747486223240,2.826427,-0.9025237,0.5288721,0.48735848,-1.6777915,-7.6304893
722,1747486223250,2.72465515,-0.9661006,0.7111828149999999,0.58802597,-1.48577755,-7.5860145
723,1747486223260,2.5527167,-1.0468836,0.996729765,1.133974,-1.4008228,-7.4248934
724,1747486223270,2.38822205,-1.0607948500000002,1.1560992,1.4514228500000002,-1.5281219,-7.3298185
725,1747486223280,2.1711333,-1.0838583,1.2141849,2.11055525,-1.866876,-7.0999875
726,1747486223290,2.255577,-1.10802,0.8073414,3.1558459,-2.667955,-6.669621
727,1747486223300,2.3898087,-1.0970373,0.5418071,3.3641052,-3.0328078,-6.412359
728,1747486223310,2.361986,-1.0994779,0.3104408,3.069027,-3.0141659,-6.3132896
729,1747486223320,2.2441063,-1.0941086,0.1683995,2.6493127,-2.841593,-6.2051654
730,1747486223330,2.0410507,-1.0594525,0.15277983,2.2237396,-2.583799,-6.0879865
731,1747486223340,1.71377,-1.1185144,0.29164842,1.6714,-2.0112193,-6.0975738
732,1747486223350,1.3633038,-1.1663495,0.35315084,1.6117451,-1.8823223,-6.084258
733,1747486223360,0.9784255,-1.2417632,0.35485923,1.619202,-1.9078887,-5.907424
734,1747486223370,0.7718310349999999,-1.2606777,0.344974905,1.6429041,-1.9925772,-5.6938385
735,1747486223380,0.17889395,-1.2903306,0.35485923,1.6990968,-2.237588,-5.033375
736,1747486223390,-0.16937573,-1.2742229,0.46200037,1.9153455,-2.4133565,-4.1321607
737,1747486223400,-0.16058967,-1.3225462,0.43576421,2.00056665,-2.338788,-4.02270485
738,1747486223410,-0.18621568,-1.4309075999999998,0.30299707,2.1688784,-2.18112895,-3.84906685
739,1747486223420,-0.280543815,-1.62273665,-0.078708455,2.10309835,-2.1728732,-3.75798665
740,1747486223430,-0.7402256,-2.0098114,-0.92131615,1.1329087,-2.4410534,-3.6751623
741,1747486223440,-0.90374404,-2.2404454,-1.0028312,-1.3448963,-1.7518274,-3.4706316
742,1747486223450,-1.08361422,-2.3663789,-0.979401725,-3.1212249,-0.74461985,-3.3667684
743,1747486223460,-1.6461661,-2.8071465,-0.78659654,-4.3686495,0.14168017,-3.178749
744,1747486223470,-1.85288265,-3.00349055,-0.698491845,-4.842692250000001,0.47803741,-3.0250847
745,1747486223480,-2.0595992,-3.1998346,-0.61038715,-5.316735,0.81439465,-2.8714204
746,1747486223490,-3.2127695,-3.8431692,0.3077562,-5.81155,0.79415464,-1.284709
747,1747486223500,-3.3074636,-4.00742,0.42368335,-5.465339,0.68176925,-0.6045376
748,1747486223510,-3.3546888,-4.02279565,0.501049525,-5.2197955,0.68762821,-0.325171985
749,1747486223520,-3.4674433,-4.02279565,0.6421146,-4.64881385,0.673779785,0.206128675
750,1747486223530,-3.7352962,-3.9725199,0.5588911,-3.4605117,0.525708,1.1531488
751,1747486223540,-3.7030804,-3.849515,0.43320164,-2.3835292,0.36804888,2.6306705
752,1747486223550,-3.4958758,-3.6996639,0.3653537,-1.9941751,0.4101268,3.486078
753,1747486223560,-3.4958758,-3.6996639,0.3653537,-1.9941751,0.4101268,3.486078
754,1747486223570,-2.8458296,-3.342608,0.25442968,-1.53983975,0.6255765600000001,4.6741142
755,1747486223580,-1.4489679,-2.6670575,-0.087616555,-1.1249193,1.144094,6.320214
756,1747486223590,-0.869576,-2.4827945,-0.28042176,-1.1062771,1.2697952,6.830476
757,1747486223600,-0.64821608,-2.37809385,-0.35119836,-1.1222561,1.30734575,7.066698150000001
758,1747486223610,0.19378147,-2.195539,-0.3270367,-0.9763149,1.1494204,7.7205043
759,1747486223620,1.120955,-1.9871141,-0.31532198,-0.1571265,0.21145499,8.023039
760,1747486223630,1.5268221,-1.8951045,-0.39244407,0.26844665,-0.45859635,8.073639
761,1747486223640,1.8680142,-1.824816,-0.43881494,0.6695187,-1.0524813,8.062986
762,1747486223650,1.97686365,-1.8067558,-0.44589259,0.8330368,-1.2604741499999998,8.0763025
763,1747486223660,2.0857131,-1.7886956,-0.45297024,0.9965549,-1.468467,8.089619
764,1747486223670,2.5301415,-1.6132184,-0.56865338,1.0266486,-1.4548849499999998,8.4675205
765,1747486223680,2.638259,-1.5678238,-0.5976962,0.8767126,-1.2506205,8.709602
766,1747486223690,3.01788995,-1.4648314999999998,-0.5554742699999999,-0.0724379899999999,-0.300404577,8.885371
767,1747486223700,3.18836385,-1.44762555,-0.396470965,-0.8391620499999999,0.393881543,8.7993505
768,1747486223710,3.26890275,-1.49143385,0.05259435,-1.5667377,0.93423692,8.393751
769,1747486223720,3.2340026,-1.49277615,0.5435155150000001,-1.91934025,1.15314875,7.8430095
770,1747486223730,3.07621955,-1.42492825,0.8167376,-1.7092168,1.0016149,7.404120499999999
771,1747486223740,2.770782,-1.3567142,0.9696394,-1.0855045,0.5944176,6.8608356
772,1747486223750,2.609704,-1.3354812,0.93107843,-0.66525763,0.30146983,6.618488
773,1747486223760,2.5131794,-1.2813005,0.797457065,-0.374440445,0.19787287,6.47334585
774,1747486223770,2.3163474,-1.1443844,0.4234393,-0.19014971,0.24873926,6.2573633
775,1747486223780,2.220921,-1.0553036,0.18060236,-0.6151902,0.63010395,6.23233
776,1747486223790,2.2013965,-1.0479818,0.0650412549999999,-0.9906959,0.8977516249999999,6.224074
777,1747486223800,2.19724755,-1.07653645,-0.051129993,-1.8144116,1.3752564,6.1841265
778,1747486223810,2.24593685,-1.2329772,0.3033631619999999,-2.8013792,1.58910825,6.0517675
779,1747486223820,2.2456927,-1.3706255,0.90911328,-3.3225599,1.44396595,5.9162126
780,1747486223830,2.1811397,-1.3584226,1.5414655,-2.8623655,0.9576728,5.855226
781,1747486223840,2.182726,-1.3104654,1.6266415,-2.5278724500000003,0.8074704850000001,5.8243335
782,1747486223850,2.23056125,-1.1449946,1.57880625,-1.77872525,0.55393751,5.706089
783,1747486223860,2.2311715,-1.0086886000000002,1.3439012,-1.04901915,0.517984825,5.39210215
784,1747486223870,2.0693614,-1.0338265,1.1336459,-0.75580513,0.7025419,5.028048
785,1747486223880,2.0073708,-1.10191845,1.1342560000000002,-0.802410465,0.775512525,5.0328420000000005
786,1747486223890,1.824816,-1.3093672,1.3223021,-0.83250415,0.87032104,5.19636
787,1747486223900,2.122566,-1.1914874,1.8558112,-0.370712018,0.66312711,5.39077085
788,1747486223910,2.122566,-1.1914874,1.8558112,0.091080114,0.45593318,5.5851817
789,1747486223920,2.7607756,-0.895079975,1.4662959,1.02744755,0.45833003,5.76601015
790,1747486223930,3.33394395,-0.7573096450000001,0.88824635,1.1464908500000002,0.5270395800000001,5.57452865
791,1747486223940,3.764095,-0.3807293,-0.15497635,0.38402784,0.30200246,4.7713194
792,1747486223950,3.3055112,-0.26821893,0.19036464,-1.1041466,-0.35579833,4.3771715
793,1747486223960,3.3055112,-0.26821893,0.19036464,-1.25221835,-0.259391895,4.7241814
794,1747486223970,2.9064777,0.2020794,0.79562664,-1.3923006,0.40213734,5.9457736
795,1747486223980,3.4407191,0.49250755,0.65675807,-1.2245215,0.9262474,6.489591
796,1747486223990,4.653928,1.4443307,0.460536,-0.53263223,0.11611383,6.965764
797,1747486224000,5.581101,2.1018212,0.22135992,0.011185277,-0.6279734,6.763364
798,1747486224010,6.0644565,2.53490065,-0.03904916,0.0306263535,-0.6002765,6.4563015
799,1747486224020,6.7603860000000005,3.3077079,-0.52643149,-0.1901497049999999,-0.284159271,5.689311
800,1747486224030,6.9395237,4.164837,-0.65065664,-0.8367652,0.96992326,4.483698
801,1747486224040,6.446772,5.195735,0.28042176,0.09054748,2.748915,3.6037896
802,1747486224050,6.8126144,5.5994053,0.51447266,1.504686,2.6700854,2.858637
803,1747486224060,7.163568,5.882756,0.18304294,3.1222901,2.1475732,1.7528926
804,1747486224070,7.516475,5.636502,-0.69117016,3.6615803,1.66500835,0.977646425
805,1747486224080,7.41214075,5.3198377,-1.10777583,4.32151175,0.76512617,-0.7155914250000001
806,1747486224090,6.36489125,4.1447021,-2.01530275,2.5624936,0.20879184,-4.572115
807,1747486224100,4.374482,2.592132,-2.4901161,1.0375676,0.49854377,-4.825115
808,1747486224110,3.9963154,2.3680875,-2.34209535,0.2793656,0.58030282,-4.7241813
809,1747486224120,3.4900187000000003,1.9558749,-1.956851,-1.12651715,0.672448185,-4.4986117
810,1747486224130,3.4651246,1.1360865,-0.41050428,-3.2069786,0.80107886,-4.5295043
811,1747486224140,3.3982532,0.85566473,0.20281157,-3.2975261,0.89322424,-4.789962
812,1747486224150,3.171524,0.6496804,0.7082541,-3.0216227,0.9757822,-5.0014167
813,1747486224160,3.0414414,0.5945234699999999,0.87506725,-2.7534423500000003,1.0167949,-5.0402987
814,1747486224170,2.82252205,0.5017817,1.1251039,-2.0660804500000003,1.0743192,-5.082110350000001
815,1747486224180,2.536975,0.37072295,1.2288283,-0.9395633,1.0833739,-5.113802
816,1747486224190,2.5006106,0.36974674,1.2093037,0.33662358,0.71532506,-5.580388
817,1747486224200,2.3497832,0.3692586,1.172451,0.92997587,0.44528055,-5.869607
818,1747486224210,2.1625912,0.30458343,1.0841023,1.186171935,0.34754253,-5.96841025
819,1747486224220,2.1331824,0.277249025,1.0269929,1.64130615,0.184024435,-6.1465759
820,1747486224230,2.10987495,0.222092095,0.91985178,1.9941751,0.0652474505,-6.31275715
821,1747486224240,2.1384296,0.009518232,0.6604189,2.509763,-0.14221281,-6.797985
822,1747486224250,2.1130476,-0.13105874,0.5620638,2.591256,-0.23009712,-6.9939938
823,1747486224260,2.0800998,-0.184873365,0.524356985,2.5933865000000003,-0.27244139,-7.03340865
824,1747486224270,2.0024896,-0.35974038,0.4527262,2.59019055,-0.37044573,-7.08454125
825,1747486224280,1.9827211,-0.57377857,0.652365,2.644519,-0.6487461,-7.120228
826,1747486224290,2.0056624,-0.5972081,0.6901939,3.038667,-1.3608754,-7.236874
827,1747486224300,1.9873582,-0.6145361,0.622346,3.0887344,-1.47272815,-7.293333
828,1747486224310,1.9666133,-0.63503695,0.5437595,3.0967238,-1.6431705,-7.414241
829,1747486224320,1.91731375,-0.633816675,0.4523600799999999,2.778476,-1.4556839,-7.319165999999999
830,1747486224330,1.8570317,-0.5940353,0.34290043,2.0532973,-1.0418286,-7.061638
831,1747486224340,1.9197543,-0.571338,0.3995217,1.7092168,-0.829841,-6.9071746
832,1747486224350,2.0410507,-0.55913514,0.56645685,1.5483619,-0.73290193,-6.8075724
833,1747486224360,2.11768475,-0.52936016,0.7719530450000001,1.74596845,-0.8721852649999999,-6.8182252
834,1747486224370,2.1848004,-0.47273886,1.0367552,2.401106,-1.383246,-6.882141
835,1747486224380,2.1608827,-0.48396555,0.93229866,2.790993,-1.7928401,-6.899718
836,1747486224390,2.2094502,-0.49543622,0.79562664,3.018427,-2.214152,-6.903446
837,1747486224400,2.276078,-0.45980385,0.58939826,3.0242858,-2.5065672,-6.9449916
838,1747486224410,2.3222048500000003,-0.433689725,0.52289265,2.87301825,-2.59711465,-6.9814770500000005
839,1747486224420,2.3447801000000004,-0.400375915,0.48530782,2.39791035,-2.67354735,-7.03820225
840,1747486224430,2.3151271500000004,-0.4041588,0.5469323,1.9339877,-2.5233451,-7.03500625
841,1747486224440,2.28169135,-0.418558165,0.6142921,1.6945695,-2.1829932,-6.96896005
842,1747486224450,2.1765025,-0.44882128,0.70190865,1.4929681,-1.5211977,-6.806507
843,1747486224460,2.1765025,-0.44882128,0.70190865,1.4929681,-1.5211977,-6.806507
844,1747486224470,2.02860385,-0.5094695300000001,0.7300972649999999,1.63544725,-0.8641958000000001,-6.46535625
845,1747486224480,1.93171305,-0.559867355,0.699468085,1.7880464,-0.8894958150000001,-6.364156
846,1747486224490,1.6434816,-0.64357895,0.7150877,2.149171,-1.1227888,-6.170544
847,1747486224500,1.31083155,-0.744618655,0.713013225,2.29457955,-1.22691835,-6.073339
848,1747486224510,0.6274712,-0.8778739,0.57988006,2.6533074,-1.4729944,-5.699165
849,1747486224520,0.50641879,-0.873969,0.51971993,2.8450551,-1.5883093,-5.2498895
850,1747486224530,0.27529657,-0.8598137,0.37169918,2.670618,-1.3140037,-4.8219194
851,1747486224540,0.2037878,-0.9135063,0.2853029,2.4319987,-0.9054748,-4.701012
852,1747486224550,0.074681517,-1.04005,0.206960535,2.1161478,-0.544882775,-4.687696150000001
853,1747486224560,-0.164006473,-1.2626301999999998,0.0695563155,1.5614114,-0.08974853,-4.72284985
854,1747486224570,-0.70971847,-1.6444578,-0.09737884,0.90494215,0.11504856,-4.80381
855,1747486224580,-1.2302926,-1.8453168,-0.2706595,0.42237735,0.15020229,-4.664793
856,1747486224590,-1.5890567,-2.0786357,-0.5437595,-0.2615224,-0.041545313,-4.433098
857,1747486224600,-2.029092,-2.5943284,-0.81271064,-2.1699438,-0.099069595,-3.788613
858,1747486224610,-1.99004275,-2.81336985,-0.8336995700000001,-2.7715519,0.1041296025,-3.720436
859,1747486224620,-2.0449556,-3.244863,-0.6660322399999999,-3.829093,0.6562029,-3.72629495
860,1747486224630,-2.4177531,-3.65439115,-0.2672426885,-4.464257,1.3203953,-3.81178245
861,1747486224640,-4.24684,-4.650755,0.6369894,-3.3688989,1.8359833,-2.444782
862,1747486224650,-4.7974334,-4.7671704,0.9476743,-1.9856529,1.212271,-1.0748519
863,1747486224660,-4.77412585,-4.7267787000000006,0.95462995,-1.22132567,0.8466189500000001,-0.33156359
864,1747486224670,-4.254406,-4.5689955,0.6047739,0.73822826,0.103863284,1.6729978
865,1747486224680,-3.6252265,-4.326891,0.06980037,0.73822826,0.103863284,1.6729978
866,1747486224690,-2.4320304,-3.6518285,-1.1590278,0.5699165,1.4556838,4.214719
867,1747486224700,-1.8211553,-3.3186905,-1.4748379,-0.5044027,2.1406488,4.8837047
868,1747486224710,-1.5425639,-3.16578865,-1.53646235,-1.0990866,2.3680829,5.131645
869,1747486224720,-1.0526189,-2.88048565,-1.56123415,-2.2317291,2.6439865,5.583317299999999
870,1747486224730,-0.353883,-2.5440528,-1.2700739,-3.774232,2.3552997,6.3452477
871,1747486224740,0.85444444,-2.1274471,-0.5274077,-4.5145907,1.4002901,7.203318
872,1747486224750,1.4023529,-1.8631331,-0.082735404,-4.3846283,1.0002834,7.335411
873,1747486224760,1.6051645,-1.76404585,0.0894469679999999,-4.2051313,0.855940035,7.3508575
874,1747486224770,1.97661965,-1.56306465,0.39036952,-3.78115615,0.615722865,7.3567165
875,1747486224780,2.4022555,-1.3147364,0.67091334,-2.9875343,0.3669836,7.221428
876,1747486224790,2.476693,-1.0589644,0.6987359,-1.9249328,0.314253,6.7868
877,1747486224800,2.4707135,-1.02247785,0.6602968499999999,-1.6974989,0.3539341099999999,6.6339345000000005
878,1747486224810,2.45289725,-0.983306675,0.5390004,-1.3792512,0.43356264,6.315953
879,1747486224820,2.4410605,-0.98062205,0.456143,-1.2884374,0.47351006,6.150837
880,1747486224830,2.26045835,-1.02662685,0.24100653,-1.3683322,0.567253325,5.7082195
881,1747486224840,2.03934245,-1.0454192,0.0849319205,-1.61067985,0.6127933999999999,5.57452885
882,1747486224850,1.8914437,-1.150974,-0.02391761,-2.8144288,0.9166601,5.745504
883,1747486224860,1.90450075,-1.17623395,-0.0009762289999999,-3.13187755,1.04475815,5.7939735
884,1747486224870,1.95343425,-1.23737025,0.108605476,-3.7316214,1.2644689,5.830192350000001
885,1747486224880,1.8868065,-1.279104,0.89032084,-4.1705103,1.0114686,5.668272
886,1747486224890,1.8450727,-1.2793481,1.159272,-3.788613,0.51771855,5.6704025
887,1747486224900,1.8702106,-1.2583592,1.2588474,-3.2874062,0.007989483,5.677327
888,1747486224910,1.9005958,-1.23907865,1.2442039,-3.04479215,-0.2010686585,5.65761965
889,1747486224920,1.9364723,-1.20466655,1.17062055,-2.63146945,-0.5424859200000001,5.62619415
890,1747486224930,1.9592916,-1.2298045,0.79318607,-2.4013723,-0.70733559,5.653624649999999
891,1747486224940,2.0444674,-1.2442038,0.71093875,-2.7340012,-0.4527374,6.0022326
892,1747486224950,2.1464834,-1.2395668,0.707766,-2.9201561,-0.37657099,6.0546968
893,1747486224960,2.1878512,-1.2357839,0.7614586,-3.2847429,-0.2282329149999999,6.13805365
894,1747486224970,2.264119,-1.2260216,0.91423845,-3.6000613,-0.0719053545,6.17933265
895,1747486224980,2.3172015,-1.20979175,1.13938125,-3.6842172,0.042077947,6.1332603
896,1747486224990,2.33294335,-1.20503265,1.5013181,-3.1864723,-0.2146507865,6.05815915
897,1747486225000,2.2499638,-1.1744035,1.730854,-2.31055855,-0.59921126,5.970541
898,1747486225010,2.2067656500000004,-1.172329,1.6052865,-1.63731145,-0.8032094000000001,5.99158
899,1747486225020,2.1495342500000003,-1.13706275,1.3434131,-1.18643825,-0.922785335,6.0773340000000005
900,1747486225030,2.11939315,-1.02674887,1.07238755,-1.00481067,-0.94222641,6.1958445
901,1747486225040,2.1464834,-0.5703618,0.65114474,-1.7880464,-0.46498793,6.563627
902,1747486225050,2.2138433,-0.3109289,0.78928113,-2.141714,-0.14221281,6.6115637
903,1747486225060,2.3119543,-0.1261776,0.9757409,-2.326005,0.10918961,6.589726
904,1747486225070,2.3119543,-0.1261776,0.9757409,-2.326005,0.10918961,6.589726
905,1747486225080,2.5245283,0.40611124,1.0423685,-2.1161478,0.17949706,6.6525764
906,1747486225090,2.9230738,0.6655441,0.7490117,-2.133192,0.20453078,6.705307
907,1747486225100,3.1269835500000003,0.795504575,0.57743945,-2.2791333,0.2218413249999999,6.6669575000000005
908,1747486225110,3.4951438,1.061038825,0.2297798989999999,-2.74678445,0.26631612,6.498912
909,1747486225120,3.841949,1.5812469,0.118855886,-4.729774,-0.28229508,5.438175
910,1747486225130,3.8609855,1.5277983,0.56011134,-4.914065,-0.9805759,5.3636065
911,1747486225140,3.9878953,1.632987,1.0064921,-4.6264434,-1.8184065,5.601693
912,1747486225150,4.10748365,1.8603264,1.14157775,-4.3342947,-2.1531657500000003,5.7596185
913,1747486225160,4.851614,2.47059155,1.1977109,-3.5044538,-2.7164243,5.84111125
914,1747486225170,5.476156,2.8535173,1.1187584,-2.9667616,-2.9449236,5.7646785
915,1747486225180,6.700348,3.3696985,1.0377314,-2.4884577,-2.753176,4.85441
916,1747486225190,7.04373625,3.46439265,1.04053805,-2.42081345,-2.7039075,4.418717
917,1747486225200,7.7842054,3.6916099,1.0330943,-2.3276029,-2.4623587,2.7537086
918,1747486225210,7.7090362,3.58544505,1.2086935,-2.5169536,-1.87353385,1.124919265
919,1747486225220,7.318788850000001,3.2436429,1.6046764,-2.72547915,-0.77497993,-1.123321385
920,1747486225230,7.0037107,3.0080056,1.8250601,-2.744654,-0.26525086,-1.7427727
921,1747486225240,5.62137025,2.1996879,2.3923712,-2.24744175,1.47485865,-2.8378645
922,1747486225250,4.03329,1.1624447,2.5081763,-0.33662358,2.957174,-3.4099116
923,1747486225260,3.822913,0.9652464,2.2868164,0.52464277,2.9774141,-3.5436022
924,1747486225270,3.671109,0.8678676,2.0244548,1.3480922,2.684999,-3.6954024
925,1747486225280,3.555914,0.8163715,1.7152344,2.2253375,2.141714,-3.9824913
926,1747486225290,3.4524338,0.71874857,1.2964321,2.6711507,1.736381,-4.3052664
927,1747486225300,3.120028,0.50324607,0.77048874,2.9049761,1.216532,-4.99396
928,1747486225310,2.8364334,0.42514774,0.64162654,2.86982235,1.16406775,-5.1183295
929,1747486225320,2.57456,0.36706212,0.57377857,2.76089905,1.077515,-5.33404535
930,1747486225330,2.4029877,0.27944556,0.60306543,2.5353293,0.9108011,-5.6096826
931,1747486225340,2.33111285,0.2576024249999999,0.6995900850000001,2.5427862,0.805339925,-5.7295248
932,1747486225350,2.0061505,0.0622346,1.1775762,3.2410672,0.26738137,-6.3175507
933,1747486225360,1.9675895,-0.0741934,1.2654368,3.5862129,0.1627191415,-6.45044255
934,1747486225370,1.9724706,-0.22453266,1.2417632,4.518319,-0.092145376,-6.813964
935,1747486225380,1.9810127,-0.40147418,1.1109486,5.0232544,-0.26205507,-7.061638
936,1747486225390,2.0666766,-0.7148437,0.7136234,5.4594803,-0.79255676,-7.48295
937,1747486225400,2.1281793,-0.8195442,0.4751795,5.354019,-1.0982877,-7.688546
938,1747486225410,2.1175627500000003,-0.8454143,0.40550113,5.20088735,-1.2444952,-7.766044
939,1747486225420,2.0815643,-0.8806805799999999,0.3435105699999999,4.862399549999999,-1.54676395,-7.86644525
940,1747486225430,1.9580714,-0.869576,0.4385709,4.363323,-1.9190739,-7.788681
941,1747486225440,1.91780195,-0.8240593199999999,0.4961684,4.0975397000000005,-1.7595505500000002,-7.492803800000001
942,1747486225450,1.9575832,-0.68604493,0.5091034,3.6469328,-1.2708606,-6.937002
943,1747486225460,2.0059066,-0.6591986400000001,0.45846153,3.5342811000000003,-1.13237615,-6.8483187
944,1747486225470,2.071314,-0.6036756249999999,0.34436478,3.2746229,-0.8961536999999999,-6.6978502
945,1747486225480,2.1804073,-0.50763905,0.17084008,2.761698,-0.74781567,-6.576943
946,1747486225490,2.5472255,-0.36437747,0.11177822,2.065015,-1.1089402,-6.957242
947,1747486225500,2.5586963,-0.37682438,0.12129646,1.7449032,-1.2996227,-7.21983
948,1747486225510,2.5253824,-0.39525069,0.1465563799999999,1.5997609000000002,-1.3771206500000002,-7.29892585
949,1747486225520,2.45887675,-0.44296388,0.2161127,1.32518895,-1.5305187,-7.40465335
950,1747486225530,2.3143947,-0.54083085,0.39878955,1.128115,-1.7006947,-7.355651
951,1747486225540,2.0984042,-0.61844105,0.5613316,1.2101405,-1.7070863,-6.944459
952,1747486225550,2.0564265,-0.6169767,0.58305275,1.2964269,-1.6287893,-6.7116985
953,1747486225560,2.04617605,-0.61734278,0.5884220250000001,1.35528275,-1.5997609000000002,-6.60969945
954,1747486225570,2.0144486,-0.61819696,0.5630401,1.47485865,-1.5816514000000002,-6.4155552
955,1747486225580,2.007737,-0.62344423,0.5098356,1.57632505,-1.6466325,-6.24937415
956,1747486225590,2.0085912,-0.6487042,0.4275883,1.6780578,-1.8226675,-6.0749369
957,1747486225600,1.9934596,-0.6884855,0.379509,1.7640779,-2.011752,-5.888782
958,1747486225610,1.96429475,-0.711548925,0.3704788799999999,1.7686053,-2.01574665,-5.8464377
959,1747486225620,1.90169405,-0.764753405,0.36279109,1.7867148,-2.0120181500000003,-5.75748805
960,1747486225630,1.7437891,-0.86371857,0.4148973,1.8844528,-1.9222697,-5.5782576
961,1747486225640,1.2778838,-0.97793734,0.6213697,2.4000409,-1.5217303,-5.3241916
962,1747486225650,0.95938903,-1.0904478,0.5962319,2.7899277,-1.3677995,-5.2943645
963,1747486225660,0.749987915,-1.13889315,0.52191645,2.96063625,-1.42106275,-5.2645371
964,1747486225670,0.33801929,-1.23017055,0.32642657,3.2168323,-1.6359799000000002,-5.15854335
965,1747486225680,0.0550349135,-1.3249868,-0.1598574949999999,3.2139029,-2.0378509,-4.9228535
966,1747486225690,0.08346757,-1.4824038,-0.91497064,1.6330504,-2.6210833,-4.6307044
967,1747486225700,0.027334413,-1.6447018,-1.1448725,0.31478566,-2.5374599,-4.8650627
968,1747486225710,-0.0385610434999999,-1.7423247,-1.12119895,-0.3731088699999999,-2.3931166,-5.0094061
969,1747486225720,-0.23978625,-1.952702,-1.01759665,-1.7030916,-2.0024309,-5.2304485
970,1747486225730,-0.615512375,-2.22763255,-0.7956266000000001,-2.8844699,-1.4492923,-5.25068855
971,1747486225740,-1.7799095,-2.9047694,-0.25748038,-4.924185,0.12783173,-4.214186
972,1747486225750,-1.9929714,-3.2298536,-0.029286869,-5.4200654,0.59388494,-3.7081857
973,1747486225760,-2.1363552,-3.3135651,0.1100698205,-5.521531700000001,0.77977359,-3.48128425
974,1747486225770,-2.4575346,-3.5300438,0.333626255,-5.576659299999999,1.06473182,-3.11589845
975,1747486225780,-3.005443,-3.9595848,0.58805595,-5.10661145,1.36993005,-2.50283885
976,1747486225790,-3.7367606,-4.3588624,0.9874556,-3.7145772,1.6314526,-1.3054816
977,1747486225800,-4.003759,-4.373506,1.1448725,-2.4319987,1.504686,-0.34194988
978,1747486225810,-3.9544597,-4.343487,1.0470055,-1.0636666,1.2911005,0.7307714
979,1747486225820,-3.6875831,-4.199615,0.694342835,-0.0804274749999999,1.36460375,1.814678
980,1747486225830,-3.4207065,-4.055743,0.34168017,0.90281165,1.438107,2.8985846
981,1747486225840,-2.391029,-3.4343739,-0.3912238,1.4732608,2.2194786,5.0845075
982,1747486225850,-1.6771613,-3.0980628,-0.69458693,1.2916331,2.4756746,5.7572217
983,1747486225860,-0.26162934,-2.4010353,-1.1002101,0.95447695,2.5965822,6.1646852
984,1747486225870,-0.0003660699999999,-2.24398435,-1.1199787,0.563791215,2.4863273,6.2459118
985,1747486225880,0.5361938,-1.7145022,-1.0218678,-0.08841695,2.060754,6.389989
986,1747486225890,0.8427297,-1.5160836,-0.7792748,-0.18002969,1.532383,6.5007763
987,1747486225900,0.95792465,-1.4285891,-0.67762495,-0.142745435,1.26313735,6.56708915
988,1747486225910,1.3657443,-1.2218726,-0.4424757849999999,-0.042077945,0.81545993,6.7316725
989,1747486225920,1.9035245,-1.0378534,-0.249304475,0.020240025,0.58562913,7.066698000000001
990,1747486225930,2.3414853,-0.89215125,-0.1099477899999999,-0.03488741,0.6093312500000001,7.318899500000001
991,1747486225940,2.65534295,-0.71386745,0.083711635,-0.118510675,0.793089365,7.296529
992,1747486225950,2.87609265,-0.5416850400000001,0.296895635,-0.13795175,1.1510183,7.0888023
993,1747486225960,3.022283,-0.318372665,0.51178805,-0.096406435,1.3813817,6.777745
994,1747486225970,2.9274666,-0.06443111,0.65285313,-0.03781689,1.8050907,6.1082263
995,1747486225980,2.7566266,-0.016351834,0.6440671,-0.072970614,1.9787288,5.7822556
996,1747486225990,2.66229845,-0.0019524574999999,0.63162015,-0.1209075169999999,2.0423783,5.6498963
997,1747486226000,2.4542396,-0.014399378,0.5767073,-0.350472,2.1454427,5.2448297
998,1747486226010,2.301826,-0.0628447415,0.58891015,-0.486559525,2.1680795,5.0914316500000005
999,1747486226020,2.0574026,-0.10640897,0.5981843,-0.76912093,2.294047,4.8666606
1000,1747486226030,2.0176213,-0.117879644,0.5706058,-0.97045594,2.4309335,4.8192563
1001,1747486226040,1.9922394,-0.12715383,0.5503491,-1.1957593,2.5065672,4.7654605
