id,timestamp,acc_x,acc_y,acc_z,gyro_x,gyro_y,gyro_z
1,1747486591790,-0.1059208449999999,0.493849865,0.61697675,1.0250506845,-0.78190412,-0.49614695
2,1747486591800,-0.24356914,-1.4304196,-0.29726174,-1.3177321,0.92997587,3.3417346
3,1747486591810,0.056133166,-1.4335922,-0.16864355,-1.04901915,0.2631203099999999,3.71297925
4,1747486591820,0.1413091475,-1.36122925,-0.237711775,-0.6791061,-0.427437365,3.9025964
5,1747486591830,0.16303024,-1.3403623,-0.2884757,-0.5747102,-0.66845345,3.9585228
6,1747486591840,0.19793043,-1.3098553,-0.40952805,-0.5294364,-1.103614,4.120443
7,1747486591850,0.27651685,-1.2717823,-0.54790854,-0.66632295,-1.3624732,4.3010054
8,1747486591860,0.32508424,-1.2420074,-0.6660322,-0.9827065,-1.4343786,4.5396247
9,1747486591870,0.6682287499999999,-1.21479495,-0.676404655,-2.2303975,-1.27245835,5.165201
10,1747486591880,0.7570656,-1.2146729,-0.64187056,-2.481001,-1.2154667,5.271461
11,1747486591890,1.088007235,-1.2188219,-0.45284822,-2.8889973,-1.1824435,5.4408383
12,1747486591900,1.2051547,-1.228096,-0.3743838,-3.1627703,-1.2958943,5.6693373
13,1747486591910,2.14855805,-0.82906247,0.1016498485,-3.1345406,-1.5249261,5.875999
14,1747486591920,2.50951875,-0.523136705,0.253453465,-2.2634206,-2.80723815,6.66216385
15,1747486591930,2.7305126,-0.38658667,0.31898284,-2.0399814,-3.0770164,6.834204
16,1747486591940,3.0892766,-0.13227904,0.35534734,-1.6005598,-3.1489217,6.950318
17,1747486591950,3.1236887,0.13740423,0.26821893,-1.3390374,-2.7638285,6.949785
18,1747486591960,3.184703,0.4349100099999999,0.2414946399999999,-1.2713931,-1.1539477,7.58255245
19,1747486591970,3.45841325,0.53436333,0.259920975,-1.23144575,-0.5448827700000001,7.74607065
20,1747486591980,3.6257145,0.60135704,0.2689511,-1.2026836,-0.25672874,7.771637
21,1747486591990,3.8827069,0.9374239,0.3968371,-1.0897655,0.12783173,7.759919
22,1747486592000,4.0267005,1.2212625,0.67140144,-0.8064052,0.40053943,7.811052
23,1747486592010,4.292723,1.6388444,0.9830626,0.267914,0.8159926,7.656588
24,1747486592020,4.3940067,1.7306099,0.87250465,0.82557994,1.1068097,7.321563
25,1747486592030,4.4957786,1.768927,0.6784792,1.2468921,1.3528858,6.767625
26,1747486592040,3.9412805,2.08851995,0.03514424,1.6221315,1.3246563,4.23682305
27,1747486592050,3.15297555,2.12024725,-0.202079405,1.3840449,1.099352885,3.43228205
28,1747486592060,2.4754727,2.11353565,-0.330941635,0.9819075,0.917192685,2.9635657
29,1747486592070,2.07863565,2.08644535,-0.314101685,0.5920207,0.8612663,2.706038
30,1747486592080,1.9424516,2.0713139,-0.2860351,0.4063984,0.8543421,2.5827336
31,1747486592090,1.7810077,2.0111537,-0.2366134999999999,-0.00692422,1.0032128,2.035454
32,1747486592100,1.2056428,1.81017265,-0.0776102085,-0.49508167,1.2008193500000002,1.3411679
33,1747486592110,0.9246109,1.7212138,-0.02269732488,-0.603206015,1.29056785,1.0860371
34,1747486592120,0.696051265,1.62786185,0.00744374562,-0.6306365650000001,1.3560816,0.88683265
35,1747486592130,0.60306543,1.5763657,0.014643434,-0.6247776,1.3805827,0.7957525
36,1747486592140,0.80246025,1.4550693,0.0353883,-0.2743056,1.1616709,-0.10439592
37,1747486592150,0.68018755,1.42590445,0.0654073429999999,0.300138265,0.68176925,-0.97738015
38,1747486592160,0.51984195,1.3844147,0.0153756054999999,0.65487132,0.264185585,-1.4000238500000002
39,1747486592170,0.4471129,1.3596429,-0.026846299,0.8117315,0.04474111,-1.5707325
40,1747486592180,0.34753752,1.2908187,-0.32850105,0.8788432,-0.55766594,-2.0165455
41,1747486592190,0.41758195,1.2183337,-0.4471129,0.42211105,-0.46898268,-2.30017235
42,1747486592200,0.455166775,1.1916095,-0.465783275,0.23222765,-0.386691,-2.394182
43,1747486592210,0.5399767,1.15378065,-0.422707155,0.044474795,-0.31744881,-2.4937842
44,1747486592220,1.03443663,1.13022915,0.25223317,-0.240749765,-0.18269286,-3.376622
45,1747486592230,1.2672672,1.1668377,0.41843617,0.0074568549999999,-0.27190875,-3.8157773
46,1747486592240,1.50912795,1.2254114,0.49323971,0.29081719,-0.378967825,-4.3199136
47,1747486592250,1.6400647,1.2532339,0.5051985,0.4282363,-0.4314321,-4.5854306
48,1747486592260,2.1178068000000003,1.33340675,0.483233365,0.75793565,-0.6002765,-5.46853495
49,1747486592270,2.35759305,1.37416435,0.571093965,1.08976555,-0.6567355500000001,-6.15696215
50,1747486592280,2.5074441,1.3906382,0.66017485,1.3214606,-0.660464,-6.5551047
51,1747486592290,2.706107,1.4946066,0.70337296,1.7054884,-0.4543353,-6.852846
52,1747486592300,3.13467145,1.63908845,0.52582134,1.978995,-0.19600866,-7.2011876
53,1747486592310,3.2869632,1.6717921,0.41050428,1.7267937,-0.0950748525,-7.638745099999999
54,1747486592320,3.4922152,1.5795386,-0.041001618,1.4466292,-0.068176925,-7.930894
55,1747486592330,3.5742183,1.4658079,-0.056377225,1.0189254,-0.118776985,-8.050203
56,1747486592340,3.74493665,1.2395668,0.191340885,0.6524744650000001,-0.051931644,-8.152735
57,1747486592350,3.7174802,1.074096,0.395006665,0.62557655,0.057524279,-8.134625499999999
58,1747486592360,3.5376098,0.7978231499999999,0.62478655,1.03463815,0.156593875,-7.869375
59,1747486592370,3.28208185,0.4882365199999999,0.72497203,1.59043985,0.2125202649999999,-7.5228975
60,1747486592380,3.04644465,0.271269625,0.65858848,1.9137476,0.25060347,-7.2698972
61,1747486592390,2.76260615,0.0911553777,0.55425402,2.13638785,0.36591834,-6.96469905
62,1747486592400,2.6062875,0.0065895454,0.49470404,2.2178805,0.45327002,-6.7942567
63,1747486592410,1.879851,-0.271635725,0.2826182849999999,2.2354575,0.92411695,-6.0736053000000005
64,1747486592420,1.5452485,-0.331917865,0.24405723,2.1856564,1.2144015,-5.6099488
65,1747486592430,1.376971,-0.36242503,0.22648512,2.1699438,1.2655342,-5.461078
66,1747486592440,1.0311419,-0.44808912,0.1701079,2.1513016,1.2697952,-5.143097
67,1747486592450,0.7043492,-0.55693865,0.08908089,2.1161478,1.2159994,-4.6615973
68,1747486592460,0.3756041,-0.6977597,0.0019524579,2.0415792,1.1233214,-4.186489
69,1747486592470,-0.15863721,-0.8844635,-0.14082102,1.6194683,0.96220015,-2.7595676
70,1747486592480,-0.37755656,-0.9371798,-0.20988922,1.5057513,0.9528791,-2.444782
71,1747486592490,-0.6085567700000001,-1.0204033,-0.286279155,1.04316022,0.944356945,-1.4546186
72,1747486592500,-0.70129852,-1.10069815,-0.34009379,0.680171345,0.97524962,-0.8183894
73,1747486592510,-0.7268025,-1.1534146,-0.36706212,0.49002165,0.9981528,-0.5086638
74,1747486592520,-0.66456788,-1.2324891,-0.36791631,-0.27377295,1.1307782,0.57311225
75,1747486592530,-0.63332856,-1.2600676,-0.3682824,-0.69508505,1.3076121,1.1318434
76,1747486592540,-0.5723142,-1.3132721,-0.35363895,-0.99229383,1.4604776,1.5132082
77,1747486592550,-0.46224442,-1.3674527,-0.30067852,-1.2159994,1.5084145,1.8226675
78,1747486592560,-0.3236199,-1.3967396,-0.23161033,-1.2420984000000002,1.0844392,2.06181935
79,1747486592570,-0.106653015,-1.3459758000000002,-0.1217845725,-1.05860655,0.59708072,2.1417141
80,1747486592580,-0.10079564,-1.3288918,-0.122272685,-0.9534117,0.41225734,2.1688783
81,1747486592590,-0.12178457,-1.3039979,-0.17425688,-0.7392935,0.09054748,2.2961776
82,1747486592600,-0.16107778,-1.2822767,-0.25845662,-0.582167,-0.13156016,2.5065672
83,1747486592610,-0.18938842,-1.2542102,-0.3385074,-0.50600064,-0.314253,2.8511803
84,1747486592620,-0.1692536949999999,-1.12168715,-0.5025138849999999,-0.702275575,-0.42823632,3.51537265
85,1747486592630,-0.15741692,-1.095573,-0.53643787,-0.79628515,-0.4261058,3.6309538
86,1747486592640,-0.10348027,-1.0479817,-0.6199054,-1.0966897,-0.42663842,3.8429415
87,1747486592650,0.027090356,-1.0211354,-0.6711574,-1.4759239,-0.47297743,4.005927
88,1747486592660,0.2511349,-1.001611,-0.6772589,-1.8807244,-0.5587312,4.101801
89,1747486592670,0.5801241,-0.9540198,-0.60941094,-2.6551716,-0.7190535,4.1284323
90,1747486592680,0.8328453600000001,-0.910943685,-0.35290678,-2.9334719,-1.11985925,4.087153450000001
91,1747486592690,0.92949203,-0.840655215,-0.157416925,-2.8623656,-1.5547534500000002,4.110056650000001
92,1747486592700,0.9214381,-0.6383317500000001,0.0749255799999999,-2.7680898,-1.7741979,4.152401
93,1747486592710,0.99587555,-0.44223173,0.244911455,-1.8322549,-2.52787255,5.297027699999999
94,1747486592720,1.249329,-0.35205257,0.28957392,-1.4570155,-2.36941445,5.8208715
95,1747486592730,1.539025,-0.26199546,0.316298185,-1.1520835,-1.90735605,6.27201085
96,1747486592740,2.1621031,-0.184873375,0.27139166,-0.92704635,-1.070857125,6.6592345
97,1747486592750,2.93576455,-0.0807829505,0.16595893,-0.85593998,-0.4308994849999999,6.55856715
98,1747486592760,3.2249725,0.1186118195,0.0586957675,-0.92731273,-0.3901531099999999,6.0155485
99,1747486592770,3.2279012,0.24869433,0.004881145,-0.9763149,-0.4495416,5.75083
100,1747486592780,2.8974476,0.3807293,-0.056133166,-1.1478225,-0.76485986,5.576659
101,1747486592790,2.3807786,0.6286915,-0.05027579,-1.6836505,-1.0940266,6.689328
102,1747486592800,2.87450635,0.6772588500000001,0.30360723,-1.9188076,-0.51851748,7.6717682
103,1747486592810,3.25230685,0.6988579,0.43198133,-1.9547603,-0.18109496,7.901599
104,1747486592820,3.61265735,0.6855568000000001,0.51325238,-2.0754015,0.85194525,7.987619
105,1747486592830,3.8082693,0.6804316,0.554254,-2.128931,1.1249193,7.916513
106,1747486592840,4.062333000000001,0.94486765,0.7144775999999999,-1.96035295,1.29296475,6.412625800000001
107,1747486592850,4.3163967,1.2093037,0.8747012,-1.7917749,1.4610102,4.9087386
108,1747486592860,3.3244258,1.39490915,1.08153965,-0.7603324899999999,0.77205044,3.8485342
109,1747486592870,2.52440605,1.5124227499999998,0.9529215,0.0047936849999999,0.20240025,3.55558645
110,1747486592880,2.0793676,1.581735,0.8022162,0.37763625,-0.09054748,3.4839475
111,1747486592890,2.12976565,1.6400647,0.444672305,1.12518565,-0.7512777850000001,3.2077775
112,1747486592900,2.1630795,1.6639824,0.34119204,0.96166753,-0.602939695,2.8410603
113,1747486592910,2.1342807,1.7125497,0.18255483,0.82398206,-0.47617322,2.6205506
114,1747486592920,2.0691173,1.7537954,0.10689708,0.30519825,-0.01438107,1.9829898
115,1747486592930,1.9380586,1.8755801,0.18621568,-0.43888897,0.6599313,0.753142
116,1747486592940,1.8220094,1.88314575,0.2174550049999999,-0.531300665,0.756604075,0.438090023
117,1747486592950,1.29887265,1.7941869,0.342412325,-0.64847975,0.9139969,-0.6167881
118,1747486592960,1.082759975,1.7426908,0.435520175,-0.50173955,0.8530105,-1.02691495
119,1747486592970,0.98428285,1.7249967,0.48640612,-0.3920173,0.8117315,-1.2218584
120,1747486592980,0.7067898,1.5975988,0.5864696,0.29454562,0.62744075,-1.8397117
121,1747486592990,0.60306543,1.50925,0.5706058,0.690824,0.5656554,-2.078331
122,1747486593000,0.536803925,1.3869773,0.43320161,1.2370384,0.54435013,-2.4405208
123,1747486593010,0.585249275,1.31607865,0.32484018,1.45035755,0.543284875,-2.6663569000000003
124,1747486593020,0.7050814000000001,1.25018325,0.180358295,1.6008261,0.461525825,-3.10950695
125,1747486593030,0.7804951,1.214917,0.08908089,1.6618125,0.3787015,-3.4269557
126,1747486593040,0.822717,1.189779,0.094206095,1.62665885,0.271109805,-3.8144457
127,1747486593050,0.8668914,1.1758678,0.13667206,1.6101472,0.27217507,-3.921771
128,1747486593060,1.0023432,1.1692783,0.16180995,1.5504924,0.39361522,-4.362258
129,1747486593070,1.4692247,1.1475571,0.26553428,1.484446,0.5640575,-4.362258
130,1747486593080,1.6838730000000002,1.13974735,0.38109539,1.5925703,0.89375687,-5.0669303
131,1747486593090,1.7437891,1.142432,0.42612398,1.73212,0.8357,-5.3417687
132,1747486593100,2.0128621,1.19392805,0.58903218,2.1110878,0.52038168,-5.73591635
133,1747486593110,2.32318085,1.2412752,0.6286914699999999,2.2626216,0.40107206,-5.8557587
134,1747486593120,2.5564997,1.2673893,0.60941094,2.54758,0.21252026,-6.033658
135,1747486593130,2.8486362,1.2412751,0.5347294,2.8224182,0.1257012,-6.4778733
136,1747486593140,3.0790262,1.2014939,0.40000984,2.787797,0.15499598,-6.7564397
137,1747486593150,3.25364925,1.1414557,0.26126329,2.5060346,0.2037318249999999,-7.039267499999999
138,1747486593160,3.5572566,1.11961255,0.35217463,2.3286681,0.215716045,-7.1785507
139,1747486593170,3.8031441,1.0496902499999998,0.4539465,2.269546,0.2514024,-7.2603097
140,1747486593180,3.8094895,1.001367,0.4829893,2.356365,0.38402784,-7.368967
141,1747486593190,3.7518923,0.9269294,0.49738866,2.4857945,0.48043427,-7.422763
142,1747486593200,3.5852008,0.7326599,0.5015376,2.6162896,0.5070659,-7.460047
143,1747486593210,2.77834775,-0.006833605,0.315321975,2.74864865,0.397343635,-7.3053174
144,1747486593220,2.3890765,-0.248816355,0.22074978,2.67967285,0.22583606,-6.8568411000000005
145,1747486593230,2.2067657,-0.35632357,0.17547716,2.5933864,0.13209279,-6.5843997
146,1747486593240,1.63262105,-0.6280813199999999,0.01586372,2.1941784,-0.05566007,-5.89357545
147,1747486593250,1.142554025,-0.73607665,-0.088226695,2.030394,-0.10652645,-5.6677394
148,1747486593260,0.83125895,-0.7826916,-0.14179726,1.123854,-0.294013,-4.737764
149,1747486593270,0.5806122,-0.80343646,-0.13862452,0.411724735,-0.206128665,-4.0376186
150,1747486593280,0.3226437,-0.82442534,-0.09615856,0.18801917,-0.13209279,-3.8125815
151,1747486593290,0.102504045,-0.8520039,-0.037828874,-0.16618125,0.10972224,-3.4040525
152,1747486593300,-0.13496366,-0.8881243,0.04271002,-0.39468047,0.3552657,-3.0115025
153,1747486593310,-0.6199054,-1.0062481,0.1889003,-0.36591834,0.6780408,-1.9781961
154,1747486593320,-0.9197297,-1.1728171,0.22392253,-0.15339808,0.6583334,-1.4215955
155,1747486593330,-1.0764144999999998,-1.25701685,0.16095576,0.2282329099999999,0.40746367,-0.39654469
156,1747486593340,-1.1480453,-1.2966762,0.10884953,0.34301516,0.29294774,-0.02396845
157,1747486593350,-1.2427394,-1.3547617,-0.021721095,0.4612595,0.0127831735,0.7595336
158,1747486593360,-1.040172,-1.4566557,-0.34045987,0.2423476575,-0.355532,2.273807
159,1747486593370,-0.8504175,-1.4590963,-0.389393345,-0.1171790975,-0.40932786,3.3028524
160,1747486593380,-0.6280813199999999,-1.44274445,-0.399521715,-0.43516055,-0.303866685,3.85173
161,1747486593390,-0.50885934,-1.4306636,-0.3973252,-0.59867865,-0.23542345,4.0996704
162,1747486593400,-0.1849954,-1.3838046,-0.37926495,-1.0088054,-0.048469532,4.5119276
163,1747486593410,0.322277595,-1.23785835,-0.37450584,-1.6261261500000002,0.23622239,4.5595982500000005
164,1747486593420,0.62612888,-1.12485985,-0.383413925,-2.06315085,0.35286885,4.3169842
165,1747486593430,0.69165826,-1.0845904,-0.38707477,-2.1901836,0.3536678,4.1646514
166,1747486593440,0.6291796,-1.002099,-0.36706212,-2.3776703,0.2130529,3.8557248
167,1747486593450,0.25906675,-0.90057125,-0.25125693,-2.5092304,-0.35979306,3.69407085
168,1747486593460,0.0959145,-0.8539563,-0.17132819,-2.3864588,-1.209874075,3.93082585
169,1747486593470,0.11568313,-0.823815215,-0.0497876805,-2.1329259,-1.9592876,4.297010500000001
170,1747486593480,0.210865465,-0.81649353,-0.0150095205,-1.92226975,-2.16035625,4.572914
171,1747486593490,0.366696015,-0.80587706,-0.0178161785,-1.75715365,-2.16008995,4.82618075
172,1747486593500,0.71252515,-0.72594828,-0.037218731,-1.62825665,-1.8748654,5.01100425
173,1747486593510,0.9650024,-0.6570021,-0.04807928,-1.53344815,-1.59390195,5.02724935
174,1747486593520,1.3795335999999998,-0.29872606,-0.0279445539999999,-1.4492923,-1.5534219500000002,4.92764685
175,1747486593530,1.4501882,-0.14716652,-0.011958805,-1.397627,-1.5611451,4.883172
176,1747486593540,1.547811,0.42368335,0.1632743,-1.1190603,-1.8876486,5.086638
177,1747486593550,2.025675,0.6360132,0.2630937,-0.8974853,-1.804558,5.123922
178,1747486593560,2.1888274,0.72558217,0.28774349,-0.78829568,-1.0990866,5.021656500000001
179,1747486593570,2.2053013,0.72118914,0.27920148,-0.7888283,-0.8021441,4.970524
180,1747486593580,1.9051109,0.77292927,0.29701767,-0.8644621,-0.20026971,4.9710565
181,1747486593590,1.8138335,0.84150934,0.35607952,-0.9619338,0.13635385,5.2996907
182,1747486593600,2.7306346,0.87982635,0.4117245699999999,-0.94116115,-0.12463594,6.1939802
183,1747486593610,3.1300342,0.9401085,0.4144092,-0.8863,-0.22530343,6.136456
184,1747486593620,3.6157079,1.1490215,0.39342028,-0.7840346,-0.4394216,5.579323
185,1747486593630,3.640846,1.2756872,0.25772443,-0.8277105,-0.5944176,4.877846
186,1747486593640,3.30282675,1.2049105999999998,0.119099925,-1.2596752,-0.395213125,4.4813012
187,1747486593650,2.6165376,0.9876996,0.029774986,-2.2034996,0.24607609,4.1151166
188,1747486593660,2.404452,0.8258897,0.19280522,-2.583799,0.7526093,4.2381544
189,1747486593670,2.3737006,0.69117016,0.4634647,-2.680738,1.1430287,4.3180494
190,1747486593680,2.459365,0.86201024,1.0767806,-2.3771377,1.2825783,4.311658
191,1747486593690,2.409089,1.0196712,1.154879,-0.8495484,0.88896316,4.026167
192,1747486593700,2.3125645,1.1941720500000002,0.88165685,0.324106717,0.322242493,3.4898064
193,1747486593710,2.0810762,1.2839851,0.43905901,0.6905577,0.0029294779999999,2.7915255
194,1747486593720,1.9016942,1.3271832,0.13862452,0.716923,-0.11717909,2.3393207
195,1747486593730,1.666911,1.3337729,-0.0319715,0.39254996,0.016511599,1.9403793
196,1747486593740,1.4526287,1.3100992,-0.11299851,-0.03888215,0.27217507,1.6181368
197,1747486593750,1.2172355,1.2681214,-0.083833667,-0.68123663,0.7403588,1.2133362
198,1747486593760,1.1402354,1.2595794,-0.046614934,-0.9909623,0.9872338,0.9227853
199,1747486593770,1.1391372,1.34170465,0.194757675,-1.09908665,1.07565075,0.35100463
200,1747486593780,1.1841658,1.3960074,0.33362624,-1.0871024,1.067395,-0.06338324
201,1747486593790,1.1995413,1.445063,0.49543622,-0.69348717,0.77870834,-0.7254451
202,1747486593800,1.0526189,1.4680043,0.71765035,-0.19014971,0.43729106,-1.2681973
203,1747486593810,0.9402305,1.39173645,0.61600049,0.67777452,-0.027164245,-1.9382486
204,1747486593820,0.86249827,1.2893545,0.35363895,1.22691835,-0.157659145,-2.4676851
205,1747486593830,0.84199744,1.2554306,0.22990192,1.4956313,-0.16831179,-2.7968519
206,1747486593840,0.818568,1.2002735,-0.016351834,1.4040185,-0.056991648,-3.0439932
207,1747486593850,0.8432178,1.171963,-0.15082738,1.1206582,0.082558,-3.2336102
208,1747486593860,1.28850015,1.2113781499999998,0.139356692,0.6886934499999999,0.159257035,-3.9633165
209,1747486593870,1.5558649,1.2564068,0.39756927,0.6135923,0.1438107,-4.452273
210,1747486593880,1.6065068,1.2498172,0.502757935,0.75260933,0.090813795,-4.730307
211,1747486593890,1.6405528,1.23224505,0.654683575,1.05381288,-0.031158985,-5.243498
212,1747486593900,1.5680678,1.1746475,0.66066295,1.3289174,-0.144077015,-5.6299227
213,1747486593910,1.72487455,0.9957536,0.58964232,1.5259913,0.421045765,-6.01474925
214,1747486593920,2.00273375,1.01015295,0.672011645,1.58937455,0.88230528,-6.037386250000001
215,1747486593930,2.1948068,1.0394398,0.73558855,1.639442,1.1121361,-6.06242
216,1747486593940,2.71110985,1.1814811,0.91204195,2.16994375,1.3600764,-6.4083648
217,1747486593950,3.03363155,1.2201642,0.824425375,2.61788735,1.077515,-6.8885327
218,1747486593960,3.2178948,1.214917,0.71948075,2.838397,0.8048073,-7.2001224
219,1747486593970,3.27634645,1.0738519,0.6415044750000001,2.8650289,0.49641323,-7.4264913
220,1747486593980,3.3006301,0.9698835,0.67262175,2.8197551,0.282295075,-7.57695975
221,1747486593990,3.295749,0.9283937,0.7143555,2.8181572,0.25033715,-7.590009
222,1747486594000,3.282814,0.7507201,0.7292431,2.92761305,0.49348375,-7.3812175
223,1747486594010,2.9278327,0.27920149,0.679821475,3.0642332,0.682834505,-7.1170318
224,1747486594020,2.6278864000000004,0.14106508,0.6365012999999999,3.119627,0.71319455,-6.9955916
225,1747486594030,2.4622936,0.08859278,0.6152683,3.2368062,0.6593987,-6.540191
226,1747486594040,2.1203694,-0.016107777,0.571338,3.290602,0.54275227,-6.11302
227,1747486594050,1.7869871,-0.059305906,0.56596875,3.3428,0.41225734,-5.635782
228,1747486594060,1.22187255,-0.279567585,0.37047889,3.3635726,0.24554345,-4.8496165
229,1747486594070,1.1165619,-0.34216827,0.2967736,3.10631105,0.24074977,-4.562261250000001
230,1747486594080,0.8571291,-0.4698102,0.10348027,2.9774141,0.2609898,-4.499677
231,1747486594090,0.58988637,-0.5725583,-0.06858008,2.7880634,0.3358246299999999,-4.452539
232,1747486594100,0.28554696,-0.6653,-0.19451363,2.143312,0.64821345,-4.237622
233,1747486594110,-0.5507152,-0.829306525,-0.399887785,1.0141318,1.3278521,-3.4328146
234,1747486594120,-0.82088658,-0.865427,-0.422463105,0.3587278,1.59656505,-2.62081695
235,1747486594130,-0.94572186,-0.8778739,-0.42685616,0.16458336,1.6522251,-2.3276029
236,1747486594140,-1.1446284,-0.9266854,-0.4253918,-0.14061491,1.6804547,-1.6964337
237,1747486594150,-1.287646,-0.97134787,-0.39781332,-0.25007083,1.62479465,-1.3632722
238,1747486594160,-1.3485383,-1.00771237,-0.385488415,-0.6332997499999999,1.060737085,0.3893541499999999
239,1747486594170,-1.3054622,-1.0245523,-0.3863426,-0.7547399,0.76592517,1.1041466
240,1747486594180,-0.934007125,-1.04456505,-0.34582913,-0.92624745,0.396278365,2.07833095
241,1747486594190,-0.70239675,-1.0589644,-0.32386398,-1.0474213,0.265250845,2.64105685
242,1747486594200,-0.47981654,-1.06250325,-0.29299073,-1.14622455,0.2210423799999999,3.0131005
243,1747486594210,-0.25723633,-1.0660421,-0.26211748,-1.1888351,0.2130529,3.1670313
244,1747486594220,0.055523019,-1.05103255,-0.26956122,-1.3635385,0.353934125,3.41443885
245,1747486594230,0.153512,-1.052863,-0.2779812,-1.4029533,0.38083205,3.3955305
246,1747486594240,0.39878955,-1.0755602,-0.38658667,-1.645301,0.43036684,3.1521175
247,1747486594250,0.41587353,-1.0753163,-0.4595598,-1.8263959,0.43516052,3.0067089
248,1747486594260,0.35168648,-1.061405,-0.5008055,-2.011752,0.35100463,2.8852687
249,1747486594270,0.155220405,-0.99892627,-0.454922705,-2.20989105,-0.1344896365,2.8549087
250,1747486594280,0.08102701,-0.97427654,-0.43710655,-2.2434468,-0.31638354,2.8842034
251,1747486594290,-0.06858008,-0.8937377,-0.3653537,-2.30629755,-1.386708,3.38993785
252,1747486594300,-0.06980037,-0.8605459,-0.3270367,-2.3116238,-1.5643408,3.5169706
253,1747486594310,0.0762678895,-0.8487090500000001,-0.205252145,-2.204831,-1.84184225,3.89886785
254,1747486594320,0.14350566,-0.8473667,-0.15668476,-1.9595539,-1.99310975,4.15293325
255,1747486594330,0.65090066,-0.75169635,-0.082247294,-1.7768611,-2.0852551,4.283428
256,1747486594340,0.8371163,-0.64040625,-0.08322352,-1.5643408,-2.1774006,4.209925
257,1747486594350,0.8812907,-0.524479,-0.09615856,-1.3432984,-2.3366575,4.1209755
258,1747486594360,0.844560075,-0.324840205,-0.058329683,-1.13450665,-2.6232138000000003,4.5758435
259,1747486594370,0.84785485,-0.23966423,-0.023429496,-1.0567423,-2.7201529,4.835768
260,1747486594380,1.4077222,0.15082738,0.1244692,-0.63223445,-2.9193573,6.2094264
261,1747486594390,2.076195,0.21281794,0.14521407,-0.4415521,-2.8948562,6.552974
262,1747486594400,2.6516821,0.21916342,0.04002539,-0.35899413,-2.6498454,6.4091635
263,1747486594410,2.9789627000000003,0.250280715,-0.18426322,-0.49055427,-2.1576931,5.9106197
264,1747486594420,2.8380196,0.30189884,-0.19573391,-0.8181231,-1.6985642,5.3481603
265,1747486594430,2.6426518,0.34045988,-0.153512,-1.5893745,-1.0652645,5.172924
266,1747486594440,2.664861,0.4742032,0.030751213,-1.7038904,-1.0242518,5.6629457
267,1747486594450,3.0365603,0.67555046,0.12983845,-1.6969663,-0.99495703,6.1572285
268,1747486594460,3.6260805,0.852125885,0.3398496949999999,-1.5030882,-0.81386205,6.144978
269,1747486594470,3.58837375,0.91850945,0.48286724,-1.1965583,-0.22130869,5.7260627500000005
270,1747486594480,3.4089918,0.9178993,0.54253924,-0.9938917,0.26312032,5.4392405
271,1747486594490,3.1397965,0.7497439,0.5957437,-0.84368944,0.81439465,5.3438993
272,1747486594500,2.9213653,0.66896087,0.64089435,-0.6466155,1.2090752,5.3146043
273,1747486594510,2.7946997,0.63162017,0.6467517,-0.33289513,1.4695324,5.187838
274,1747486594520,2.5191588,0.7597502,0.37584817,0.07190535,1.4418354,4.7990165
275,1747486594530,2.5201352,0.85956967,0.17645338,0.08948222,1.2389026,4.511395
276,1747486594540,2.592376,1.001367,0.007565775,0.027164243,1.0290455,4.062386
277,1747486594550,2.36723325,1.1960025,0.0551569395,-0.050600063,0.7946873,3.5744948
278,1747486594560,2.06801915,1.22504535,0.07199689,-0.0290284565,0.469781635,2.7457191
279,1747486594570,1.8426323,1.2478647,0.04612682,-0.032490566,0.38935417,2.390986
280,1747486594580,1.6058967,1.24713255,-0.03892713,-0.273772955,0.399207865,2.016013
281,1747486594590,1.27959215,1.244692,-0.1385024799999999,-0.5544701350000001,0.4564658299999999,1.7765948
282,1747486594600,1.1900232,1.2429836,-0.15302388,-0.70147663,0.48842376,1.6724652
283,1747486594610,1.1326695999999998,1.2690977,-0.0505198525,-1.15394775,0.813329425,0.956074835
284,1747486594620,1.1592718999999998,1.29814055,0.1424074075,-1.25940895,1.0697919,0.17923075
285,1747486594630,1.1521943,1.3093672,0.24283697,-1.2090752,1.135572,-0.14008227
286,1747486594640,0.990018275,1.3110756,0.44137755,-0.684698715,0.96246643,-1.036768625
287,1747486594650,0.796480825,1.2525018,0.430517,0.070041135,0.460194243,-1.6876451
288,1747486594660,0.6301558,1.17013245,0.30946458,0.76912092,0.0242347665,-2.15156775
289,1747486594670,0.562674,1.1081419,0.176087298,1.03437175,-0.008788431,-2.2884544
290,1747486594680,0.5361938,1.0843463,0.119343996,1.1329087,0.017044231,-2.3430493
291,1747486594690,0.51349646,1.0677505,0.036608588,1.2351742,0.17150758,-2.4319987
292,1747486594700,0.5864696,1.0714114,0.008297946,1.2857742,0.3206446,-2.5704832
293,1747486594710,0.99746195,1.1787965,0.1367940775,1.4783206999999998,0.162186505,-3.1427964
294,1747486594720,1.1625667,1.2402989,0.1799922099999999,1.6048208,-0.04580637,-3.4972632
295,1747486594730,1.21931,1.2776396,0.20403185,1.7225326,-0.35792887,-3.9526637
296,1747486594740,1.21931,1.2776396,0.20403185,1.7225326,-0.35792887,-3.9526637
297,1747486594750,1.41394565,1.2856935,0.17303658,1.59922825,-0.4194478849999999,-4.4828991
298,1747486594760,1.7369554,1.31424825,0.322887755,1.50814815,-0.353401485,-5.19023475
299,1747486594770,1.8653295,1.3347491,0.5037342,1.5403724,-0.22583607,-5.367335
300,1747486594780,2.15771,1.4558015,0.6347929,1.76248,-0.2066613,-5.513276
301,1747486594790,2.4437451,1.6124862,0.68311626,1.9659456,-0.26525086,-5.7210026
302,1747486594800,2.84888,1.7054721,0.6501685,1.9313244,-0.451672135,-6.392652
303,1747486594810,3.5722659,1.8062676,0.49616838,1.798699,-0.5086638,-6.757505
304,1747486594820,3.98215985,1.72035955,0.510445735,1.39416485,-0.378435195,-7.3053173
305,1747486594830,4.0967445,1.6447018,0.5432714,1.2490226,-0.26631612,-7.5202346
306,1747486594840,4.070631,1.4431105,0.6850687,1.1547467,0.050600063,-7.7386136
307,1747486594850,3.9605608,1.2368821,0.77561396,1.25221835,0.597613375,-7.751397
308,1747486594860,3.61277925,0.50336808,0.853224125,1.64024095,0.9001484500000001,-7.64487035
309,1747486594870,3.3328456500000003,0.2212379,0.816737595,2.1302626,1.0058759350000002,-7.45019315
310,1747486594880,3.1725001,0.09542638,0.79513854,2.3052323,0.96619487,-7.3460636
311,1747486594890,2.8879294,-0.17206036,0.7063017,2.6375947,0.79255676,-7.0520506
312,1747486594900,2.39676415,-0.549128815,0.483355375,2.9917952,0.51691957,-6.554838350000001
313,1747486594910,1.8224974,-0.728266835,0.285058855,2.9782131,0.34328146,-5.9529641
314,1747486594920,1.29094075,-0.8296726,0.139600738,2.76942125,0.221308685,-5.339638
315,1747486594930,1.1531705,-0.8510276,0.111046046,2.6599653,0.18695392,-5.1287155
316,1747486594940,0.9093573,-0.8978866,0.059549972,2.4181504,0.17949706,-4.7276435
317,1747486594950,0.43857089,-0.95194525,-0.0605261945,2.1518342,0.2034655,-4.3404202
318,1747486594960,0.19988288,-0.9730562,-0.12983845,1.5329156,0.22050974,-3.6208339
319,1747486594970,-0.1450920315,-1.02711495,-0.2224581749999999,1.0418286,0.363255165,-3.07382065
320,1747486594980,-0.474081225,-1.1179042,-0.32081325,0.47697215,0.484695325,-2.3185481
321,1747486594990,-0.6887296,-1.1858741,-0.38829508,0.0777643,0.54435015,-1.7555559
322,1747486595000,-0.8417535,-1.2088156,-0.40781966,-0.399474175,0.33635725,-0.8831042499999999
323,1747486595010,-0.92326857,-1.22821805,-0.39671504,-0.693220855,0.1456749125,-0.284159318
324,1747486595020,-0.9225364,-1.2354177,-0.3863426,-0.83516735,0.046339005,0.017576864
325,1747486595030,-0.802338225,-1.2424954,-0.3280129349999999,-1.058606525,-0.0250337125,0.5478122320000001
326,1747486595040,-0.450041565,-1.29716425,-0.19732029,-1.427987,-0.012250541,1.4679344
327,1747486595050,-0.3917119,-1.313028,-0.17840585,-1.5339808,0.16937704,1.8098843
328,1747486595060,-0.3133695,-1.3535415,-0.13911264,-1.6112125,0.43729106,2.14491
329,1747486595070,-0.24796216,-1.3996683,-0.09786696,-1.635181,0.78989357,2.5587652
330,1747486595080,-0.1769415,-1.3823403,-0.082735404,-1.4572818,0.89855057,3.0642333
331,1747486595090,-0.1555865,-1.3780693,-0.089569007,-1.37845225,0.755805135,3.1574439
332,1747486595100,-0.0873725,-1.3435352,-0.12373702,-1.1121361,0.18109496,3.3907368
333,1747486595110,-0.055400997,-1.3201057,-0.17303659,-0.92464954,-0.27164245,3.5095139
334,1747486595120,-0.042465962,-1.2993608,-0.1803583,-0.6199839,-0.8191883499999999,3.73881185
335,1747486595130,-0.0263581811,-1.24103115,-0.275052515,-0.474042675,-1.0695255499999998,4.14654185
336,1747486595140,-0.0051252022,-1.2185779,-0.33826336,-0.42717105,-1.1723236,4.4639907
337,1747486595150,0.1444819,-1.2215066,-0.36901456,-0.5795039,-1.031176,4.812865
338,1747486595160,0.3841461,-1.1844097,-0.41050428,-0.80533993,-0.78776306,5.067463
339,1747486595170,0.73436826,-1.1024066,-0.4234393,-1.0444918,-0.6775082,5.0930295
340,1747486595180,1.2212625,-0.81978834,-0.383658,-1.2351742,-1.1547467,4.5630603
341,1747486595190,1.1883147,-0.690438,-0.38268176,-1.2634037,-1.5393071,4.460795
342,1747486595200,1.138771,-0.5623079,-0.38951537,-1.3321131,-1.8519622,4.6770434
343,1747486595210,1.2061309,-0.39488465,-0.27480847,-1.3859091,-2.036253,5.1510863
344,1747486595220,1.867038,-0.035144243,0.054668825,-1.1611383,-1.7544906,6.170544
345,1747486595230,2.1887054,0.14130914,0.16595893,-1.0290455,-1.1313108,6.4283385
346,1747486595240,2.575536,0.200371,0.22502078,-0.9507485,-0.37124467,6.557768
347,1747486595250,2.8286235,0.25821257,0.23136626,-0.8607337,0.32117724,6.522082
348,1747486595260,3.0555966,0.29213652,0.24942651,-0.7174556,0.59867865,6.3804016
349,1747486595270,3.1336951,0.67579454,0.24064046,-0.117445406,-0.180296009,6.5862637
350,1747486595280,3.2557237,0.9005712,0.17938207,-0.026631612,-0.3850931,6.7596354
351,1747486595290,3.5859332,1.1539028,0.10640897,-0.013848438,-0.5187838,7.1276846
352,1747486595300,3.9839904,1.3501247,0.09518232,-0.15606125,-0.2247708,7.257114
353,1747486595310,4.3626454,1.3867333,0.213794145,-0.4878911,0.5949502,7.0589747
354,1747486595320,4.42158515,1.34768415,0.385244365,-0.93556853,1.929194,6.180398
355,1747486595330,4.403525,1.3484163,0.49201941,-1.0604708,2.450641,5.6027584
356,1747486595340,4.055255,1.3484163,0.7804951,-0.62371236,2.4144218,4.8709216
357,1747486595350,3.4211946,1.3503687,1.0387076,0.23009712,2.0628846,4.2844934
358,1747486595360,2.3251334,1.33084415,0.358154005,2.36968075,0.94142745,3.52309585
359,1747486595370,2.1796753,1.343291,0.08786061,2.5747442,0.7669904,3.3955305
360,1747486595380,1.9500173,1.4072341,-0.49860895,1.8351844,0.58989017,2.9041773
361,1747486595390,1.7572123,1.4692247,-0.9606094,1.4231933,0.5954828,2.7451866
362,1747486595400,1.5971106,1.4828918,-1.1121689,0.3552657,0.7888283,2.3963125
363,1747486595410,1.21992015,1.28776805,-0.57084991,-1.351287965,1.5486282500000002,1.79976435
364,1747486595420,0.90520835,1.19807705,-0.2668765899999999,-2.005893,1.923335,1.5275892
365,1747486595430,0.797335,1.1521943,-0.12129646,-2.171009,2.1177456,1.2953615
366,1747486595440,0.6711574,1.1077759,0.04783522,-2.102832,2.133192,1.0604708
367,1747486595450,0.5867136,1.1099724,0.13179092,-1.8706044,2.021872,0.809601
368,1747486595460,0.6792113,1.142676,0.11983211,-1.03011072,1.109739275,-0.399474165
369,1747486595470,0.5664568750000001,1.1589058,0.043564219,-0.7789746200000001,0.655670285,-0.919589575
370,1747486595480,0.41953441,1.10399295,-0.049909707,-0.640490235,0.2261023835,-1.33557535
371,1747486595490,0.33899552,1.0636015,-0.093473926,-0.594417585,-0.0756337765,-1.60189145
372,1747486595500,0.16986385,1.014546,-0.12910628,-0.5880259999999999,-0.1158475099999999,-1.7827201
373,1747486595510,0.116903417,0.90874717,-0.0349001865,-0.56245962,0.01518002,-1.9337213
374,1747486595520,0.1399668319999999,0.89507995,0.0767560065,-0.53476274,0.08522116,-1.9968382
375,1747486595530,0.16205402,0.8876362,0.13252309,-0.38296258,0.19867182,-2.111354
376,1747486595540,0.21965154,0.9178993,0.2294138,-0.08681905,0.22530343,-2.233327
377,1747486595550,0.37413976,0.9869675,0.31190515,0.18109496,0.1438107,-2.3712788
378,1747486595560,0.785864355,1.15792965,0.37731252,0.6431533899999999,-0.136353856,-2.94039615
379,1747486595570,0.98111016,1.2395668,0.38853914,0.91373055,-0.32969935,-3.444
380,1747486595580,1.1700104,1.3061944,0.46956614,0.9821738,-0.396811,-3.6181707
381,1747486595590,1.2466444,1.35049075,0.56230787,1.0796455,-0.45513425,-3.7814225
382,1747486595600,1.66678905,1.52621195,0.701298505,1.4064154000000002,-0.51265855,-4.313788300000001
383,1747486595610,2.08571325,1.637014,0.65199897,1.6029567,-0.4873585,-4.893292150000001
384,1747486595620,2.3007276,1.6698397,0.6277153,1.5701998,-0.4628574,-5.103682
385,1747486595630,2.8374097,1.7555038,0.6667644,1.5536882,-0.45859635,-5.369732
386,1747486595640,3.38751455,1.845561,0.812588615,1.7065537000000002,-0.65167552,-6.5045048
387,1747486595650,3.78947705,1.7854009,0.91716717,2.02054045,-0.8122641500000001,-7.09972135
388,1747486595660,4.141529650000001,1.63908855,0.99538752,2.37474085,-0.764327265,-7.49733135
389,1747486595670,4.30248515,1.51022625,0.9979501,2.6144253,-0.48709218,-7.583883999999999
390,1747486595680,4.370333,1.4509203,0.9789136,2.7265444,-0.31957933,-7.603325
391,1747486595690,4.404501,1.40467145,0.960853365,2.8069718,-0.185356012,-7.619304
392,1747486595700,4.1317673,0.821984795,0.66969307,3.03440585,0.0247673964999999,-7.69413875
393,1747486595710,4.019867,0.65944266,0.58378494,3.0040457,-0.018109497,-7.6794915
394,1747486595720,3.46036565,0.218675285,0.35974036,2.6887275,-0.19920445,-7.426224700000001
395,1747486595730,2.7308786,-0.15973547,0.223800485,2.19630905,-0.2428803,-6.9801452
396,1747486595740,1.99468,-0.491897405,0.1651047199999999,1.6793893999999998,-0.169909688,-6.45204035
397,1747486595750,1.5414656,-0.62771526,0.19622202,1.3923006,-0.0218379229999999,-6.0104882
398,1747486595760,1.3140042,-0.67555046,0.21135357,1.2676647,0.0644485,-5.7705374
399,1747486595770,0.9308343,-0.74535084,0.2203837,1.0812434,0.28122982,-5.2405686
400,1747486595780,0.38975942,-0.844194,0.17498904,0.9108011,0.61572284,-4.563593
401,1747486595790,0.1037243215,-0.8850735999999999,0.148264785,0.7030745,1.091896,-3.530819
402,1747486595800,0.013911263,-0.8925173,0.14521407,0.65194184,1.2474247,-3.0376017
403,1747486595810,-0.14399378,-0.9200958,0.13789235,0.65034395,1.3699301,-2.5427864
404,1747486595820,-0.23917611,-0.95792466,0.13838045,0.65034395,1.3699301,-2.5427864
405,1747486595830,-0.20232345,-1.0506665,0.09615856,0.9012137,1.0077401,-1.0333065
406,1747486595840,-0.168399495,-1.0545714,0.0665056035,0.9406285,0.854608365,-0.8391620499999999
407,1747486595850,-0.0161077765,-1.0439549,-0.095670442,0.9715212,0.43516052,-0.36751625
408,1747486595860,0.031239327,-1.0391958,-0.136428,0.8042747,0.19547603,-0.15020229
409,1747486595870,0.10982577,-1.0448091,-0.20769271,0.5635249,0.15446335,-0.04261058
410,1747486595880,0.105554765,-1.04200245,-0.24881637,0.229298177,0.338221475,0.0229031849999999
411,1747486595890,0.06467517,-1.0431006,-0.3104408,-0.48149952,0.8175905,0.14753912
412,1747486595900,-0.03197149775,-1.0467615499999998,-0.2961634549999999,-0.990429615,1.19096565,0.285224565
413,1747486595910,-0.102259985,-1.0409042,-0.26785281,-1.1393003,1.2895026,0.34248254
414,1747486595920,-0.164494585,-1.03553495,-0.186093645,-1.3675332,1.3275858,0.708134535
415,1747486595930,-0.1986626,-1.0311419,-0.12080834,-1.3789848,1.2538162,0.922519
416,1747486595940,-0.20305562,-1.0321181,-0.060770255,-1.1558119,0.99921805,1.1504856
417,1747486595950,-0.21501444,-1.0111293,-0.053692598,-0.84635264,0.6295713,1.406149
418,1747486595960,-0.173036585,-0.960243255,-0.1704739825,-0.41891526,-0.145142285,1.81254745
419,1747486595970,-0.070532544485,-0.90594048,-0.36120472,-0.31398669,-0.77631146,2.16222045
420,1747486595980,-0.00097622897,-0.8715284,-0.49592432,-0.32011196,-1.1259845,2.385127
421,1747486595990,0.07590181,-0.8534682,-0.58305275,-0.5470133,-1.2053467,2.620018
422,1747486596000,0.1581491,-0.8334555,-0.613804,-0.87618,-1.1547467,2.8426583
423,1747486596010,0.3896373749999999,-0.774759735,-0.45675316,-1.304949,-0.8924253200000001,3.3622409500000003
424,1747486596020,0.558524995,-0.6535853,-0.30470547,-1.4226607,-0.77391464,3.6554549
425,1747486596030,0.59281504,-0.5920829,-0.25894472,-1.2724584,-0.85594,4.043744
426,1747486596040,0.6936107,-0.43759465,-0.21843125,-1.0519487,-1.1052119,4.521515
427,1747486596050,0.9178993,-0.29652956,-0.2511349,-0.8362326,-1.470065,4.9454904
428,1747486596060,1.6549523,-0.0959145,-0.40293851,-0.64714813,-2.1528995,5.2661347
429,1747486596070,1.8702107,0.0203787825,-0.53863433,-0.8644621,-2.2242723,5.2277855
430,1747486596080,1.8880268,0.078830495,-0.56694496,-0.9757822,-2.202967,5.251754
431,1747486596090,1.8838779,0.29994637,-0.52496713,-1.2447615,-2.1337247,5.5942364
432,1747486596100,2.6568072000000003,0.669571055,-0.207570697,-1.4876418,-1.9483687,6.28293
433,1747486596110,3.2432766,0.9553621,0.018426318,-1.2942963,-1.116663475,6.60144375
434,1747486596120,3.2649977000000003,1.10204055,0.15204766,-1.2149341,-0.93636745,6.598248
435,1747486596130,3.2513306,1.1404796,0.22062775,-1.031176,-0.76752305,6.6701536
436,1747486596140,3.1498027,1.0718994,0.2523552,-0.82078624,-0.58429754,6.785202
437,1747486596150,3.24742575,1.10057615,0.194757685,-0.6095975499999999,-0.416518405,6.9820095
438,1747486596160,3.36786815,1.37636085,0.101405785,-0.70893345,-0.27696876,7.118097000000001
439,1747486596170,3.6546354,1.6138285,-0.001098258,-0.8633968,-0.17097494,7.145794
440,1747486596180,3.8526878,1.7393959,-0.040269446,-1.31933,0.15819177,6.8469872
441,1747486596190,3.893445,1.9419636,-0.10640897,-1.9169434,0.6897587,6.318616
442,1747486596200,3.5302881,1.85971615,0.239420155,-2.9329394,1.45275445,4.9020808
443,1747486596210,3.051936,1.76416785,0.86957595,-3.2176313,1.6708673,4.09754
444,1747486596220,2.49499725,1.7097430999999998,1.21784565,-2.2759375,1.27299105,3.01816055
445,1747486596230,2.2226293,1.6615417,1.3232784,-1.8519622,1.109473,2.7217507
446,1747486596240,1.7140139,1.5407335,1.3154685,-0.8974853,0.8271778,2.326005
447,1747486596250,1.09850165,1.3678188,0.8955680500000001,-0.013848438,0.6109292,2.0714068
448,1747486596260,0.824303325,1.3030216499999998,0.46627137,0.8522116,0.4564658,1.8194717
449,1747486596270,0.649558375,1.30350975,0.1898765399999999,1.45834705,0.465786875,1.032773835
450,1747486596280,0.5474204,1.3079028,0.06369894,1.4413028,0.48735848,0.85753787
451,1747486596290,0.3287451,1.3335288,-0.13960074,1.2575446,0.59388494,0.5251754
452,1747486596300,0.12861817,1.2939916,-0.34558508,0.9752496,0.75154406,0.23222765
453,1747486596310,-0.16083373,1.1722069,-0.5210622,0.23808661,0.89855057,-0.2828277
454,1747486596320,-0.231244235,1.09240025,-0.497022585,-0.12037488,0.8175905,-0.5187838
455,1747486596330,-0.23478307,1.070191,-0.46102414,-0.48043427,0.59601545,-0.82078624
456,1747486596340,-0.22746135,1.0677505,-0.22306833,-0.5933523,0.36751625,-1.0418286
457,1747486596350,-0.2414946499999999,1.11021645,0.048689423,-0.460726875,0.115048565,-1.4064154000000002
458,1747486596360,-0.266388485,1.1142434,0.1304486,-0.3635215,0.06578008,-1.6516925
459,1747486596370,-0.226729185,1.12620215,0.1802362699999999,-0.3249056649999999,0.136620165,-1.7883127
460,1747486596380,-0.1867038,1.1368186,0.21159762,-0.30040458,0.18961707,-1.8604844
461,1747486596390,-0.08371163,1.1397473,0.2443013,-0.20399815,0.32756883,-2.0511668
462,1747486596400,0.041245673,1.159516,0.2596769,-0.10066749,0.40852892,-2.257828
463,1747486596410,0.5657246899999999,1.3281596,0.424293525,0.354200425,0.280430865,-2.91935715
464,1747486596420,0.8373604,1.4631232500000002,0.4743252599999999,0.59574914,0.187486545,-3.1947281
465,1747486596430,0.9623177,1.5282865,0.48738232,0.71319455,0.14274544,-3.3353431
466,1747486596440,1.69534375,1.8277447,0.322277605,1.0812434,0.07243799,-4.203001
467,1747486596450,1.7725879,1.8714309,0.27090356,1.1177287,0.153664395,-4.81765865
468,1747486596460,2.050813,1.8829016,0.17035196,1.091896,0.19387813,-4.9976883
469,1747486596470,2.24007925,1.9159714,0.16571487,0.958738,0.34301516,-5.3140717
470,1747486596480,2.332699,1.9424516,0.1901206,0.777643,0.44794372,-5.561213
471,1747486596490,3.431689,2.1118274,0.68091977,0.8117315,0.15393071,-6.4485784
472,1747486596500,3.75238025,2.2705867,1.03980595,1.2607405,-0.09161274,-6.979613
473,1747486596510,3.8136387,2.2602143,1.0611609,1.947836,-0.60054284,-7.21556875
474,1747486596520,3.684288,2.2636309,1.070191,2.1901836,-0.8229168,-7.1292825
475,1747486596530,4.305902,2.6758435,0.56645685,2.3552997,-0.21198763,-7.4318175
476,1747486596540,4.749842149999999,2.6042127500000003,0.494704025,2.20935845,-0.0655137675,-7.62010275
477,1747486596550,4.95375205,2.02604125,0.2815200399999999,1.51746925,0.4117247,-8.335428499999999
478,1747486596560,4.501757850000001,1.5346319,0.306169825,1.156610875,0.514256415,-8.4787065
479,1747486596570,3.58337055,0.781837385,0.447478965,0.954476955,0.54008908,-8.1881555
480,1747486596580,2.9291751,0.29189247,0.5405868,0.92305166,0.5422196,-7.878696
481,1747486596590,2.66803395,0.1205642825,0.5836629,1.00987068,0.4862932199999999,-7.646468499999999
482,1747486596600,2.17369595,-0.1742568775,0.635769115,1.2282499,0.3858920449999999,-7.152452
483,1747486596610,1.5512279,-0.49885303,0.59842837,1.6181368,0.3291667,-6.33353
484,1747486596620,1.1817253,-0.665056,0.50837123,1.8200043,0.35153726,-5.780658
485,1747486596630,0.6667644,-0.8268659,0.413677,2.1097562,0.48469532,-4.704208
486,1747486596640,0.445770565,-0.931810525,0.2626056,2.1097562,0.48469532,-4.704208
487,1747486596650,0.3756041,-0.96768695,0.20183535,2.202967,0.809601,-3.748133
488,1747486596660,0.23673552,-1.0967933,0.113974735,2.1502364,0.9651296,-3.4131074
489,1747486596670,-0.15326795,-1.3928347,-0.1210524,2.056493,1.081776,-2.9976542
490,1747486596680,-0.28261828,-1.517304,-0.24869433,1.6863136,0.80374205,-1.9531624
491,1747486596690,-0.37121108,-1.5785623,-0.3743838,1.5417040000000002,0.59734705,-1.70761895
492,1747486596700,-0.42783237,-1.598819,-0.4756676,1.0013486,-0.03355583,-0.99762017
493,1747486596710,-0.447601,-1.6137065,-0.54156303,0.47990164,-0.27856666,-0.52411014
494,1747486596720,-0.341192025,-1.645434,-0.510567735,-0.14061491,-0.31957933,-0.05539375
495,1747486596730,-0.29555333,-1.6608096,-0.47127452,-1.5137408,0.165116,0.83729786
496,1747486596740,-0.2272173,-1.6949776,-0.39268813,-1.9765981,0.49534798,1.1068097
497,1747486596750,-0.23990828,-1.7110853,-0.29579738,-2.3148196,0.7717841,1.3592775
498,1747486596760,-0.386952745,-1.71328185,0.0543027395,-2.285525,0.7358314,2.2274679
499,1747486596770,-0.42368335,-1.6922929,0.119588055,-2.1502364,0.6380934,2.4378576
500,1747486596780,-0.41807005,-1.6278619,0.1786499,-1.7459685,0.25513083,2.8959215
501,1747486596790,-0.31873876,-1.5458585,0.19231711,-1.2644689,-0.28229508,3.3065808
502,1747486596800,-0.1901206,-1.4501882,0.1432616,-0.76485986,-0.7930894,3.6405413
503,1747486596810,0.056987368,-1.30473005,-0.1031141915,-0.0173105449999999,-1.4199975500000002,4.15639565
504,1747486596820,0.190120595,-1.21833375,-0.312149225,0.218112905,-1.5792546,4.45466975
505,1747486596830,0.20818083,-1.1958805,-0.37365165,0.20266657,-1.5321166000000002,4.7018111000000005
506,1747486596840,0.21916342,-1.180993,-0.48274526,0.16990969,-1.4935007,4.8400292
507,1747486596850,0.29140437,-1.1885588,-0.5762192,0.002130529,-1.4439659,5.1580105
508,1747486596860,1.044321,-1.1071657,-0.673597995,-0.6061354999999999,-1.5286545500000002,5.462676050000001
509,1747486596870,1.3193735,-0.958168775,-0.702762845,-0.7163904,-1.568602,5.4126086
510,1747486596880,1.4316398,-0.87201655,-0.71215904,-0.9406285,-1.7283915,5.202219
511,1747486596890,1.437009,-0.65138876,-0.70068836,-1.1851068,-2.0415792,5.157478
512,1747486596900,1.3022895,-0.3682824,-0.5879339,-1.3406353,-2.324407,5.540973
513,1747486596910,1.6817985,-0.0034168016,-0.050031736,-1.220793,-2.160889,6.721819
514,1747486596920,2.140626,0.08639627,0.1718163,-0.8969527,-1.4833808,7.0238214
515,1747486596930,2.425197,0.14936304,0.25357547,-0.5656554,-0.7025419,7.0925307
516,1747486596940,2.800313,0.19890666,0.21208574,-0.29028457,-0.27164245,7.048855
517,1747486596950,3.27842095,0.400375935,0.065285316,0.1166464555,-0.48869008,6.776946150000001
518,1747486596960,3.4421834,0.622956135,-0.202811569,0.24980451,-0.680704,6.6685553
519,1747486596970,3.4717143,0.7682922,-0.41514137,0.18322548,-1.5441009,6.8198233
520,1747486596980,3.4468203,0.8283303,-0.47395915,-0.22743396,-1.4082797,7.1702952
521,1747486596990,3.4984385,0.803070375,-0.416483675,-0.6956177,-0.783502,7.5884113
522,1747486597000,3.6846543,0.60794662,0.0713867349999999,-1.1030813,0.18748654,7.968711
523,1747486597010,3.858423,0.57158207,0.338873475,-1.62133255,2.02267095,8.6946885
524,1747486597020,3.999854,0.6042857,0.37169918,-1.7646106,2.35343555,8.6283755
525,1747486597030,4.1619086,0.694831,0.34631723,-1.8482338,2.4804683,8.523713
526,1747486597040,4.422073,0.763167,0.33997175,-2.0591562,2.604039,7.983092
527,1747486597050,4.7210436,0.88690406,0.42636803,-2.1598237,2.5347967,6.698383
528,1747486597060,3.33748305,1.2616539,1.1486554,-1.21733095,1.73584845,4.6938215
529,1747486597070,2.68414165,1.2970422,1.34158265,0.0260989999999999,1.03996445,3.721235
530,1747486597080,2.3851714,1.30473,1.4082103,0.567786,0.8431568,3.546798
531,1747486597090,1.965149,1.2927712,1.3027775,1.6511599,0.5384912,3.329484
532,1747486597100,1.6654466,1.2866699,0.916435,2.4857945,0.31691617,3.1270838
533,1747486597110,1.2731246,1.487895,-0.34119203,2.7537086,0.20186761,2.6093652
534,1747486597120,1.223703,1.5522041,-0.53912246,1.66687255,0.40293629,1.9486349
535,1747486597130,1.1919756,1.71377,-0.77146494,1.1424961,0.5187838,1.6543556
536,1747486597140,0.99245875,1.82493805,-0.615390315,-0.8969526999999999,0.9323727,0.038349525
537,1747486597150,0.8607899,1.7916242,-0.50837123,-1.1994878,0.9816412,-0.24501082
538,1747486597160,0.5950116,1.7032754,-0.24820623,-1.536644,1.0040118,-0.6514092
539,1747486597170,0.42270714,1.6085813,0.04002539,-1.5984293,0.9257148,-0.9358348
540,1747486597180,0.32337585,1.5404893,0.28286234,-1.1510183,0.7707188,-1.4125407
541,1747486597190,0.36559775,1.4821596,0.2711476,-0.85966843,0.7323693,-1.6703347
542,1747486597200,0.3625470349999999,1.45689975,0.19866261,-0.3289004,0.64235445,-2.1318605
543,1747486597210,0.393542305,1.42236565,0.133133235,-0.0500674299999999,0.44368264,-2.4138893
544,1747486597220,0.50422227,1.4345685,0.0401474204999999,0.08575379,0.31052458,-2.5662222
545,1747486597230,0.5852493,1.462147,-0.026846299,0.56725335,-0.29134983,-3.2586439
546,1747486597240,0.67677075,1.4889933,-0.102259986,0.6311692,-0.509729,-3.5665054
547,1747486597250,0.8593256,1.5717287,-0.2169669,0.58056915,-0.49055427,-3.8461373
548,1747486597260,1.1226633,1.6425053,-0.3316738,0.171507572,0.024234775,-4.53376555
549,1747486597270,1.3655003,1.7340268,-0.3360668,-0.061252706,0.33182988,-4.8959556
550,1747486597280,2.0071268,1.91829,-0.20696054,-0.20240025,0.5954828,-5.3795853
551,1747486597290,2.0071268,1.91829,-0.20696054,-0.20240025,0.5954828,-5.3795853
552,1747486597300,2.9098945,1.9854058,0.38341394,-0.06711166,0.61412495,-5.8222027
553,1747486597310,2.9098945,1.9854058,0.38341394,0.86020106,0.049002163,-6.7990503
554,1747486597320,3.28366825,2.01896345,0.1588812584999999,1.3534185,-0.7435545750000001,-7.411311149999999
555,1747486597330,3.513204,2.0434911,-0.012202863,1.381648,-1.0913634,-7.639544
556,1747486597340,3.8792899,2.0395863,-0.05686534,1.0604708,-1.1153319,-7.8861527
557,1747486597350,4.2273154,2.0339732,0.06272271,0.65726817,-0.9470201,-8.170578
558,1747486597360,4.740812,2.1023092,0.52618743,0.31478566,-0.63649553,-8.461928
559,1747486597370,4.958999,2.1023092,0.7165521,0.29134983,-0.43356264,-8.731441
560,1747486597380,5.3707237,1.6940014,1.2327331,1.0157297,-0.165116,-9.730125
561,1747486597390,5.167912,1.4299314,1.3608632,1.6442357,-0.08522116,-10.083794
562,1747486597400,4.801338,1.2564068,1.4479916,2.67115065,-0.333960405,-10.0707435
563,1747486597410,4.481623,1.0582323,1.4184607,2.9981868,-0.47404268,-9.998039
564,1747486597420,3.7787383,0.66822875,0.93840015,3.4754252,-0.793622,-9.772203
565,1747486597430,3.3484652,0.5051985,0.68384844,3.5452,-1.3358417,-9.14423
566,1747486597440,2.8693812,0.34802565,0.49690056,3.1047132,-1.4045511,-8.566324
567,1747486597450,2.3400209,0.155220405,0.321057305,2.40723135,-1.06499813,-7.749266499999999
568,1747486597460,2.2526484,0.08371163,0.28383857,2.176868,-0.90707266,-7.497331
569,1747486597470,2.0100555,-0.37926495,0.2511349,1.4082797,-0.26418558,-6.8555093
570,1747486597480,1.75648,-0.63967407,0.26699865,1.1611383,-0.028229509,-6.554572
571,1747486597490,1.445795,-0.96402615,0.33191785,0.9784454,0.08042747,-6.212622
572,1747486597500,1.103871,-1.2097918,0.42148685,0.8857674,0.13262543,-5.8253984
573,1747486597510,0.44882128,-1.4919219,0.58427304,1.0535465,0.31372038,-4.777711
574,1747486597520,0.1283741125,-1.6300584,0.57560902,1.37445745,0.3890878399999999,-3.66211285
575,1747486597530,0.060770255,-1.670816,0.5679212,1.4647386,0.4048005,-3.3502567
576,1747486597540,-0.041001618,-1.7423246,0.5010495,1.6117451,0.49641323,-2.7361317
577,1747486597550,-0.13252309,-1.7911361,0.3807293,1.6447684,0.64768076,-2.1315942
578,1747486597560,-0.172426445,-1.8231076,0.09347393,1.20161835,0.7467503799999999,-0.9329054
579,1747486597570,-0.0746815202,-1.8891251,0.0307512145,0.87112002,0.6628608,-0.5238438249999999
580,1747486597580,-0.0043930304,-1.9236592,0.008053889,0.68816084,0.6066681,-0.33129725
581,1747486597590,0.114218794,-1.9473327,-0.006345488,0.33076462,0.58696073,-0.08362326
582,1747486597600,0.09469421,-1.9451362,0.0056133163,-0.014913702,0.73982614,0.113983296
583,1747486597610,-0.3164202299999999,-1.94818695,-0.0237955815,-0.52837115,0.81119887,0.96273275
584,1747486597620,-0.39122378,-1.9263438,-0.027944555,-0.6695187,0.76139775,1.46979865
585,1747486597630,-0.4053791,-1.9082836,-0.0319715,-0.7286409,0.721184,1.7331853
586,1747486597640,-0.36901456,-1.8582519,-0.07224095,-0.8538095,0.60507023,2.263687
587,1747486597650,-0.1299604885,-1.76746255,-0.1278859925,-1.26473525,0.4090615549999999,3.2471924000000003
588,1747486597660,0.0647972015,-1.7033975,-0.13362134,-1.63917565,0.3318298899999999,3.91165115
589,1747486597670,0.2745644,-1.64457975,-0.11885588,-1.9395802,0.30173616,4.2567968
590,1747486597680,0.39976576,-1.6022359,-0.11177822,-2.102832,0.28229508,4.4038033
591,1747486597690,0.5954997,-1.5075417,-0.08419975,-2.3297334,0.20559604,4.4517403
592,1747486597700,0.669204975,-1.40125475,0.0114706914999999,-2.60350635,-0.0444747875,4.4807687000000005
593,1747486597710,0.616488625,-1.3613514,0.113120535,-2.64957905,-0.185622325,4.65733625
594,1747486597720,0.601113,-1.3525653,0.15180361,-2.5521073000000003,-0.245277135,4.9066081
595,1747486597730,0.6321083,-1.3347491,0.18572757,-2.4873924,-0.27643612,5.0392337
596,1747486597740,0.65041256,-1.3252308,0.17328064,-2.2104237,-0.391751005,5.51487425
597,1747486597750,0.72887697,-1.2423734,0.0965246459999999,-1.84264115,-0.7488809399999999,6.2187476
598,1747486597760,0.97598495,-1.1026506,0.013911264,-1.4799186,-1.23144575,7.00757595
599,1747486597770,1.43932765,-0.94755225,-0.0643090845,-1.31826475,-1.52412715,7.45152485
600,1747486597780,1.7503786,-0.8498074,-0.113974735,-1.2564794,-1.645301,7.627826
601,1747486597790,2.2602143,-0.51593703,-0.20769271,-1.2293152,-1.6847157,7.7513967
602,1747486597800,2.5975013,-0.17132819,-0.26236153,-1.3134711,-1.5691346,7.7865505
603,1747486597810,3.2020311,0.0993313,-0.057109397,-1.6165388,-0.78296936,7.833955
604,1747486597820,3.3091724,0.12398108,0.23649146,-1.5020229,-0.13582122,7.917578
605,1747486597830,3.4224148,0.1415532,0.5176454,-1.1323761,0.3637878,8.1434145
606,1747486597840,3.631816,0.15302388,0.690438,-0.35153726,0.5182512,8.538628
607,1747486597850,3.9832585,0.17206036,0.7094744,0.0508663799999999,0.3896205,8.703477
608,1747486597860,5.3544941,0.84431603,0.0012202899999999,1.75555585,-0.83543365,9.309346
609,1747486597870,5.6786023,1.03577893,-0.39793533,1.64050725,-0.8351673500000001,9.0664655
610,1747486597880,5.6668874,1.1081419,-0.67506233,1.2199941,-0.400805763,8.69095975
611,1747486597890,5.00000075,1.005027785,-0.6660322,0.39574575,0.512924787,8.50214175
612,1747486597900,4.4538007,0.90081537,-0.5735345,-0.1603223,1.1089402,8.504006
613,1747486597910,4.01449775,0.7610925150000001,-0.34448679,-0.66552397,1.1566109,8.90268125
614,1747486597920,4.0728274,0.715087715,-0.22929178,-0.888164255,0.99042963,8.95940675
615,1747486597930,4.488823,0.905574435,-0.0123248899999999,-0.96619487,0.90707266,8.889632
616,1747486597940,4.800118,1.1014304,0.15839316,-0.8644621,0.7701862,7.0126357
617,1747486597950,3.76263085,1.44933405,0.5621858550000001,-0.226901325,0.69348718,5.568137500000001
618,1747486597960,3.3020947,1.512911,0.65163285,0.2689792749999999,0.653806075,5.109541
619,1747486597970,2.6907313,1.5109584,0.50812715,0.4990764,0.64075655,4.973187
620,1747486597980,2.39591,1.5248697,-0.02318544,0.7797736,0.6631271,4.7681236
621,1747486597990,1.9729588,1.5849078,-0.24600971,0.62744075,0.5768407,3.9771647
622,1747486598000,1.6303024,1.6254213,-0.4058672,0.25353295,0.6130597,3.649596
623,1747486598010,1.3061944,1.62944815,-0.49690058,-0.50813113,0.8032094000000001,3.16330275
624,1747486598020,1.3190074,1.61273025,-0.45162794,-0.7755125,0.8692558,2.9726205
625,1747486598030,1.3830724,1.5995512,-0.39830142,-1.685781,0.98377174,1.6042882
626,1747486598040,1.4304196,1.5592817,-0.18475133,-1.9228023,0.8788432,0.64714813
627,1747486598050,1.0162543,1.5512279,0.13032657,-1.8439728,0.6679208,-0.22849922
628,1747486598060,0.42783237,1.4702009,0.3236199,-1.4245249,0.3190467,-0.736364035
629,1747486598070,-0.019280521,1.3201057,0.4288086,-1.2650015,0.21571605,-0.77125144
630,1747486598080,-0.18572757,1.2398108,0.588178,-0.1571265,0.0005326322,-0.5123922
631,1747486598090,-0.088836834,1.2756872,0.5530337,0.53502907,-0.119043305,-0.6218481499999999
632,1747486598100,0.026114125,1.3252308,0.32557237,0.6940198,-0.16405073,-0.6940198
633,1747486598110,0.16547081,1.3823403,0.10372432,0.72917354,-0.27803403,-0.89322424
634,1747486598120,0.60721443,1.5246256,0.0036608574999999,0.353934125,-0.346477255,-1.62506095
635,1747486598130,0.8117344,1.5797825,0.041977845,0.13369069,-0.34194988,-2.0746026
636,1747486598140,0.86664724,1.5956463,0.11226633,0.09933591,-0.255130835,-2.2844597
637,1747486598150,0.9193637,1.6088253,0.12690976,0.08149273,0.015446335,-2.873551
638,1747486598160,1.2583592,1.7406163,-0.06028214,0.14274544,0.19707392,-3.290602
639,1747486598170,1.458242,1.7894278,-0.13569583,0.16724652,0.34408042,-3.5212317
640,1747486598180,1.6224926,1.7752724,-0.22331238,0.06657903,0.36272255,-3.7087183
641,1747486598190,1.93268935,1.70876685,-0.199638825,-0.0793622,0.39521313,-3.9057922
642,1747486598200,2.06326,1.6981503,-0.14570218,-0.20186761,0.2759035,-4.134291
643,1747486598210,2.4464297,1.9583154,0.3265486,-0.1470065,-0.09374327,-4.396879
644,1747486598220,4.2148684,2.0344611500000003,0.474325265,0.90627375,-1.3749901,-5.873601900000001
645,1747486598230,4.610485,2.0464199,0.4634647,1.212271,-1.6101472,-6.3921194
646,1747486598240,5.45907285,1.7960173,0.04661494,1.4572818,-1.6559536,-7.2603097
647,1747486598250,5.7008115,1.58686025,-0.1352077099999999,1.2327773,-1.4029533,-8.143414
648,1747486598260,5.784157,1.479231,-0.1889003,1.0748519,-1.2884374,-8.35913
649,1747486598270,6.0435896,0.9432813,-0.07370529,0.2972088,-0.42237735,-8.954081
650,1747486598280,6.066043,0.64138246,0.20866893,0.22690132,0.047404267,-9.259278
651,1747486598290,5.8632317,0.3612047,0.4702983,0.4394216,0.31691617,-9.479256
652,1747486598300,5.402817499999999,0.049543625,0.7675600499999999,1.4682008,-0.2026665399999999,-9.427324
653,1747486598310,5.170719,-0.077854265,0.825035525,2.29484595,-0.9004148000000001,-9.276589
654,1747486598320,4.911530150000001,-0.183775115,0.765363545,2.65064425,-1.2804479,-9.181248
655,1747486598330,4.5670433,-0.323497885,0.71228112,2.860235,-1.52785555,-9.075787
656,1747486598340,3.83755615,-0.5653586,0.56926356,2.9148298,-1.40055645,-8.8502175
657,1747486598350,3.01679165,-0.81429698,0.37914294,2.79685185,-1.0740529,-8.5428885
658,1747486598360,2.7383223,-0.89861876,0.31019676,2.55610205,-0.84155895,-8.204134499999999
659,1747486598370,1.83579865,-1.1105825500000002,0.170229925,2.2580943500000004,-0.6500776500000001,-7.75246235
660,1747486598380,1.5680678,-1.1622007,0.136428,2.0991037,-0.5699165,-7.5037227
661,1747486598390,1.223459,-1.2398108,0.12032023,1.7060211,-0.55766594,-6.861901
662,1747486598400,0.8190561000000001,-1.41626415,0.170962105,1.169926665,-0.672448175,-5.8957062
663,1747486598410,0.63552505,-1.52950665,0.20500809,0.71878719,-0.7238472,-5.1753211
664,1747486598420,0.6123396,-1.58771435,0.288719725,0.39787626,-0.6926882,-4.7247142
665,1747486598430,0.6118515,-1.6078491,0.3499781,0.25406557,-0.6599313,-4.514058
666,1747486598440,0.66115105,-1.6281059,0.46200037,0.04580637,-0.6247776,-4.191283
667,1747486598450,0.599160525,-1.7026654,0.65114472,-0.166181255,-0.24953822,-3.7910099
668,1747486598460,0.5039782,-1.769171,0.7426662,-0.21038973,0.06870956,-3.619236
669,1747486598470,0.27773714,-1.8614246,0.737541,-0.10333065,0.4825648,-3.3710294
670,1747486598480,0.07541369,-1.9807687,0.6745742,0.0015978967,0.5784386,-3.0871365
671,1747486598490,-0.079318605,-2.0944993,0.56865335,0.06498113,0.46711847,-2.7393274
672,1747486598500,-0.19378147,-2.2050574,0.44516042,0.03781689,0.22210763,-2.3489082
673,1747486598510,-0.25308737,-2.4586327,0.22892569,-0.3009372,-0.31372038,-1.5238608
674,1747486598520,-0.36010648,-2.64411625,0.1042124475,-0.62744075,-0.33662358,-1.128115
675,1747486598530,-0.43246946,-2.7002494,0.078830495,-1.0146644,-0.15020229,-0.64395237
676,1747486598540,-0.7048373,-2.7529657,0.06809197,-1.3784522,0.20879184,-0.02609898
677,1747486598550,-1.11741615,-2.70793725,0.0530824495,-1.98112555,0.727575635,1.91028543
678,1747486598560,-1.07958722,-2.63752675,0.0909113229999999,-2.2250711,0.71905351,3.2740903
679,1747486598570,-0.7513302,-2.54466295,0.14692246,-2.2610238,0.64075655,3.6890109
680,1747486598580,-0.56694496,-2.4818182,0.1769415,-2.2327943,0.49534798,4.318582
681,1747486598590,0.098355075,-2.1239082,0.229901925,-2.1156151,0.3435478,4.6786413
682,1747486598600,0.34460884,-1.89388425,0.215868635,-1.7150758,0.12916332,4.9998185
683,1747486598610,0.3199590599999999,-1.7792994000000002,0.1505833225,-1.3696638,0.129962265,5.4022223
684,1747486598620,0.24576566,-1.7232883,0.102504045,-1.2559468,0.17150758,5.6331186
685,1747486598630,0.32679266,-1.632743,-0.06589546,-1.1456919,0.14114754,6.2776036
686,1747486598640,1.0648217,-1.4360328,-0.12886222,-1.1515509,-0.25300032,6.9002504
687,1747486598650,1.5786843,-1.13645255,-0.0430761035,-0.97098855,-0.5701828,7.1537834
688,1747486598660,1.7040077,-1.0326062,-0.032215554,-0.8990832,-0.6412892,7.244331
689,1747486598670,1.9434278,-0.8578612,-0.042465962,-0.6578008,-0.70680296,7.997473
690,1747486598680,2.242642,-0.6909261,-0.07858644,-0.6578008,-0.70680296,7.997473
691,1747486598690,3.84878285,-0.205130115,-0.0274564401499999,-0.39521311,-0.45327003,9.172992
692,1747486598700,4.343975,-0.12935033,-0.0056133163,-0.24820662,-0.3323625,9.115468
693,1747486598710,4.7642417,0.15302388,-0.06345488,0.07456851,-0.05539375,8.72718
694,1747486598720,4.7090845,0.26748675,-0.14814276,0.31158987,0.024501082,8.489625
695,1747486598730,4.1809444,0.0156196635,-0.3355787,0.522778525,-0.124103305,9.0140015
696,1747486598740,4.112853,-0.20500809,-0.3402158,0.59122175,-0.22690132,9.501094
697,1747486598750,4.581687,-0.31873876,-0.24796216,0.61678815,-0.165116,10.1881895
698,1747486598760,5.248695,-0.21232979,-0.102992155,0.7073356,0.228499215,10.598316
699,1747486598770,5.828575,-0.049543623,0.09176553,0.93184005,0.97285275,9.7269295
700,1747486598780,6.9478216,0.6460195,0.34241232,1.117995,1.5387745,8.851282
701,1747486598790,6.4191937,1.0133257,0.25479576,1.1198592,1.9443739,7.41317525
702,1747486598800,5.8000207,1.1155857,0.24576566,1.15021925,2.0524982,6.7159595
703,1747486598810,5.1222734,1.1019185,0.20744865,1.180313,2.0921793,6.417153
704,1747486598820,3.57031345,1.16622755,-0.0189144359999999,1.2255867500000002,2.0762004,5.511411900000001
705,1747486598830,3.3011184,1.1992973,-0.09152147,1.2149341,2.0895162,5.1015515
706,1747486598840,2.7727344,1.283497,-0.22306833,1.1590078,2.2487733,4.774515
707,1747486598850,2.2580175,1.351345,-0.38585448,1.000816,2.2743397,4.491155
708,1747486598860,1.8406798,1.4113832,-0.5523015,0.6125271,2.1576931,4.1571946
709,1747486598870,1.2263877,1.4379853,-0.86225426,-0.44528055,1.9867182,3.5894086
710,1747486598880,1.0011228,1.470689,-0.8395569,-1.0210559,1.9835224,3.2634377
711,1747486598890,0.9178993,1.496803,-0.73607665,-1.5238608,2.005893,2.8756814
712,1747486598900,0.9193637,1.5256019,-0.6501685,-1.923335,2.058091,2.380866
713,1747486598910,0.8851956,1.5029045,-0.5100796,-2.1981733,1.9973708,1.8562233
714,1747486598920,0.73290396,1.4640994,-0.0302631,-2.1555626,1.2884374,0.8527442
715,1747486598930,0.5703618,1.4924101,0.22648512,-1.798699,0.87564737,0.45859635
716,1747486598940,0.48006064,1.534632,0.4087959,-1.0231866,0.60240704,0.14168017
717,1747486598950,0.4790844,1.5214529,0.42636803,0.0141147549999999,0.400805755,-0.0636495535
718,1747486598960,0.7591400749999999,1.6161471,-0.0289207849999999,0.678839765,0.07243799,-0.38322889
719,1747486598970,1.158173675,1.73024385,-0.42270717,1.081776,-0.444215265,-0.936633775
720,1747486598980,1.427979,1.82432795,-0.69910202,1.1334413,-0.69668293,-1.2229236
721,1747486598990,1.5319474,1.8680142,-0.8502955,0.7739146050000001,-1.3385048,-2.20935845
722,1747486599000,1.6437255,1.8465372,-1.1146095,0.55340487,-1.4753913,-2.5310683
723,1747486599010,1.6777715,1.7933327,-1.20430055,0.55340487,-1.4753913,-2.5310683
724,1747486599020,2.25789555,1.5115686,-0.8723825999999999,-2.17367215,-0.0268979299999999,-4.02590065
725,1747486599030,2.6114125,1.40955265,-0.56035545,-2.3971114,0.56991648,-4.479703349999999
726,1747486599040,2.8775569,1.28862225,-0.2577244549999999,-2.2365228,0.8681905299999999,-5.04056535
727,1747486599050,3.05144775,1.0842243,-0.03038513,-2.0548952,0.9171927,-5.33591
728,1747486599060,3.1385763,0.9376679,0.04881145,-0.680704,-0.09640643,-6.115683
729,1747486599070,3.568117,0.84089923,-0.047469134,0.063116915,-1.4242586,-6.5692197
730,1747486599080,3.7616546,0.82100856,-0.06638357,0.22210763,-1.8684739,-6.754842
731,1747486599090,4.193636,0.792942,0.0065895454,0.33289513,-2.415487,-7.1953287
732,1747486599100,4.9713242,0.6559038699999999,0.193903475,0.1872202215,-1.93372135,-8.164453
733,1747486599110,5.2655354,0.541319,0.26919514,0.050600063,-1.5073493,-8.590825
734,1747486599120,5.311662,0.38512233,0.30067852,-0.07137272,-1.0785803,-8.983908
735,1747486599130,5.2333198,0.22404456,0.4139211,-0.13156016,-0.9241169,-9.231582
736,1747486599140,5.179383,0.12471326,0.64772797,-0.0644485,-1.0077401,-9.321064
737,1747486599150,5.2582135,0.09835507,0.90789294,0.103863284,-1.1025487,-9.378589
738,1747486599160,5.326305,-0.0274564405,1.4206572,0.67990507,-1.1310445,-9.9572935
739,1747486599170,5.270904,-0.08419975,1.5199885,0.82824314,-1.1195929,-10.088055
740,1747486599180,4.9936557,-0.2421048,1.7108413,1.3582122,-1.1126688,-10.28353
741,1747486599190,4.5419054,-0.503002,1.7955291,1.8716697,-1.0450244,-10.264356
742,1747486599200,3.6729397,-0.91082165,1.4470154000000002,2.53852515,-0.6724482,-9.7564915
743,1747486599210,3.231562,-1.0538392,1.198077,2.7483823,-0.4841627,-9.441972
744,1747486599220,2.5386834,-1.2769075,0.7588959799999999,2.5662221,-0.562992275,-8.9149315
745,1747486599230,2.2926738,-1.3462198,0.64187056,2.454902,-0.64395237,-8.735168
746,1747486599240,1.4515304,-1.5090059500000002,0.41672775,2.2365227,-0.85700524,-8.327704
747,1747486599250,1.015400175,-1.63689195,0.287255385,1.54117135,-1.4002900500000002,-7.26270685
748,1747486599260,0.799653625,-1.7309760500000002,0.27859135,0.8090683750000001,-1.4966965,-6.42168035
749,1747486599270,0.574510775,-1.7711234,0.355225325,0.311057232,-1.1174624,-5.89277635
750,1747486599280,0.46029195,-1.7811297,0.40635532,0.072970614,-0.8591358,-5.6251287
751,1747486599290,0.2414946599999999,-1.8353106,0.57060583,-0.438090015,0.1786981,-4.82085435
752,1747486599300,0.0784644075,-1.9203645,0.6327184,-0.66658923,1.047687575,-4.0874197
753,1747486599310,-0.1134866175,-1.98516165,0.64784995,-0.759799865,1.7100157500000002,-3.38700835
754,1747486599320,-0.228193525,-1.98308725,0.650778625,-0.7001450650000001,1.88791495,-2.9329393
755,1747486599330,-0.264314,-1.9805247,0.65260905,-0.6492787,1.9275961,-2.7105653
756,1747486599340,-0.2945771,-1.9815009,0.6157564,-0.42077947,1.8242654,-2.25623
757,1747486599350,-0.38890521,-1.9651489,0.375848135,-0.05992113,1.3179985,-1.69776525
758,1747486599360,-0.51947583,-1.9979746,0.131058735,0.0631169175,0.99202755,-1.2423647
759,1747486599370,-0.6279593,-2.0726562,-0.0833455499999999,-0.0487358475,0.942492715,-0.8064052
760,1747486599380,-0.6811638,-2.12281,-0.20110317,-0.1438107,0.95128113,-0.5523396
761,1747486599390,-0.913262225,-2.2035929,-0.530946565,-1.1140003,1.2713931,1.06286758
762,1747486599400,-0.9298581,-2.2226293,-0.579636,-1.3464943,1.3219932,1.3923006
763,1747486599410,-0.9188756,-2.229951,-0.6155124,-1.8226675,1.3321131,2.0586236
764,1747486599420,-0.7907454700000001,-2.0835168,-0.54107493,-2.692456,1.1307782,3.3465283
765,1747486599430,-0.72118914,-2.0835168,-0.54107493,-2.9217541,0.8996158249999999,3.7223004
766,1747486599440,-0.184263225,-1.90206,-0.232708575,-3.10231635,0.60879865,4.233094749999999
767,1747486599450,-0.0606482275,-1.8104166,-0.0529604209999999,-2.8740835,0.5179848499999999,4.5140582
768,1747486599460,-0.0395372735,-1.69888255,0.0223312365,-2.4732777500000003,0.411192075,4.8333712
769,1747486599470,0.048811449,-1.6062628,-0.0535705675,-2.251969,0.3355583,5.006743
770,1747486599480,0.14179726,-1.5680678,-0.1295944,-1.5590146,-0.2743056,5.7273946
771,1747486599490,0.28286234,-1.4824038,-0.20134723,-1.3028184,-0.6327671,6.207296
772,1747486599500,0.55523026,-1.3864892,-0.25821257,-1.257012,-0.8612663,6.6339345
773,1747486599510,0.88031447,-1.244936,-0.23380683,-1.2761868,-1.0317086,7.0424633
774,1747486599520,1.410895,-1.0077124,-0.13593988,-1.2186625,-1.2074772,7.2608423
775,1747486599530,2.0910823,-0.53253293,-0.023429496,-0.7526093,-1.3944311,7.24007
776,1747486599540,2.2079859,-0.44906533,-0.0959145,-0.51665324,-1.3891048,7.347129
777,1747486599550,2.2636309,-0.42954078,-0.15692882,-0.32011196,-1.3060142,7.685883
778,1747486599560,2.732709,-0.38853914,-0.11543907,-0.0303600375,-1.2077436,8.33889
779,1747486599570,4.68626525,0.50983562,0.016351836,0.2087918375,-0.92731272,8.685367750000001
780,1747486599580,4.9860897,0.72558224,0.048567392,0.340352,-0.69774824,8.8528805
781,1747486599590,5.4114814,0.8834872,0.010006348,0.23755397,-0.29667616,8.658469
782,1747486599600,5.473472,0.9096014,0.035876416,0.11771172,0.18322548,8.330901
783,1747486599610,4.830137,0.58207655,0.428320455,0.15259913,0.5864281,7.8344874
784,1747486599620,4.830137,0.4756676,0.50690687,0.22050974,0.5864281,7.8344874
785,1747486599630,4.225119,0.33631086,0.5891542,0.99708754,0.43729106,7.9186435
786,1747486599640,4.2134047,0.375116,0.48128092,1.3928332,0.44421527,8.018246
787,1747486599650,4.428419,0.598184315,0.0966466675,1.4239923,0.84368945,7.7545927
788,1747486599660,4.38070565,1.01137325,-0.2649241375,0.7624630800000001,1.5800535,6.98760225
789,1747486599670,4.1789923,1.2844733,-0.45638704,0.22903186,2.0772657,6.4325995
790,1747486599680,3.744082,1.3867333,-0.473227,-0.38456047,2.2951124,5.947904
791,1747486599690,3.3360183,1.4140676,-0.36242503,-0.82557994,2.2988408,5.4648066
792,1747486599700,2.4315424,1.39637355,-0.030507165,-1.00161495,1.75742005,4.731904699999999
793,1747486599710,1.995656,1.3833165,0.08322352,-0.9912286,1.506284,4.501275
794,1747486599720,1.5553769,1.2892324,0.034045985,-0.992293875,0.716656665,3.62323085
795,1747486599730,1.4118712,1.2825208,-0.026114125,-1.0998856,0.6956177,3.435478
796,1747486599740,1.06445565,1.2664130500000002,-0.1483868099999999,-1.4705976,0.8479505,3.171825
797,1747486599750,0.925099025,1.3181532,-0.0041489749999999,-2.10735935,1.1978899,2.30390075
798,1747486599760,0.76463139,1.3829504,0.210987495,-2.23279425,1.35128795,1.53557865
799,1747486599770,0.67799103,1.3762388,0.28579104,-2.1518342,1.3443637,1.2804478
800,1747486599780,0.45907167,1.3618395,0.37755656,-1.7912422,1.1350393,0.90174633
801,1747486599790,0.30238693,1.3048521,0.4726168349999999,-0.91719273,0.48496164,0.55873122
802,1747486599800,0.31751847,1.27812785,0.300068365,-0.0958738049999999,-0.1667138899999999,0.266582435
803,1747486599810,0.35510328,1.2808125,0.12568948,0.446878435,-0.61039653,-0.036485305
804,1747486599820,0.4510178,1.342925,-0.1917069679999999,0.40959418,-0.649545,-0.28256139
805,1747486599830,0.5108118,1.3681849,-0.28115395,0.33449304,-0.6428871,-0.42557314
806,1747486599840,0.5869577,1.4753261,-0.39293218,0.036751624,-0.5592638,-0.76059884
807,1747486599850,0.8448041799999999,1.6540979999999998,-0.2358813425,-0.67724188,-0.26338663,-1.52332815
808,1747486599860,1.1490215,1.69278105,0.0475911625,-0.9933591,-0.19387813,-1.6980315
809,1747486599870,1.2669011,1.7125497,0.21745501,-0.9353022,-0.08149273,-2.07407
810,1747486599880,1.526334,1.7301219,0.53009236,-0.5406217,0.010652645,-2.437325
811,1747486599890,1.8123692,1.7462295,0.72118914,0.294013,0.018109497,-2.9342709
812,1747486599900,2.45802265,1.71291575,0.378654795,1.43890595,-0.53103432,-3.8932753
813,1747486599910,2.975302,1.7168206499999998,-0.07358326,1.77952425,-1.165665625,-4.701012
814,1747486599920,3.36799,1.7058381,-0.32984338,1.5190671,-1.4788534,-5.375857
815,1747486599930,3.6984435,1.6311566000000002,-0.426856145,1.05328025,-1.56247665,-6.11195485
816,1747486599940,4.0446385,1.38160805,-0.290062045,0.291083525,-1.2926984,-6.98786855
817,1747486599950,4.3032173,1.1528044,-0.10628693,-0.323041445,-0.7952199,-7.6922746
818,1747486599960,4.3994983,1.0614050000000002,-0.049055507,-0.56219332,-0.2540655685,-7.99587515
819,1747486599970,4.57326685,0.924488885,0.028676728,-0.68682927,0.1664475715,-8.173241749999999
820,1747486599980,4.7017627,0.83491987,0.09786696,-0.69295454,0.28229508,-8.245147
821,1747486599990,5.05588985,0.95475195,0.248084195,-0.5089300999999999,0.0521979599999999,-8.45527
822,1747486600000,5.3044622,0.8471227,0.496656495,-0.1914812749999999,-0.27217506,-8.84835275
823,1747486600010,5.380486,0.7243619,0.68702114,0.164849675,-0.439954225,-9.22066325
824,1747486600020,5.0682147,0.42526975,0.80868368,0.396811015,-0.32091093,-9.3490275
825,1747486600030,4.73495465,0.191828987,0.86518293,0.65487134,-0.091612744,-9.3948335
826,1747486600040,4.5543523,0.082735404,0.8927614,0.79042625,0.029294772,-9.390306
827,1747486600050,3.9278574,-0.1808464199999999,0.96854122,1.4527544,0.373907835,-9.112805
828,1747486600060,3.41570315,-0.3657198,0.978059425,1.9267971,0.49002166,-8.893094
829,1747486600070,3.210817,-0.4249037,0.96719885,2.0820594,0.49481535,-8.809204
830,1747486600080,3.01044615,-0.52277062,0.9362036,2.2642197,0.484162705,-8.6789755
831,1747486600090,2.4222682,-0.86933196,0.7687803,2.7563717,0.33129725,-8.180698
832,1747486600100,1.2920391,-1.33291865,0.45187199,3.2650355,-0.36405414,-7.126353
833,1747486600110,1.0760484,-1.3830724,0.37316352,3.307646,-0.505468,-6.87788
834,1747486600120,0.54681025,-1.4385954,0.081027008,2.9822079,-0.7307714249999999,-5.9242019500000005
835,1747486600130,0.302875035,-1.4356667,-0.048567392,2.27087755,-0.5352954,-5.0224558
836,1747486600140,0.2174550149999999,-1.4443308,-0.0410016165,1.51134395,-0.121440153,-4.26718315
837,1747486600150,0.18182266,-1.4548253,-0.025381953,1.2554141,0.066046394,-4.0384173
838,1747486600160,0.19231711,-1.4885051,-0.00707766,0.7685883,0.35739622,-3.6559875
839,1747486600170,0.180480325,-1.6298143,0.00451506,0.0633832449999999,0.45699845,-3.29273245
840,1747486600180,0.12886222,-1.692537,0.034168016,-0.16298546,0.4463458,-3.1968586
841,1747486600190,0.026358182,-1.7638018,0.107629254,-0.8186557,0.24341293,-2.8671594
842,1747486600200,-0.11373068,-1.8389714,0.17425688,-0.91479585,0.235423445,-2.6900591
843,1747486600210,-0.26455808,-1.8897352,0.2604091,-1.0487529,0.19707392,-2.1342573
844,1747486600220,-0.56255195,-1.939523,0.361936885,-0.7603325,0.1510012399999999,-1.27964895
845,1747486600230,-0.7597502,-1.9539223,0.38707477,-0.5587312,0.1768339,-0.8127968
846,1747486600240,-0.94279313,-1.9541665,0.33777523,-0.340352,0.19441076,-0.18642128
847,1747486600250,-1.0506665,-1.956851,0.2306341,-0.16937704,0.18908444,0.509729
848,1747486600260,-1.0085666,-1.8789967,0.03648656,-0.0561927,0.20240025,1.56593875
849,1747486600270,-0.690437985,-1.7430568,-0.162908215,-0.05486112,0.21944448,1.9025623
850,1747486600280,-0.42026657,-1.6420171,-0.2894519,-0.3717773,0.082558,2.8426583
851,1747486600290,-0.215502545,-1.47801065,-0.408429815,-0.5699165,-0.04527374,3.0477216
852,1747486600300,-0.159247355,-1.4082103,-0.4645629799999999,-0.99362542,-0.28389298,3.36117565
853,1747486600310,-0.148874925,-1.3476841,-0.4591937149999999,-1.1664646,-0.35260254,3.4807515
854,1747486600320,-0.15766099,-1.3140042,-0.4327135,-1.8945729,-0.16085494,4.1193776
855,1747486600330,-0.1692537,-1.3306001,-0.3947625999999999,-2.0594226,-0.059921129,4.3268378
856,1747486600340,-0.126177595,-1.3885637000000002,-0.1061649015,-2.398443,0.25513083,5.1622715
857,1747486600350,-0.066993715,-1.3633037,0.0256260085,-2.221609,0.33129724,5.61554135
858,1747486600360,-0.0319715,-1.3367015,0.0741934,-2.0676782,0.3387541,5.86215
859,1747486600370,0.51642513,-1.2539662,0.13276714,-1.3070794,-0.24234766,6.5929217
860,1747486600380,0.8283303,-1.0860548,0.033679903,-0.948618,-0.6679208,6.768158
861,1747486600390,1.2417633,-0.907038775,-0.132157005,-0.7126619,-1.1227888,6.803844
862,1747486600400,1.3550059,-0.86884385,-0.19817449,-0.6013418,-1.4040185,6.826215
863,1747486600410,1.54964145,-1.0114952499999998,-0.347293465,-0.6287723350000001,-1.13370768,7.56524205
864,1747486600420,1.9612441,-1.04407695,-0.334602485,-0.7182545499999999,-0.83170523,8.55194325
865,1747486600430,2.2399576,-1.0033194,-0.30092257,-0.7504788,-0.7717841,8.964733
866,1747486600440,3.180798,-0.86274236,-0.27724904,-0.91133374,-0.753142,9.592174
867,1747486600450,4.2906485,-0.39634896,-0.1871919175,-1.26500155,-0.60027652,9.57486275
868,1747486600460,4.59340145,-0.2186753,0.1492410025,-1.4082796,-0.38855521,9.3546195
869,1747486600470,4.6544156,-0.16791138,0.409284,-1.4285196,-0.23329292,9.2097435
870,1747486600480,4.5167675,-0.3082443,0.75657743,-0.9784454,-0.17896444,9.2172
871,1747486600490,4.331284,-0.54107493,1.0079564,-0.20186761,-0.23808661,9.274193
872,1747486600500,4.3320165,-0.7324158,1.0448091,0.70467246,-0.37017938,9.462744
873,1747486600510,5.3525415,-0.2471079699999999,0.431737269,1.5861787500000002,-0.32064461,9.3828495
874,1747486600520,5.928150499999999,0.501537635,-0.263825901,1.6405072,-0.15606125,9.136241
875,1747486600530,6.015279,0.75364876,-0.47639978,0.561927,0.36432046,8.585499
876,1747486600540,5.955973,1.0972813,-0.6133158,-0.8064052,1.2250541,7.7806916
877,1747486600550,5.5620646,1.2239472,-0.35363895,-2.0112193,2.1486385,6.8608356
878,1747486600560,3.7228491,1.1878266000000002,1.220774375,-2.10336465,2.6407906,5.040032500000001
879,1747486600570,3.06816565,1.2261436,1.4932643,-1.13983295,2.26129025,4.5524075
880,1747486600580,2.7737105,1.244692,1.5363404,-0.5789712,2.02347,4.337224
881,1747486600590,2.2916975,1.2759314,1.2505494,0.41918156,1.5100124,3.965447
882,1747486600600,1.38856375,1.35586,0.014399385,1.088434,0.9653959,3.08979955
883,1747486600610,1.1366966,1.39844805,-0.36218095,0.6972156,1.09988555,2.7566380500000003
884,1747486600620,1.00588188,1.45079835,-0.591960845,0.1563275499999999,1.2439626,2.3576965000000003
885,1747486600630,0.97452056,1.4809394,-0.66993713,-0.128897,1.2996227,2.1326594
886,1747486600640,0.8912971,1.5417097,-0.72753465,-0.6508766,1.2522184,1.6144083
887,1747486600650,0.69898,1.5792944,-0.64211464,-1.0072075,1.0902982,1.2090752
888,1747486600660,0.40550113,1.6226146,-0.364255445,-1.113734,0.7163904,0.6849651
889,1747486600670,0.3841461,1.6276178,-0.34338856,-1.0263823,0.5118596,0.50813115
890,1747486600680,0.44149956,1.5839316,-0.33631086,-0.9768475,0.3190467,0.26525086
891,1747486600690,0.46907803,1.5592818,-0.31105095,-0.965662225,0.26418558,0.1470064999999999
892,1747486600700,0.4966565,1.534632,-0.28579104,-0.95447695,0.20932446,0.02876214
893,1747486600710,0.54632215,1.5090059,-0.2494265,-0.95287904,0.19201392,-0.30040458
894,1747486600720,0.8601797499999999,1.4933863,-0.15204766,-1.1052119,0.16831179,-1.1291803
895,1747486600730,0.8851956,1.4745939,-0.09445015,-1.1424961,-0.014913702,-1.5020229
896,1747486600740,0.91375035,1.4365209,0.021721095,-1.1025487,-0.17044231,-1.8311896
897,1747486600750,1.2241911,1.38234025,0.33350423,-0.760598815,-0.35739621,-2.35023965
898,1747486600760,1.4866747,1.3906382000000002,0.46078009,-0.339553045,-0.513990085,-2.75903495
899,1747486600770,1.6124862,1.3969837,0.520086,-0.16458336,-0.58962387,-2.908172
900,1747486600780,1.9029144,1.389662,0.5640163,0.15606125,-0.7755125,-3.2346754
901,1747486600790,2.306097,1.376971,0.5181335,0.3254383,-0.9672601,-3.6298885
902,1747486600800,3.09720835,1.3399963,0.4735931,0.0921453769999999,-0.963531725,-4.74548675
903,1747486600810,3.475131,1.3042419,0.49763274,-0.098004326,-0.85061365,-5.365737
904,1747486600820,3.6213214,1.2032022,0.53985465,-0.2806972,-0.5001417,-5.8765316
905,1747486600830,3.790209,1.0413923,0.58036816,-0.4346279,-0.034621093,-6.263222
906,1747486600840,4.310051,0.699468075,0.7955046,-0.381897315,0.5651227999999999,-7.12342335
907,1747486600850,4.5641146,0.5264315,0.89080894,-0.26525086,0.7041398,-7.5319524
908,1747486600860,4.7797394,0.2779812,1.038341525,0.0766990375,0.73023878,-8.0243709
909,1747486600870,4.8533225,0.20964517,1.0853225,0.5339638,0.6921555850000001,-8.3559345
910,1747486600880,4.955338,-0.046614934,1.2827649,0.8628642,0.66206187,-8.553541
911,1747486600890,4.81537155,-0.26712065,1.32315635,1.4849787,0.819721025,-8.789497
912,1747486600900,4.7334905,-0.345341,1.3079028,1.7060211,0.90281165,-8.861935
913,1747486600910,4.5759513,-0.491165205,1.0473717,2.2136195,1.1286477,-8.876849
914,1747486600920,4.5205502,-0.564870475,0.73034135,2.50310515,1.15474665,-8.7037435
915,1747486600930,4.3565437,-0.6275932,0.488724665,2.5877937,1.1717909,-8.551677
916,1747486600940,4.263924,-0.6406503,0.44052333,2.6088326,1.1765846,-8.48856
917,1747486600950,4.0130334,-0.6653,0.32459614,2.630138,1.117995,-8.356999
918,1747486600960,3.5654323,-0.842363595,0.212085745,2.56249365,1.01173495,-8.305867
919,1747486600970,2.9319818,-1.070069025,0.176453395,2.515622,1.072455,-8.3037365
920,1747486600980,2.4713237,-1.2295604,0.15766099,2.4980452,1.1467572,-8.290421
921,1747486600990,1.6958318,-1.4029631,0.11177822,2.492719,1.23837,-8.037953
922,1747486601000,1.4289552,-1.4511645,0.09615856,2.503904,1.2681973,-7.701329
923,1747486601010,0.6889736,-1.4160202,0.05344854,2.5992453,0.85594,-6.7777452
924,1747486601020,0.6889736,-1.4160202,0.05344854,2.5992453,0.85594,-6.7777452
925,1747486601030,0.25284332,-1.2676333,0.045638707,2.6668897,-0.025566347,-5.77906
926,1747486601040,0.1342315,-1.1846539,-0.044174362,2.5742116,-0.30626354,-5.283712
927,1747486601050,0.122516744,-1.1412116,-0.16351835,2.056493,-0.38935416,-4.63869405
928,1747486601060,0.09396204,-1.1133891,-0.30165476,1.8226675,-0.35420042,-4.4453487
929,1747486601070,0.05906185,-1.1607363,-0.447601,0.53156696,0.29827404,-3.6879457
930,1747486601080,0.088104665,-1.2795922,-0.43198135,-0.42983422,0.76299565,-3.20857655
931,1747486601090,0.08517598,-1.4255384,-0.40269446,-0.68656296,0.8745821,-3.1068437
932,1747486601100,-0.0102504045,-1.5807588,-0.3802412,-1.109473,1.045557,-2.9246836
933,1747486601110,-0.1867038,-1.9951681,-0.17620933,-1.4247912,1.091896,-2.7585022
934,1747486601120,-0.48811448,-2.12476255,-0.0021965124999999,-1.2753879,0.35127094,-2.38459445
935,1747486601130,-0.61722076,-2.1581984,0.04637088,-0.95048225,-0.10705908,-2.0162793
936,1747486601140,-0.94157284,-2.1799192,0.11592719,-0.7664578,-0.33449304,-1.7731327
937,1747486601150,-1.2612879,-2.1330605,0.13349932,-0.26684874,-0.6194513,-0.82557994
938,1747486601160,-1.40467145,-1.92805225,-0.066261545,0.57817227,-0.55926385,1.51480605
939,1747486601170,-1.19978545,-1.8355546,-0.21721094,0.69455242,-0.61226075,2.273008
940,1747486601180,-1.0758044,-1.7833264,-0.28676724,0.716923,-0.6609966,2.6104305
941,1747486601190,-0.7856203,-1.6774055,-0.447601,0.61572284,-0.829841,3.1244206
942,1747486601200,-0.42002252,-1.5714846,-0.6672525,0.2977414,-1.0045444,3.4780884
943,1747486601210,0.070532545,-1.4211453,-0.90691674,-0.26312032,-1.063134,3.6719666
944,1747486601220,0.10640897,-1.3803878,-0.8671354,-1.7923075,-0.87990844,3.901531
945,1747486601230,-0.029042812,-1.3913703,-0.6428468,-2.676477,-0.7089335,4.196077
946,1747486601240,-0.2364914699999999,-1.45616755,-0.1469224665,-3.0764837,-0.5944176,4.6179214
947,1747486601250,-0.1884121919999999,-1.5624545,0.2766389085,-2.86636035,-0.4079962849999999,6.0493705
948,1747486601260,0.133133228,-1.6913167,0.56779921,-2.288188,-0.39308259,7.246994
949,1747486601270,0.3402158,-1.7371994,0.60648227,-2.0154803,-0.42397526,7.6432724
950,1747486601280,0.86347455,-1.7403722,0.5767073,-1.4508902,-0.5438175,8.328238
951,1747486601290,1.5731931,-1.7201155,0.47981656,-0.91186637,-0.75101143,8.780975
952,1747486601300,2.5434427,-1.4296874000000002,0.146434355,0.135821215,-1.001881235,9.18657375
953,1747486601310,2.8762147,-1.2500613,-0.05051985,0.6380934,-1.1233214,9.415339
954,1747486601320,3.35090615,-0.98294058,-0.3808513249999999,0.74115775,-1.1938952,10.289922
955,1747486601330,3.83377335,-0.9532876,-0.543637525,0.6876282,-1.1510183,10.603642
956,1747486601340,4.5140829,-0.79794517,-0.5466882399999999,0.0543284849999999,-0.443150025,11.30432
957,1747486601350,5.22795025,-0.6534633000000001,-0.310196755,-0.8130630649999999,0.275104545,11.7983365
958,1747486601360,5.8311378000000005,-0.68689915,0.0461268299999999,-1.4463628,0.6745787350000001,11.921907
959,1747486601370,6.1321826,-0.6965394,0.22160399,-1.490305,0.6737798,11.753595
960,1747486601380,6.428224,-0.5210622,0.554254,-1.2181299,0.3206446,11.144264
961,1747486601390,5.9866025,0.107507228,0.566700915,-0.820786265,-0.29028456,10.3165535
962,1747486601400,5.6826292,0.42307325,0.33826333,-1.339836365,0.00053264,9.9130845
963,1747486601410,5.45016455,0.55095925,0.34790359,-2.2146848,0.8431568,9.5618135
964,1747486601420,5.09847805,0.580978285,0.709962525,-2.9643646500000003,1.6588831000000002,9.135708
965,1747486601430,4.6749167,0.6019672149999999,1.38343845,-3.1483891,2.0375846,8.623315999999999
966,1747486601440,4.455265,0.63064396,1.7684387,-3.0450585,2.0852551,8.345282
967,1747486601450,4.1553187,0.84199744,2.3414853,-2.0245352,1.7875137,7.717841
968,1747486601460,3.60728825,1.5906431,2.13354845,2.26102385,-0.01571264,4.56492435
969,1747486601470,2.9890913,1.77624865,1.5936938,3.40272095,-0.41918155,3.48820845
970,1747486601480,2.6565633,1.8262804,1.2937474,3.8541267,-0.5225122,3.0274816
971,1747486601490,1.74049425,1.8780206,-0.02428371,3.6115128,0.13395701,1.84610335
972,1747486601500,1.1933179,1.90084,-0.794528385,2.53745995,0.850081,1.11293505
973,1747486601510,0.86066785,1.89022345,-0.95182325,1.5180018,1.2980247,0.7451525
974,1747486601520,0.7094744,1.8748478,-0.9623177,1.0098706,1.500425,0.5858955
975,1747486601530,0.48689422,1.7974815,-0.86103404,0.14274544,1.8200043,0.42077947
976,1747486601540,0.3956168,1.6864356,-0.6975156,-0.54807854,2.1156151,0.33129725
977,1747486601550,0.7158199000000001,1.6165131,-0.0755357192,-0.71106404,1.65488835,-0.4679174149999999
978,1747486601560,0.74962185,1.6393325,0.0312393258,-0.287355091,1.07964555,-0.9017464
979,1747486601570,0.7314396,1.6376241,0.05906185,-0.048469532,0.7680557,-1.109473
980,1747486601580,0.69898,1.5888127,-0.0134231495,0.35579833,0.24341293,-1.4301175
981,1747486601590,0.7512082,1.5831994,-0.1483868,0.60293967,-0.080960095,-1.7358484
982,1747486601600,0.907892935,1.5623325,-0.20403186,0.6676545,-0.19068234,-2.40723135
983,1747486601610,1.07177735,1.5138871,-0.154244175,0.65753448,-0.0548611225,-2.9332056
984,1747486601620,1.1456047,1.4943625,-0.11592719,0.67058396,0.015446335,-3.1302795
985,1747486601630,1.488017,1.4191929,-0.18133454,0.66365975,0.0644485,-3.8573227
986,1747486601640,1.6839949,1.3486603,-0.27651685,0.5044027,0.015446335,-4.228567
987,1747486601650,2.0517892,1.2248013,-0.2925026,0.1555286179999999,-0.178698115,-4.778510000000001
988,1747486601660,2.1840682,1.1790406,-0.2716357,0.039414786,-0.257794,-4.967328
989,1747486601670,2.579441,1.0982577,-0.14985114,-0.13156016,-0.5187838,-5.401956
990,1747486601680,3.013619,0.993313,0.13838045,-0.4079963,-1.2399678,-6.302637
991,1747486601690,3.2649977,0.9081371,0.30336314,-0.55340487,-1.4386396,-6.623282
992,1747486601700,3.6340122,0.82857436,0.46956614,-0.6876282,-1.3608754,-7.034474
993,1747486601710,4.101016,0.63576912,0.6128277,-0.7984157,-1.1195929,-7.410512
994,1747486601720,4.215845,0.55913514,0.6545615,-0.9033443,-0.8111989,-7.739679
995,1747486601730,4.8064637,0.30409533,0.797335,-1.0215886,-0.2050634,-8.363391
996,1747486601740,4.9426475,0.24064046,0.9471862,-0.86526105,0.0647148155,-8.824385
997,1747486601750,5.0202575,0.18109047,1.1731832,-0.76272935,0.11717909,-8.954081
998,1747486601760,5.0151324,0.14179726,1.4567777,-0.35952675,0.13582122,-9.095228
999,1747486601770,4.9103095,0.0013423155,1.6752089,1.069259215,0.193611815,-9.126919
1000,1747486601780,4.828184,-0.088104665,1.6439695,1.8785939,0.2428803,-9.104282
