id,timestamp,acc_x,acc_y,acc_z,gyro_x,gyro_y,gyro_z
1,1747486231200,-0.16351835,0.29994637,0.89007676,0.03195793,0.07350325,-0.2625877
2,1747486231210,1.8301853,-1.7171869,1.0050278,-1.7571537,-1.0045444,7.197459
3,1747486231220,1.90779555,-1.65238965,0.9702496,-1.47858705,-0.9651296,7.2738918
4,1747486231230,2.1972475,-1.4440868,0.7609705,-0.84635264,-0.8213189,7.4430027
5,1747486231240,2.6970766,-1.1995413,0.24747404,-0.97738016,-0.25406557,7.2608423
6,1747486231250,2.8547378,-1.1168059,0.011958805,-1.582983,0.4596616,6.889598
7,1747486231260,2.7827406,-1.1275444,-0.088836834,-2.2003038,1.1057445,6.5252776
8,1747486231270,2.545517,-1.2310247,-0.064919226,-2.7840686,1.5648735,6.249374
9,1747486231280,2.0486166,-1.3581786,0.4195344,-3.2549155,1.2751216,6.2019696
10,1747486231290,1.9685657,-1.3271832,0.7512082,-2.9672942,0.6764429,6.2531023
11,1747486231300,1.978328,-1.2998489,0.85639685,-2.5369272,0.13635385,6.2951803
12,1747486231310,1.9841853,-1.2803243,0.78928113,-2.3760723,0.001597895,6.29997395
13,1747486231320,1.9963883,-1.228096,0.68091977,-2.0943098,-0.1667139,6.2989087
14,1747486231330,1.9509935,-1.1390152,0.3968371,-2.5710158,0.3850931,6.208894
15,1747486231340,1.9019382,-1.1756238,0.25406358,-3.1201596,0.81066626,6.185991
16,1747486231350,1.8663057,-1.2012497,0.23771177,-3.7454698,1.1930962,6.175871
17,1747486231360,1.87582395,-1.19368395,0.305437645,-3.9984702,1.3044163,6.157761499999999
18,1747486231370,1.9661252,-1.1692783,0.5261874,-4.577441,1.4737934,6.035256
19,1747486231380,2.1469717,-1.1238836,0.84565836,-4.686631,0.9187906,5.6432385
20,1747486231390,2.2216532,-1.1026506,0.9723241,-4.535363,0.40107206,5.428055
21,1747486231400,2.2096944,-1.0472497,1.1746475,-4.207262,-0.16138756,5.1889033
22,1747486231410,2.0600872,-0.865427,1.3845367,-3.86185,-0.45060685,5.06240315
23,1747486231420,1.8484896,-0.6887296,1.4704449,-2.850115,-0.9507485,4.8352356
24,1747486231430,1.7469617,-0.5422952,1.5026605,-1.568602,-0.92784536,4.858671
25,1747486231440,1.8877828,-0.47835222,1.308391,-1.0482203,-0.7547399,4.8288436
26,1747486231450,2.1242743,-0.5383903,0.9440134,-0.82078624,-0.6854977,4.8006144
27,1747486231460,2.2351983000000004,-0.59147275,0.78110518,-0.8910937,-0.74595145,4.8203218
28,1747486231470,2.5521066,-0.55669457,0.33411437,-1.4327807,-1.0061423,4.8714542
29,1747486231480,2.5135455,-0.22013964,0.6045298,-2.8511803,-1.4871092,5.0131345
30,1747486231490,2.4915805,-0.0046370877,1.1617125,-3.0301447,-1.5403724,5.1750546
31,1747486231500,2.6836534,0.35412705,1.5951582,-2.8421257,-1.4626081,5.2421665
32,1747486231510,2.7881099000000003,0.587445795,1.70657025,-2.6343991,-1.42745435,5.17052745
33,1747486231520,3.0451022,1.02760302,1.8379951,-2.027731,-1.5504924,4.8133974
34,1747486231530,3.999366,2.4015234,1.6754531,-1.7992316,-2.1369205,4.3910203
35,1747486231540,4.470885,3.1153908,1.7171869,-2.0298615,-2.3979104,3.9159122
36,1747486231550,4.9563146,3.7050328,1.9129207,-2.3510387,-2.457565,3.2479913
37,1747486231560,5.063455599999999,3.9305419,2.0483725,-2.5057683500000003,-2.22853315,2.88446985
38,1747486231570,5.19964,4.462587,2.5159862,-2.8506477,-0.7882957,1.7283915
39,1747486231580,5.198663,4.5375123,3.0983067,-2.3600934,1.2681973,0.2412824
40,1747486231590,4.9819407,4.327623,3.325768,-1.7672738,1.8232001,-0.50387007
41,1747486231600,4.6705236,4.0447607,3.486358,-0.9805759,2.0730047,-1.0178602
42,1747486231610,4.658565,3.409968,3.761166,1.0908308,2.1656826,-1.8631475
43,1747486231620,4.7935286,3.0494952,3.6835558,2.240251,2.3307986,-2.401106
44,1747486231630,4.82110695,2.8497344,3.58117375,2.7920581,2.42667245,-2.69325475
45,1747486231640,4.9733987,2.2394693,3.1271055,4.313256,2.5688853,-3.6213665
46,1747486231650,4.8137856,1.8372629,2.631181,5.2213936,2.392584,-4.405934
47,1747486231660,4.198517,1.2434716,1.6559285,5.630988,2.2487733,-5.077583
48,1747486231670,3.9639778,1.0328503,1.228096,5.3929014,2.3419838,-5.2693305
49,1747486231680,3.7404213,0.895202,0.93473923,5.0275154,2.4250746,-5.4211307
50,1747486231690,3.48709,0.7873287,0.72826684,4.6259108,2.428803,-5.532451
51,1747486231700,3.2686589,0.70239675,0.6799435,4.3063316,2.321744,-5.6182046
52,1747486231710,2.907942,0.5430274,0.7480355,4.1220407,1.6996294,-5.7662764
53,1747486231720,2.8303318,0.45394647,0.83150303,4.221643,1.0231866,-5.935121
54,1747486231730,2.659492,0.41099238,0.9410847,4.4096622,0.5305017,-6.0922475
55,1747486231740,2.57114325,0.379142925,0.95194525,4.5087318,0.374174145,-6.152434749999999
56,1747486231750,2.229219,0.1696198,1.0196712,4.9870358,-0.024501082,-6.3207464
57,1747486231760,2.1357448,0.094206095,1.1558552,5.298093,0.0010652645,-6.3905215
58,1747486231770,1.9885784,0.008542004,1.2180897,5.7039585,0.053263225,-6.430469
59,1747486231780,1.9164595,-0.046370878,1.1669597,5.89064625,0.0492684825,-6.432067
60,1747486231790,1.77698085,-0.1559525749999999,1.02406418,6.2099593,-0.010120015,-6.4373933
61,1747486231800,1.5436621,-0.3180066,0.4510178,6.4368606,-0.28868666,-6.4555025
62,1747486231810,1.5578173999999998,-0.33887349,0.335822775,6.195311800000001,-0.62690813,-6.55164275
63,1747486231820,1.6083373,-0.4166057,0.12690976,5.5281897,-1.2964269,-6.8507156
64,1747486231830,1.6942455,-0.4300289,0.16010156,5.10528,-1.6868463,-7.0930634
65,1747486231840,1.7062042,-0.36852646,0.16644704,4.66213,-1.9584887,-7.2901373
66,1747486231850,1.72609485,-0.395006655,0.188900305,4.11911135,-1.95715715,-7.29466465
67,1747486231860,1.769415,-0.485918,0.30214286,3.0738206,-1.6543556,-7.2576466
68,1747486231870,1.7286574,-0.5703618,0.4053791,2.6881948,-1.2144015,-7.2011876
69,1747486231880,1.69546565,-0.628447415,0.5178895,2.6005768,-1.03543705,-7.14046765
70,1747486231890,1.4748379,-0.7580418,0.8742131,2.6754117,-0.70147663,-6.8070397
71,1747486231900,1.1517061,-0.84883106,0.98525906,3.2586439,-1.1531488,-6.2584286
72,1747486231910,1.1104605,-0.8754333,0.8978866,3.4594464,-1.3784522,-5.972405
73,1747486231920,1.121077,-0.85932555,0.8341876699999999,3.4938011,-1.4463628,-5.855226
74,1747486231930,1.0584763,-0.76756,0.47884035,3.470099,-1.5957662,-5.531386
75,1747486231940,1.1221752,-0.7319277,0.3995217,3.2799492,-1.6410398,-5.316202
76,1747486231950,1.3122959,-0.71948075,0.33533466,2.7302728,-1.5190672,-5.0871706
77,1747486231960,1.35659225,-0.714233525,0.33862944,2.5606294,-1.42559015,-5.14522745
78,1747486231970,1.3530535,-0.7465711,0.5427833,2.295645,-1.3401027,-5.3321815
79,1747486231980,0.9689073,-0.8520039,0.92595315,2.4527714,-1.520665,-5.3747916
80,1747486231990,0.75267255,-0.946454,0.9642702,3.15265,-2.1528995,-5.086638
81,1747486232000,0.5693855,-1.0025872,0.91375035,3.5281558,-2.2876554,-4.7611995
82,1747486232010,0.48640606,-1.02430825,0.8168596050000001,3.6522591,-2.2418491,-4.55533725
83,1747486232020,0.24576566,-1.0477377,0.5012936,3.820571,-1.9100192,-3.845072
84,1747486232030,0.18084641,-0.9828185,0.106164895,3.4711642,-1.0391655,-2.9278793
85,1747486232040,0.17474498,-1.01112915,0.0186703774999999,3.1127028,-0.76752305,-2.6061695
86,1747486232050,0.183287,-1.0963051,-0.19134088,2.9598373,-0.909735875,-2.5489116000000003
87,1747486232060,0.41343296,-1.0692148,-0.3031191,2.8069718,-1.0519487,-2.4916537
88,1747486232070,0.35119838,-1.0592085,-0.40098605,2.12467,-1.9584887,-3.0610373
89,1747486232080,-0.17084008,-1.4577539,-0.45809543,1.1270498,-2.3531692,-3.432282
90,1747486232090,-0.690438,-1.7398841,-0.40903994,0.57417756,-2.0421119,-3.3459957
91,1747486232100,-1.249085,-1.930981,-0.19353738,0.16777915,-1.5052186,-2.9289446
92,1747486232110,-1.7213358,-2.0815644,0.018060237,-0.018642128,-0.97258645,-2.3089607
93,1747486232120,-2.058379,-2.19139,0.09030118,-0.03834952,-0.6066681,-1.6783241
94,1747486232130,-2.2497199,-2.332699,-0.12544543,-0.26205507,-0.57364494,-0.5219796
95,1747486232140,-2.2370288,-2.365891,-0.28115395,-0.60933125,-0.6098639,-0.257794
96,1747486232150,-2.3373363,-2.3283062,-0.31995904,-1.0540792,-0.5028048,0.0026631611
97,1747486232160,-2.3990827,-2.3512475,-0.302631,-1.500425,-0.24873926,0.28815404
98,1747486232170,-2.302192,-2.4679067,-0.062478654,-1.7891116,-0.14327806,0.46552056
99,1747486232180,-2.3556406,-2.587739,-0.08688438,-1.9489013,-0.30200246,0.6961503
100,1747486232190,-2.4535077,-2.7095234,-0.18084641,-2.08419,-0.38242993,0.8996158
101,1747486232200,-2.5994537,-2.834481,-0.28554696,-2.3829966,-0.18056233,1.2724584
102,1747486232210,-2.8881736,-2.9516282,-0.40269446,-2.7686224,0.0958738,1.7736653
103,1747486232220,-3.0668235,-3.0494952,-0.3746279,-3.1782165,0.4511395,2.4730115
104,1747486232230,-3.0333874,-3.0887885,-0.035144243,-3.4722295,1.3933659,4.3233757
105,1747486232240,-2.7178216,-2.9960468,0.050763905,-3.3262882,1.6708673,5.213937
106,1747486232250,-2.2096944,-2.8337488,0.0061014313,-3.0988543,1.7544906,5.928197
107,1747486232260,-1.93927895,-2.7532098,-0.08749451935,-3.01230155,1.7283916,6.19398025
108,1747486232270,-1.39332285,-2.566506,-0.302264885,-2.9230857,1.60961455,6.61981965
109,1747486232280,-0.13057062,-2.0637481,-0.60770255,-3.2261534,0.73290193,7.048322
110,1747486232290,0.23844394,-1.8899792,-0.5872018,-3.3928673,0.28122982,7.115967
111,1747486232300,0.5022698,-1.8008984,-0.4881145,-3.520699,-0.17097494,7.2672343
112,1747486232310,1.0084445,-1.6705719,-0.22892569,-3.581419,-0.77870834,7.772702
113,1747486232320,1.0084445,-1.6705719,-0.22892569,-3.581419,-0.77870834,7.772702
114,1747486232330,1.5458585,-1.6239569,-0.19109683,-3.6826193,-0.5587312,8.249408
115,1747486232340,1.692537,-1.6317668,-0.20574026,-3.8722363,-0.19387813,8.457667
116,1747486232350,1.7943089,-1.6346955,-0.19646609,-4.1673145,0.2892193,8.666991
117,1747486232360,1.9856498,-1.6649586,-0.09542638685,-4.57451175,0.619451275,8.7024115
118,1747486232370,2.4818182,-1.6781375,0.25430766,-5.102084,0.73822826,8.4331665
119,1747486232380,2.660468,-1.6671550000000002,0.34094798,-5.0647997,0.5382248599999999,8.13302805
120,1747486232390,3.0812228,-1.6093135,0.5747548,-4.7947555,-0.22690132,6.993461
121,1747486232400,2.94211,-1.5058333,1.0252845,-3.7870152,-1.7571537,5.48771
122,1747486232410,2.80263135,-1.4798412,1.103993,-3.3811494,-2.12946365,5.321528649999999
123,1747486232420,2.4991462,-1.4306636,1.155367,-2.1699438,-3.06157,5.07705
124,1747486232430,2.4344711,-1.4248062,0.96817505,-1.5792545,-3.2575786,5.102617
125,1747486232440,2.3912728,-1.3879535,0.72704655,-1.2793826,-2.9395974,5.1564126
126,1747486232450,2.361986,-1.5321914,0.3692586,-1.3262542,-2.2487733,5.1425643
127,1747486232460,2.1330603,-1.5147413,0.366818035,-1.3262542,-2.2487733,5.1425643
128,1747486232470,1.7084008,-1.5009521,0.44467232,-1.9600866,-0.56885123,5.5431037
129,1747486232480,1.6346955,-1.5238935,0.5559624,-2.0053604,-0.4990764,5.792908
130,1747486232490,1.7301219,-1.5529363,0.6892177,-1.8636801,-0.58696073,5.962285
131,1747486232500,1.8599603,-1.4651977500000002,0.77817655,-1.5302524000000002,-0.748880915,5.9218051
132,1747486232510,2.0620397,-1.3345051,0.86078992,-1.0452907850000002,-0.99176125,5.8264639
133,1747486232520,2.1879733,-1.1875826,0.7807391,-0.6940198,-1.1201255,5.6240635
134,1747486232530,2.2106707,-1.0804414,0.7507201,-0.67324716,-1.0737866,5.4972973
135,1747486232540,2.2050574,-1.0062481,0.797335,-0.7387609,-0.8724516,5.345497
136,1747486232550,2.1708894,-0.9374239,0.8742131,-0.813862,-0.20559604,5.0637345
137,1747486232560,2.136477,-0.7941623,0.9396204,-0.72917354,0.07350325,4.9795785
138,1747486232570,2.1096308,-0.6133158,0.9401085,-0.5954828,0.25406557,4.924185
139,1747486232580,2.093523,-0.4893348,0.8402891,-0.509729,0.3355583,4.863465
140,1747486232590,2.0998685,-0.336799,0.6909261,-0.4878911,0.30945933,4.7755804
141,1747486232600,2.0605752,-0.2294138,0.6718896,-0.54648066,-0.017044231,4.6498795
142,1747486232610,2.0626497,-0.1287401915,0.653463275,-0.577905955,-0.0276968755,4.686098250000001
143,1747486232620,2.3307467,0.28627914,0.56548065,-0.6956177,0.15499598,4.72285
144,1747486232630,2.7722464,0.6970275,0.3660859,-0.9012137,0.49747851,4.5018077
145,1747486232640,3.3984973,1.2180897,-0.4458926,-2.6226811,1.0807108,3.260242
146,1747486232650,3.0328994,1.3367015,-0.5645044,-4.1870217,1.3773869,2.7457192
147,1747486232660,2.7207501,1.35842265,-0.42807641,-5.02245535,1.5209313,2.6796727
148,1747486232670,1.8477575,1.3903941,0.38731885,-7.138337,1.8285265,2.805374
149,1747486232680,1.7037637,1.5944259,2.3427055,-7.615043,1.4791197,3.347061
150,1747486232690,2.2016404,2.0361695,3.0602338,-5.8733354,-0.9395633,4.1252365
151,1747486232700,3.0883005,2.6289847,3.394104,-4.549212,-2.808037,4.3292346
152,1747486232710,4.303461,3.1234446,3.3572516,-3.5361454,-4.3771715,4.1758366
153,1747486232720,5.4158745,3.6981995,3.2286332,-2.893791,-4.829376,3.6517265
154,1747486232730,6.03126475,4.2143806,3.23985995,-2.7816719,-3.61923575,2.80564025
155,1747486232740,6.78772,4.873335,3.6044817,-2.5790052,-0.3685815,0.8319715
156,1747486232750,6.7059608,4.5497155,4.019623,-2.1315942,1.3640711,-0.3520699
157,1747486232760,6.2481093,3.8133945,4.3588624,-0.99442434,2.5891252,-1.7033578
158,1747486232770,5.587935,3.0185,4.5021243,0.26897928,2.7925909,-2.572081
159,1747486232780,4.1162696,1.6356717,4.011569,2.8309402,2.1502364,-3.2288165
160,1747486232790,3.6386495,1.2188219,3.5415146,3.7673078,1.7949706,-3.145726
161,1747486232800,3.6125352,0.97452056,3.0260658,4.4554687,1.6255935,-3.0706248
162,1747486232810,3.896374,0.89007676,2.6158056,4.9406967,1.546764,-3.3012545
163,1747486232820,3.8595212,0.763167,1.9146291,5.446697,1.5456988,-4.201936
164,1747486232830,3.6720853,0.6157564,1.5893008,5.4243264,1.6399746,-4.640825
165,1747486232840,3.4128966,0.4837215,1.2651927,5.2160673,1.7875137,-4.928446
166,1747486232850,3.1363797,0.38439015,1.0833701,4.9087386,1.965413,-5.122324
167,1747486232860,2.8266711,0.30677995,0.9867234,4.5976815,2.1981733,-5.2086105
168,1747486232870,2.3051207,0.19744232,0.93473923,4.35054,2.3771377,-5.222459
169,1747486232880,2.3051207,0.19744232,0.93473923,4.2051315,2.4304008,-5.215002
170,1747486232890,1.9409873,0.09859913,0.946454,4.2701125,2.072472,-5.25708
171,1747486232900,1.8416561,0.03807293,0.9862353,4.4890246,1.6719326,-5.3449645
172,1747486232910,1.8000443000000002,-0.005613317,1.010397,4.650678299999999,1.4370418,-5.40595075
173,1747486232920,1.6940014,-0.32410803,1.1390152,5.3337793,0.588026,-5.6634784
174,1747486232930,1.6388444,-0.4756676,1.1121689,6.321279,-0.49641323,-6.0219398
175,1747486232940,1.6415291,-0.6321083,0.99917036,6.6680226,-0.9752496,-6.1961107
176,1747486232950,1.7596527,-0.7512082,0.8891005,6.838465,-1.2836437,-6.409696
177,1747486232960,1.9368384,-0.81344277,0.76243484,6.8336716,-1.3965617,-6.7266126
178,1747486232970,2.097428,-0.8268659,0.56523657,6.601444,-1.3406353,-7.15112
179,1747486232980,1.7855228,-0.810026,0.34631723,5.642706,-0.6759103,-7.658186
180,1747486232990,1.5400012,-0.7890371,0.25821257,5.065865,-0.20399815,-7.5228977
181,1747486233000,1.4686144,-0.77695625,0.22526484,4.690092999999999,0.062051655,-7.33434585
182,1747486233010,1.3435352,-0.7319277,0.20110317,3.7800908,0.63915867,-6.8464546
183,1747486233020,1.3288918,-0.6987359,0.25772443,3.3641052,0.7888283,-6.5859976
184,1747486233030,1.2769076,-0.6530972,0.42051062,2.9071066,0.47031426,-6.1795993
185,1747486233040,1.3203497999999998,-0.6488262,0.50031736,2.8924593,0.2596582115,-6.1282003
186,1747486233050,1.3807539,-0.6212477350000001,0.66139515,2.9470542,-0.2527339684999999,-6.05469715
187,1747486233060,1.3977158,-0.59794027,0.7426662,3.0162964,-0.5544701,-6.032593
188,1747486233070,1.5785623,-0.44955346,0.9022797,3.6384108,-2.1907163,-5.8733354
189,1747486233080,1.6060187,-0.436740445,0.8883684000000001,3.6967339,-2.23412585,-5.8541607
190,1747486233090,1.6232247,-0.43539813,0.83101493,3.7950046,-2.1161478,-5.7822556
191,1747486233100,1.551472,-0.4515059,0.72655845,3.7673078,-1.7646105,-5.6826534
192,1747486233110,1.4489679,-0.43051702,0.44735694,3.4429348,-0.93903065,-5.380651
193,1747486233120,1.5185242,-0.37975308,0.34558508,3.2218924,-0.78563255,-5.3332467
194,1747486233130,1.5468348,-0.33899552,0.21501444,2.952913,-0.72651035,-5.371596
195,1747486233140,1.5451264,-0.31654227,0.09493827,2.5992453,-0.7755125,-5.442436
196,1747486233150,1.5119346,-0.33460248,0.10030753,2.2221417,-0.9060074,-5.519135
197,1747486233160,1.2027141,-0.36852646,0.23600335,1.7289242,-1.2378373,-5.414739
198,1747486233170,1.001611,-0.36047253,0.37218732,1.7507621,-1.2956279,-5.28744
199,1747486233180,0.8324793,-0.37267542,0.54034275,1.9808593,-1.3933659,-4.862932
200,1747486233190,0.66847277,-0.42417148,0.71118283,2.3542345,-1.3331785,-4.535896
201,1747486233200,0.59281504,-0.6616392,0.8090498,3.6165729,-1.1675298,-3.9750342
202,1747486233210,0.45321432,-0.7936742,0.6016011,4.1774344,-1.2405005,-3.7806234
203,1747486233220,0.1901206,-0.8920292,0.3746279,4.5598645,-1.4311827,-3.5537221
204,1747486233230,-0.05588911,-0.99770606,0.08419975,4.695153,-1.8418423,-3.268764
205,1747486233240,-0.12007617,-1.1600041,-0.24918245,4.3947487,-2.4405208,-3.1047132
206,1747486233250,-0.38316986,-1.4897255,-0.8942258,2.8394625,-2.8234835,-3.4418695
207,1747486233260,-0.60721445,-1.7911361,-1.2093037,1.5520903,-2.6466496,-3.5297537
208,1747486233270,-0.88226694,-2.1896815,-1.5197445,0.68469872,-2.3419839,-3.5452001
209,1747486233280,-1.11509757,-2.38626965,-1.4954608,-1.10095078,-1.48071755,-3.5161717
210,1747486233290,-1.7713674,-2.894275,-1.1751356,-3.5649076,0.33609092,-3.2080438
211,1747486233300,-2.2694883,-3.7189443,-0.34168017,-4.3129895000000005,0.89242531,-3.06769525
212,1747486233310,-2.49768185,-3.798751,-0.052594355,-4.9606702,1.3478259,-2.81815705
213,1747486233320,-3.0973306,-3.9383516,0.5610876,-3.9515984,0.7803062,-2.02347
214,1747486233330,-3.19056045,-3.9414024,0.52752974,-3.54812955,0.6511429,-1.65941575
215,1747486233340,-3.3413877,-3.785084,-0.08639627,-2.5262747,0.46924898,-0.44581318
216,1747486233350,-3.176649,-3.6974673,-0.4229512,-2.1779332,0.84581995,1.2868395
217,1747486233360,-2.9948266,-3.5915463,-0.67555046,-2.3659523,1.2777847,2.1299963
218,1747486233370,-2.7749307,-3.4075274,-0.6672525,-2.5321336,1.7092168,2.9289446
219,1747486233380,-2.0063946,-3.0263097,-0.5747548,-2.514024,1.991512,3.6330845
220,1747486233390,-1.453605,-2.79592,-0.5779276,-1.9558256,1.8013622,4.6019425
221,1747486233400,-0.9693954,-2.5032952,-0.65334123,-1.6389093,1.4919028,4.7569385
222,1747486233410,-0.9693954,-2.5032952,-0.65334123,-1.6389093,1.4919028,4.7569385
223,1747486233420,-0.43710655,-2.028848,-0.9271735,-1.4098775,0.76113147,5.0584083
224,1747486233430,0.0622346,-1.6488507,-1.1783084,-2.049569,0.24341293,5.5308533
225,1747486233440,0.35534734,-1.5568411,-1.2568948,-2.7015107,0.24767399,5.733786
226,1747486233450,0.5635282,-1.551472,-1.1880707,-3.486078,0.386691,5.928197
227,1747486233460,0.74315435,-1.5531803,-0.9693954,-4.2472095,0.52837116,6.117281
228,1747486233470,0.90398806,-1.5790504,-0.7055695,-4.8757153,0.5523396,6.3005066
229,1747486233480,1.4355447,-1.8199348,-0.009518232,-5.6379123,0.11025487,6.433132
230,1747486233490,1.5834434,-1.8533708,0.34582913,-5.5180697,-0.36432046,6.350574
231,1747486233500,1.6085813,-1.8265244,0.61722076,-5.2144694,-0.9651296,6.389989
232,1747486233510,1.68192055,-1.8251821,0.6998341800000001,-5.0136672,-1.2639363,6.4435185
233,1747486233520,2.233368,-1.7520871,0.8754333,-4.3856936,-2.076733,6.5593657
234,1747486233530,2.3566167,-1.6974181,0.9637821,-3.7571878,-2.8527782,6.6903934
235,1747486233540,2.4535077,-1.6376241,1.1653733,-3.4242926,-2.8975194,6.866162
236,1747486233550,2.5463713500000003,-1.61907575,1.2675113,-3.20644605,-2.7473171,6.9780148
237,1747486233560,2.8452194,-1.5221851,1.5590377,-2.3121564,-1.9297266,7.2826805
238,1747486233570,2.941622,-1.3791674,1.6290822,-1.7555559,-1.3789848,7.2842784
239,1747486233580,2.8818278,-1.1702545,1.521941,-0.8202536,-0.7909589,7.1143684
240,1747486233590,2.8930547,-1.10802,1.3733101,-0.515588,-0.7036072,7.0014505
241,1747486233600,2.91672825,-1.05859835,1.28361905,-0.4247742,-0.7001450650000001,6.88746725
242,1747486233610,2.8283794,-0.91570276,1.0272369,-0.283893,-0.6870956,6.541789
243,1747486233620,2.6419196,-0.89007676,0.88934463,-0.37017938,-0.63649553,6.436328
244,1747486233630,2.3380685,-0.89056486,0.7687803,-0.80374205,-0.4032026,6.5801387
245,1747486233640,2.2826674,-0.912286,0.7878168,-0.99442434,-0.29561087,6.696785
246,1747486233650,2.2819352,-0.9513352,0.87030816,-1.05168227,-0.22290658,6.7543092
247,1747486233660,2.263387,-0.9589009,0.94157284,-1.149953,-0.0314253,6.915164
248,1747486233670,2.3607657,-0.91155386,1.018451,-1.1020161,-0.03781689,7.036072
249,1747486233680,2.5091527,-0.81197846,0.989164,-1.067395,-0.12144015,7.0041137
250,1747486233690,2.673403,-0.7136234,0.99209267,-1.0700581,-0.22743396,6.87788
251,1747486233700,2.733075,-0.6633476,1.011007085,-1.05807385,-0.250603455,6.7734842
252,1747486233710,2.7957978,-0.564504415,1.02552845,-1.0458233,-0.21012341,6.5700187
253,1747486233720,2.7012258,-0.44101146,1.1492655,-1.1307782,0.29933932,6.319681
254,1747486233730,2.7295363,-0.37658033,1.1900232,-1.202151,1.2362394,6.217416
255,1747486233740,2.7295363,-0.37658033,1.1900232,-1.202151,1.2362394,6.217416
256,1747486233750,2.8583984,-0.0051252022,1.0865428,-1.1685951,1.808819,5.7375145
257,1747486233760,2.5730956,0.605506,0.6555378,-1.4775218,1.8327875,5.09516
258,1747486233770,2.4696152,0.792942,0.4720067,-1.9350529,1.6564863,4.80381
259,1747486233780,2.4093331,0.86457277,0.3926881,-2.2655512,1.58697775,4.668255
260,1747486233790,2.149168,1.0433447,0.22502078,-3.3971283,1.6213325,4.378237
261,1747486233800,1.956119,1.1297411,0.24478942,-4.3830304,2.2253375,4.580637
262,1747486233810,1.91536135,1.36806295,0.37926496,-4.887699700000001,2.6013758,4.91513015
263,1747486233820,2.2250698,1.9605118,0.80343646,-5.382249,2.4873924,5.354019
264,1747486233830,2.5800511,2.09132655,0.94096273,-5.1889035,1.90522545,5.273059
265,1747486233840,3.8441458,2.689999,1.4489679,-4.2504053,-0.20133498,4.688229
266,1747486233850,4.2118179,3.2523069,1.5723388,-3.38168205,-1.31826474,4.2253715
267,1747486233860,4.9611955,4.437205,1.6874118,-1.7614148,-2.5923212,3.4184337
268,1747486233870,5.5283847,4.953874,1.6715481,-1.4013554,-2.32254295,3.0599722
269,1747486233880,5.89605685,5.039416,1.6550743,-0.8048073,-1.6506273500000002,2.17207425
270,1747486233890,6.5509844,5.0021977,1.7018112,-0.07137272,-0.46871635,0.43196473
271,1747486233900,6.334506,4.6619816,1.7489142,0.45380265,0.070307456,-0.49055427
272,1747486233910,5.998683,3.5986242,1.3379217,0.8026768,0.4261058,-1.7656758
273,1747486233920,5.8405337,3.0001957,0.9520673,0.33662358,0.6109292,-2.3979104
274,1747486233930,5.546933,2.5416121,0.75316066,-0.47564057,1.0615361,-2.9625003
275,1747486233940,5.202568,2.1547813,0.8161274,-1.303351,1.8098843,-3.3699641
276,1747486233950,4.91933965,1.82640235,1.16927825,-1.4783206999999998,2.51988305,-3.74280655
277,1747486233960,4.51188615,1.32230215,1.6681313000000002,-1.38883855,3.23440925,-4.303402
278,1747486233970,4.0996737,0.8969103,1.9924834,-0.33768883,2.8202877,-4.863465
279,1747486233980,3.7418857,0.70923036,2.016645,0.45327002,2.2983081,-5.0797133
280,1747486233990,3.326256,0.52423495,1.7579445,1.6207999,1.7608821,-5.1377707
281,1747486234000,3.2876954,0.5181335,1.551716,2.0048277,1.736381,-5.256015
282,1747486234010,3.1998346,0.50763905,1.347684,2.25623,1.7640779,-5.42912
283,1747486234020,3.1260073,0.4954362049999999,1.2505493,2.3036343500000003,1.78751375,-5.5135425
284,1747486234030,2.9654176,0.45992589,1.1119249,2.3590281,1.84397275,-5.664277650000001
285,1747486234040,2.5013428,0.3099527,1.1243718,2.6019084,2.1955101,-5.9106197
286,1747486234050,2.3881001,0.22209209,1.1875826,2.8597023,2.2546322,-5.995841
287,1747486234060,2.2824233,0.118855886,1.2542102,3.232545,2.2248049,-6.106096
288,1747486234070,2.2072537,-0.016595893,1.2971642,3.6991308,2.08419,-6.2344604
289,1747486234080,2.1484358,-0.20085911,1.3027775,4.2264366,1.871137,-6.376673
290,1747486234090,2.2192125,-0.59989274,1.1416998,5.229383,1.2154667,-6.677078
291,1747486234100,2.238127,-0.69592927,1.063235375,5.563876,0.83516735,-6.9087725
292,1747486234110,2.1945627,-0.9452337,0.8083176,5.746569,0.49481535,-7.11863
293,1747486234120,2.135501,-1.0706791,0.6157564,5.726329,0.11664646,-7.291735
294,1747486234130,2.0264072,-1.1187584,0.3275248,5.1596084,-0.34940675,-7.5095816
295,1747486234140,1.9285403,-1.1097283,0.3243521,4.764928,-0.5070659,-7.542605
296,1747486234150,1.824328,-1.0945967,0.35046622,4.3910203,-0.58749336,-7.4952006
297,1747486234160,1.7176749,-1.0960611,0.38585448,4.016047,-0.5587312,-7.3487267
298,1747486234170,1.6598334,-1.0811737,0.42514774,3.643737,-0.43356264,-7.094661
299,1747486234180,1.6322548,-1.0096649,0.5293602,2.9864688,-0.046871636,-6.575345
300,1747486234190,1.5927176,-0.99550945,0.59281504,2.6754117,0.16777915,-6.2531023
301,1747486234200,1.5275543,-0.98428285,0.72631437,2.5555694,0.221575,-5.9750686
302,1747486234210,1.5369505,-0.97012755,0.7811052350000001,2.56542315,0.18455706,-5.8650798
303,1747486234220,1.62298075,-0.936203625,0.8742130800000001,2.7004454,0.020772656,-5.6826534
304,1747486234230,1.7188951,-0.91155386,0.8886124,3.0684943,-0.29028457,-5.8317904
305,1747486234240,1.6117541,-0.8978866,0.83101493,3.240002,-0.48309743,-5.898902
306,1747486234250,1.5329236,-0.89044285,0.786230415,3.30231995,-0.573112265,-5.877330349999999
307,1747486234260,1.3774590999999998,-0.879582335,0.68580088,3.39206845,-0.76326195,-5.7721355
308,1747486234270,1.25299,-0.7753699,0.42319524,3.3736925,-1.0354371,-5.434447
309,1747486234280,1.3591548,-0.6936107,0.36462155,3.095126,-1.1930962,-4.9454904
310,1747486234290,1.5290186,-0.6191732,0.36388937,2.9651637,-1.2367721,-4.8826394
311,1747486234300,1.5547667,-0.575853065,0.381705535,2.92867835,-1.23836995,-4.8687912
312,1747486234310,1.5334117,-0.43637437,0.43637437,2.876214,-1.1973573,-4.781972
313,1747486234320,1.4726415,-0.38146147,0.43954712,2.886334,-1.109473,-4.6935554
314,1747486234330,1.30473,-0.49885303,0.413677,3.0967238,-1.1270498,-4.5396247
315,1747486234340,1.168302,-0.58988637,0.35144243,3.2639704,-1.3070794,-4.5321674
316,1747486234350,0.94865054,-0.7455949,0.25796852,3.4008567,-1.4444987,-4.528439
317,1747486234360,0.58305275,-0.87909424,0.14130914,3.4253578,-1.4817829,-4.4336305
318,1747486234370,-0.15766099,-1.2647047,0.06028214,3.4392064,-1.1243867,-3.7646446
319,1747486234380,-0.55742675,-1.3479282,-0.062478654,3.4392064,-1.1243867,-3.7646446
320,1747486234390,-0.7326599,-1.5587937,-0.45736328,3.4796863,-1.0966897,-2.5832663
321,1747486234400,-0.822717,-1.62932625,-0.75474704,3.18860285,-1.2764531,-2.32893445
322,1747486234410,-0.80246025,-1.7803977,-1.4594624,1.7859159,-1.7054884,-1.8141453
323,1747486234420,-0.6794554,-2.1635675,-1.8748478,0.30839407,-1.5233282,-2.0271983
324,1747486234430,-1.1819692,-2.4166548,-1.7718556,-3.5068505,0.2790993,-3.0088394
325,1747486234440,-1.7389079,-2.8715775,-1.3193735,-4.6711845,0.80107886,-3.0658312
326,1747486234450,-2.2414217,-3.214966,-0.62551874,-5.060539,0.80587256,-2.8554413
327,1747486234460,-2.7378342,-3.3394353,0.1552204,-4.5907574,0.4079963,-2.3600934
328,1747486234470,-3.2918441,-3.329673,0.8678676,-2.229066,-0.6194513,-0.9108011
329,1747486234480,-3.3182025,-3.3521264,0.63064396,-1.2916331,-0.9310411,-0.29454562
330,1747486234490,-3.3577394,-3.3540788,0.319715,-0.8117315,-0.7861652,0.23648871
331,1747486234500,-3.3659154,-3.39471425,0.184995395,-0.77284935,-0.543817515,0.497478505
332,1747486234510,-3.423635,-3.5503008,0.0051252022,-0.8974853,0.6897587,2.108691
333,1747486234520,-3.3526144,-3.4992929,0.13349932,-0.67537767,0.83942837,2.7824707
334,1747486234530,-3.2171626,-3.4426715,0.15253578,-0.29561087,0.8900285,3.5531895
335,1747486234540,-2.9323478,-3.3091724,0.09469421,0.1555286,0.89375687,4.354801
336,1747486234550,-1.9456245,-2.852541,-0.26675457,0.92997587,0.90494215,5.7007627
337,1747486234560,-1.9456245,-2.852541,-0.26675457,0.92997587,0.90494215,5.7007627
338,1747486234570,-0.83760446,-2.343926,-0.84858704,0.99442434,1.1483551,6.747385
339,1747486234580,-0.24576566,-2.1023092,-1.0787331,0.7355651,1.2474247,7.1069117
340,1747486234590,0.41221267,-1.8516623,-1.2852055,0.31052458,1.2197278,7.2757564
341,1747486234600,1.3418267,-1.3474401,-1.4826478,-0.38695731,0.9504822,7.20518255
342,1747486234610,1.441158,-1.2886223,-1.43371435,-1.4168017000000002,0.538224865,7.1319456
343,1747486234620,1.7176749,-1.1870944,-1.11705,-2.3105586,0.15446335,7.1782846
344,1747486234630,1.9038906,-1.1722069,-0.77244115,-2.6828685,0.029827405,7.2374067
345,1747486234640,2.0649683,-1.1741594,-0.40781966,-2.863431,-0.014913702,7.2682996
346,1747486234650,2.1337924,-1.2212625,0.03904916,-2.8107002,-0.2711098,7.3604445
347,1747486234660,2.088886,-1.2312689,0.09640261,-2.7217507,-0.40959418,7.512778
348,1747486234670,2.1179287,-1.2659249,0.06369894,-2.7569044,-0.4910869,7.689079
349,1747486234680,2.1889493,-1.287646,-0.014643434,-3.0189595,-0.47244477,7.880294
350,1747486234690,2.4137263,-1.3552499,-0.14545812,-3.406183,-0.3334278,8.007593
351,1747486234700,2.7217264,-1.424074,-0.119588055,-4.528439,-0.06551377,8.037953
352,1747486234710,2.9474795,-1.4194369,-0.018304294,-5.0653324,-0.018109497,7.788681
353,1747486234720,3.0206964,-1.411139,0.1871919,-5.4813185,0.018109497,7.4840155
354,1747486234730,3.0385127,-1.4611707,0.37194324,-5.7950387,0.022370555,7.194796
355,1747486234740,2.8786552,-1.5722169,0.72777873,-6.132195,0.25885928,6.669621
356,1747486234750,2.7612636,-1.6307905,0.93571544,-6.115683,0.48948902,6.4214144
357,1747486234760,2.5892034,-1.6342072,1.1739154,-5.8882494,0.6173208,6.2541676
358,1747486234770,2.438864,-1.598819,1.3779472,-5.4504256,0.62264705,6.095976
359,1747486234780,2.298531,-1.5492754,1.5529363,-4.7920923,0.48682585,5.9718723
360,1747486234790,2.1032853,-1.424074,1.6471423,-3.0450585,-0.14114754,5.8168764
361,1747486234800,2.0347052,-1.3337729,1.5243815,-2.1859226,-0.5278385,5.7561564
362,1747486234810,2.029824,-1.2878901,1.2822767,-1.5291871,-0.89642006,5.7140784
363,1747486234820,2.0964518,-1.2732466,1.0352908,-1.1504856,-1.2804478,5.634184
364,1747486234830,2.1645436,-1.2363939,0.89154106,-0.9534117,-1.6527578,5.481851
365,1747486234840,2.0020018,-1.1182703,0.8942258,-0.7174556,-1.8210696,5.242699
366,1747486234850,1.8902234,-1.1067996,0.94572186,-0.6514092,-1.5765914,5.305017
367,1747486234860,1.8741156,-1.1421878,1.0067362,-0.572047,-1.2490226,5.4333816
368,1747486234870,1.9422076,-1.172451,1.0509106,-0.44847634,-0.8724516,5.5750613
369,1747486234880,2.0996244,-1.0948408,1.1338899,-0.09267801,-0.37017938,5.6618805
370,1747486234890,2.106214,-0.69507504,1.1949043,0.2908172,-0.5496765,5.6586847
371,1747486234900,2.4286137,-0.35168648,1.087031,0.6593987,-1.009338,5.4285874
372,1747486234910,2.8247187,-0.042954076,0.90691674,0.8452873,-1.5318503,4.9337726
373,1747486234920,2.9303954,0.3807293,0.6716455,0.7909589,-1.6458336,4.210458
374,1747486234930,2.391029,0.54912883,0.1889003,0.33129725,-1.2634037,3.7955372
375,1747486234940,2.067653,0.6221019,0.35437113,-1.4295849,0.628506,4.1209755
376,1747486234950,2.0530095,0.7792748,0.5964759,-2.02347,1.6724652,4.5034056
377,1747486234960,2.1752822,0.95011485,0.86664724,-2.3222766,2.0602214,4.710067
378,1747486234970,2.1891935,1.2324891,1.0550594,-2.3515713,1.7811222,4.895423
379,1747486234980,2.64155365,1.4860646,1.2611658,-1.9976372,0.8945558415,4.9478872
380,1747486234990,3.4905066,2.169913,1.5810028,-0.8564726,-1.2016183,4.7542753
381,1747486235000,3.7150395,2.75443,1.6298143,-0.24980451,-2.108691,4.621117
382,1747486235010,4.1211505,3.385562,1.7188951,0.4149205,-2.8367991,4.6062036
383,1747486235020,5.955729,4.605604,1.5963784,1.0700581,-3.1750207,4.4554687
384,1747486235030,7.1218343,4.928248,1.1499978,1.7310548,-2.3542345,2.4580977
385,1747486235040,7.7358823,4.9824286,0.6037976,1.29909,-1.4450313,0.71532506
386,1747486235050,7.61263365,4.8517361,0.451017775,0.88949582,-0.8993495499999999,-0.01171792
387,1747486235060,7.03251,4.1794806,0.22355644,-0.55606806,0.7057377,-1.8168086
388,1747486235070,6.50022085,3.4807446,0.31519993,-1.08630343,1.17418775,-2.26714915
389,1747486235080,5.359497,2.1384296,0.65675807,-3.6378782,3.2810144,-4.1934137
390,1747486235090,4.7093287,1.6427493,1.0055158,-4.0474725,3.8211036,-4.4858284
391,1747486235100,4.47906065,1.45238465,1.19453815,-4.03921655,3.9241678,-4.5385592
392,1747486235110,4.010349,0.9647583,1.8104167,-3.5734296,3.7923415,-4.686631
393,1747486235120,3.841949,0.7326599,2.28462,-2.6828685,3.329484,-4.8160605
394,1747486235130,3.6081424,0.32337585,2.6297169,-0.24341293,2.4756746,-5.057343
395,1747486235140,3.5097873,0.14570218,2.523064,0.9155948,2.141714,-5.1537495
396,1747486235150,3.4128966,0.030751213,2.2958465,2.0373182,1.7960359,-5.2634716
397,1747486235160,3.2686589,-0.028798755,1.9646608,2.5987127,1.6708673,-5.316735
398,1747486235170,3.1749408,-0.06638357,1.6813104,2.8884647,1.6847157,-5.351356
399,1747486235180,2.9989755,-0.117391534,1.3037539,2.9172268,2.0948424,-5.4211307
400,1747486235190,2.8047059,-0.11861181,1.2930154,2.8756814,2.4021714,-5.3939667
401,1747486235200,2.7037882,-0.10848344,1.33230855,2.92255305,2.4972463,-5.39556455
402,1747486235210,2.4801097,-0.1330112,1.4904575,3.2666335,2.6003106,-5.4823837
403,1747486235220,2.29365,-0.2779812,1.5968665,4.373443,2.0921793,-5.8291273
404,1747486235230,2.2502077,-0.41855815,1.5234053,5.157478,1.6058862,-6.1353908
405,1747486235240,2.1769907,-0.601113,1.3354812,5.6746635,1.1893678,-6.382532
406,1747486235250,2.1174407,-0.8973985,0.8891005,5.9894495,0.7456851,-6.5806713
407,1747486235260,2.1496563,-0.9967298,0.69971216,5.9516325,0.05273059,-6.9391327
408,1747486235270,2.1508765,-1.0860548,0.5527897,5.6826534,-0.06977482,-7.102118
409,1747486235280,2.1223218,-1.1370627,0.49031103,5.324724,-0.082025364,-7.194796
410,1747486235290,2.1159763,-1.1768441,0.49031103,4.9737196,-0.0479369,-7.255516
411,1747486235300,2.1245184,-1.1873385,0.5730464,4.5066013,-0.113983296,-7.4696345
412,1747486235310,2.09120455,-1.19917525,0.53424131,4.32630535,-0.1275654179999999,-7.52556075
413,1747486235320,2.0144486,-1.2229708,0.43295756,3.750796,-0.082558,-7.5766935
414,1747486235330,1.940011,-1.1951483,0.41929033,3.3145704,0.030360037,-7.4770913
415,1747486235340,1.8770443,-1.168058,0.44223174,2.8932583,0.18269286,-7.321563
416,1747486235350,1.7240205,-1.0657979,0.6152683,2.282329,0.3898868,-6.8592377
417,1747486235360,1.7108413,-1.0350468,0.70166457,2.1337247,0.4149205,-6.5971828
418,1747486235370,1.692537,-1.0074683,0.78464407,2.1022995,0.3882889,-6.3473783
419,1747486235380,1.6400647,-0.98574716,0.8500514,2.1763353,0.2972088,-6.108759
420,1747486235390,1.5356082,-0.94865054,0.91106576,2.6509106,-0.06498113,-5.583051
421,1747486235400,1.5338998,-0.9364477,0.90374404,2.9518478,-0.2625877,-5.4024887
422,1747486235410,1.5907651,-0.92814976,0.90691674,3.2937977,-0.52837116,-5.32792
423,1747486235420,1.6361598,-0.89349353,0.8834872,3.674097,-0.8250473,-5.3886404
424,1747486235430,1.5905211,-0.8751893,0.7658516,4.0112534,-1.1275824,-5.4941015
425,1747486235440,1.4023529,-0.971836,0.4651731,4.2402854,-1.5888419,-5.441371
426,1747486235450,1.270562,-0.9684192,0.34265637,4.142281,-1.7081516,-5.2576127
427,1747486235460,1.1451166,-0.99209267,0.24674188,3.955327,-1.7092168,-5.016863
428,1747486235470,0.9371798,-1.0111293,0.20305562,3.685815,-1.4562165,-4.5907574
429,1747486235480,0.72704655,-0.9886759,0.15595257,3.4610443,-1.1424961,-4.1955442
430,1747486235490,0.27944556,-1.023088,0.042221904,2.9901974,-0.5651228,-3.4589138
431,1747486235500,0.022697324,-1.0338265,0.020988923,2.8511803,-0.44421527,-3.0796795
432,1747486235510,-0.21184167,-1.0413923,-0.05906185,2.7595675,-0.4394216,-2.644519
433,1747486235520,-0.27846932,-1.074096,-0.12886222,2.7398603,-0.48309743,-2.207228
434,1747486235530,0.6199054,-1.0767806,-0.6186851,2.7744813,-0.9337043,-2.3031018
435,1747486235540,0.69239044,-1.0618931,-1.018451,2.2146847,-1.562743,-3.2953956
436,1747486235550,0.26651052,-1.1736712,-1.1641531,1.5680692,-1.9963056,-3.9713058
437,1747486235560,-0.22428861,-1.3230344,-1.163909,0.8974853,-2.1092236,-4.2994075
438,1747486235570,-0.7084982,-1.6122422,-1.1902672,0.14327806,-1.8562233,-4.3425508
439,1747486235580,-1.8109047,-2.2267783,-1.1475571,-1.5222629,-0.77924097,-3.6938045
440,1747486235590,-2.1386735,-2.5255044,-1.022844,-2.2674153,-0.37337518,-3.2463934
441,1747486235600,-2.4137263,-2.7063508,-0.79440635,-2.860235,-0.221575,-2.7728834
442,1747486235610,-2.5904236,-2.8276474,-0.5559624,-3.2708945,-0.22264028,-2.3707461
443,1747486235620,-2.6885345,-2.94992,-0.2975058,-3.5068505,-0.294013,-2.0516994
444,1747486235630,-2.9008644,-3.406551,0.022697324,-3.8360174,-0.20932446,-1.7214674
445,1747486235640,-3.290868,-3.684776,0.17157225,-3.9963396,-0.082025364,-1.4982945
446,1747486235650,-3.687705,-3.9617815,0.49592432,-3.9760995,0.0015978967,-1.0647318
447,1747486235660,-4.1211505,-4.1255436,0.89007676,-3.551059,0.0005326322,-0.3520699
448,1747486235670,-4.7027392,-4.0825896,1.7581885,-2.6253443,-0.17470337,0.7520767
449,1747486235680,-4.5189643,-3.9461615,1.7237762,0.26631612,-0.09534117,3.4940674
450,1747486235690,-4.0047355,-3.8180315,1.2671453,1.5073493,0.3898868,4.8858356
451,1747486235700,-3.1954415,-3.5715337,0.605506,2.2977755,1.1222562,6.29305
452,1747486235710,-1.9300048,-3.2498662,-0.23087814,2.2993734,1.748099,6.96683
453,1747486235720,0.06662763,-2.4803538,-1.4860646,1.8216022,2.3153522,7.193731
454,1747486235730,0.06662763,-2.4803538,-1.4860646,1.8216022,2.3153522,7.193731
455,1747486235740,0.8346757,-2.062528,-1.6764293,-0.4133226,1.9963056,6.905044
456,1747486235750,0.9515792,-1.8345783,-1.4006445,-0.690824,1.1925635,7.187872
457,1747486235760,1.2605556,-1.7220681,-1.2315128,-0.7344999,0.47244477,7.5447354
458,1747486235770,1.9109682,-1.6425053,-1.171963,-0.9337043,0.15180019,7.901599
459,1747486235780,2.045688,-1.5668476,-1.2207743,-1.433846,0.27483824,7.918111
460,1747486235790,2.0315325,-1.6293261,-1.2205303,-2.0335898,0.376571,8.020376
461,1747486235800,2.0327528,-1.7118175,-1.1929518,-2.718555,0.4596616,8.232897
462,1747486235810,2.1994438,-1.820667,-1.1268123,-3.4514568,0.48735848,8.452341
463,1747486235820,2.56101465,-1.7890616,-1.0599406,-4.25919355,0.509995355,8.4715155
464,1747486235830,3.1915367,-1.6095576,-0.8427297,-5.93086,0.5225122,8.3239765
465,1747486235840,3.4551187,-1.5170598,-0.690438,-6.829943,0.4990764,8.026235
466,1747486235850,3.57214405,-1.530605,-0.5587691,-7.2706963,0.48815744,7.7796263
467,1747486235860,3.716992,-1.6320108,-0.04759116,-8.631838,0.49321744,6.757505
468,1747486235870,3.2774446,-1.85874,0.9974619,-9.224125,0.6860303,5.5968995
469,1747486235880,2.9762783,-1.9207305,1.4179726,-9.0291815,0.7781757,5.120726
470,1747486235890,2.6785283,-1.9732028,1.74745,-8.556737,0.87618,4.7249804
471,1747486235900,2.3771176,-2.0107877,2.0049303,-7.8557925,0.908138,4.427239
472,1747486235910,2.0779035,-2.0071268,2.1945627,-6.9620357,0.7499462,4.220045
473,1747486235920,1.6891203,-1.8960809,2.263387,-4.784635,-0.18429075,4.0325584
474,1747486235930,1.5902771,-1.8470252,2.1992,-3.593137,-0.89322424,4.034689
475,1747486235940,1.5700202,-1.7772248,2.0317764,-2.1166804,-1.969674,4.04694
476,1747486235950,1.5402453,-1.7274371,1.7979698,-1.0833739,-2.7675571,4.03895
477,1747486235960,1.4970472,-1.701079,1.6088253,-0.65620288,-3.05943955,4.0618532
478,1747486235970,1.274955,-1.5504957,1.2256554,0.93903065,-3.6820867,4.6008773
479,1747486235980,1.3093672,-1.4909457,0.959145,1.1052119,-3.5499938,4.9806437
480,1747486235990,1.4367651,-1.453605,0.81271064,1.045557,-3.202185,5.294897
481,1747486236000,1.752575,-1.3918585,0.8107582,0.9086706,-2.7547739,5.5431037
482,1747486236010,1.8621569,-1.3642801,0.797335,0.6876282,-1.8748654,5.8477693
483,1747486236020,1.9300048,-1.3508569,0.7734174,0.63010395,-1.7251958,5.9585567
484,1747486236030,2.0127401,-1.1629328,0.75291663,0.6199839,-1.8524948,6.0331254
485,1747486236040,2.0944993,-0.8429737,0.763167,0.66579026,-2.2034996,6.003298
486,1747486236050,2.5899355,-0.33411437,0.8593256,0.6993461,-2.7718182,5.6448364
487,1747486236060,2.9574857,-0.13057062,0.8937377,0.61838603,-2.3931167,5.2826467
488,1747486236070,2.9450388,-0.016839951,0.9113098,0.3898868,-1.6421051,4.922587
489,1747486236080,2.6404555,-0.05832968,0.9818423,0.050600063,-0.82557994,4.9071407
490,1747486236090,2.2021286,-0.044662476,1.0584763,-0.2977414,-0.10865697,5.395032
491,1747486236100,2.2995074,0.38463423,1.1668377,-0.6897587,0.47617322,6.6483154
492,1747486236110,2.9862845,0.6269831,1.1204668,-0.60507023,-0.2561961,6.6568375
493,1747486236120,3.35773955,0.7709768699999999,1.1142434,-0.4972122,-0.8676579,6.50397205
494,1747486236130,3.92163395,1.09667127,1.1460929,-0.253000315,-2.05888985,6.289321299999999
495,1747486236140,5.7782993,2.5428324,1.2525018,0.31372038,-3.3992589,6.090117
496,1747486236150,6.6310353,3.3079522,1.2742229,0.4181163,-2.8437235,5.442969
497,1747486236160,7.074732,3.999122,1.2454242,0.45486793,-1.6836505,4.7090015
498,1747486236170,7.2138443,4.66247,1.2978964,0.67697555,-0.11132014,3.7822216
499,1747486236180,7.424222,5.1781626,1.4928981,1.2500879,0.38083205,2.8538435
500,1747486236190,7.977499,5.425881,1.0047837,2.612561,-0.406931,0.56725335
501,1747486236200,7.9967794,5.1330123,0.45907167,2.817092,-0.5544701,-0.87138635
502,1747486236210,7.9967794,5.1330123,0.45907167,2.817092,-0.5544701,-0.87138635
503,1747486236220,6.968078,4.029385,-0.87396896,1.310808,0.53263223,-3.3044503
504,1747486236230,6.306927,3.346757,-1.2002735,-0.24234766,1.4807175,-4.091681
505,1747486236240,5.1173925,2.0952315,-0.584029,-3.009372,3.0567763,-5.036038
506,1747486236250,4.6124377,1.5443943,0.12202863,-3.5633097,3.5281558,-5.4142065
507,1747486236260,4.1506815,1.0308977,0.9989263,-3.2112398,3.4695663,-5.6464343
508,1747486236270,3.7965546,0.7336361,1.7401282,-2.218946,3.0391996,-5.7881145
509,1747486236280,3.5183294,0.54205114,2.2472792,-0.86392945,2.3947146,-5.8429756
510,1747486236290,3.516377,0.42319524,2.2858403,1.653823,1.4375744,-5.9250007
511,1747486236300,3.5908144,0.43979117,2.0569143,2.4176178,1.1408982,-6.1657505
512,1747486236310,3.6054575,0.4275883,1.8597162,2.83893,0.9912286,-6.4555025
513,1747486236320,3.6467035,0.36974674,1.75648,3.0381343,1.0167949,-6.751646
514,1747486236330,3.508567,0.09615856,2.0718021,3.7502635,1.2335763,-7.3668365
515,1747486236340,3.3662815,-0.12983845,2.2741253,4.5092645,1.2229236,-7.611315
516,1747486236350,3.30526725,-0.2755406099999999,2.3263535500000003,4.993427049999999,1.13823505,-7.7170423
517,1747486236360,3.1358917,-0.7106947,2.3039005,6.5130267,0.6791061,-8.052867
518,1747486236370,3.0789043,-1.01088515,1.9256117,6.97881365,0.42610579,-8.183628
519,1747486236380,2.6372826,-1.5143752,1.0538392,8.218515,-1.158475,-8.744224
520,1747486236390,2.4061604,-1.6183436,0.58939826,7.943677,-1.7326527,-8.803346
521,1747486236400,2.2780304,-1.6298143,0.2328306,7.2390046,-2.1976407,-8.737299
522,1747486236410,2.2453265,-1.6066289,0.082003236,6.07254,-2.5827336,-8.606804
523,1747486236420,2.2316594,-1.513643,0.04368625,5.1127367,-2.6796727,-8.476309
524,1747486236430,2.361986,-1.4501882,0.19085276,3.1627703,-2.4064324,-8.208928
525,1747486236440,2.413482,-1.376971,0.3648656,2.3579628,-2.1747375,-8.076835
526,1747486236450,2.4249527,-1.3293798,0.5623079,1.7145431,-1.9616845,-7.927698
527,1747486236460,2.4466739,-1.2795922,0.8005078,1.2607405,-1.7821875,-7.7284937
528,1747486236470,2.608972,-1.2046666,1.2163813,1.0130665,-1.6612799,-7.5431376
529,1747486236480,2.6062875,-1.2517697,1.3547617,1.1100056,-1.5382419,-7.1745563
530,1747486236490,2.5684586,-1.3071706,1.4806952,1.4402375,-1.7992316,-6.792126
531,1747486236500,2.5727296,-1.3165668,1.4842341,1.6021577,-1.91667705,-6.6355323
532,1747486236510,2.575292,-1.2678773,1.4135796,2.0442424,-2.2168152,-6.2046328
533,1747486236520,2.899156,-1.1194906,1.2600676,2.453304,-2.271144,-6.291452
534,1747486236530,2.8703573,-1.0716554,1.0755602,2.572081,-1.8461033,-6.6669574
535,1747486236540,2.6262999,-1.0989897,0.937912,2.6232138,-1.4610102,-6.9758844
536,1747486236550,2.2755897,-1.1460928,0.77683425,2.63866,-1.2154667,-7.0797477
537,1747486236560,1.9817449,-1.2244352,0.62600684,2.6083,-1.1483551,-6.9870696
538,1747486236570,1.7059602,-1.372822,0.4888467,2.4383903,-1.5190672,-6.398511
539,1747486236580,1.5368285,-1.3999124,0.49055508,2.401106,-1.808819,-6.036321
540,1747486236590,1.4252943,-1.4030851,0.49055508,2.4080303,-2.0426445,-5.7039585
541,1747486236600,1.3542737,-1.4499441,0.4932397,2.44638,-2.0367856,-5.4829164
542,1747486236610,1.0374874,-1.9236592,-0.08908089,2.501241,-1.4226607,-5.1553473
543,1747486236620,0.60648227,-2.1137798,-0.4639528,2.0490363,-1.4450313,-4.9550776
544,1747486236630,0.25699228,-2.1254945,-0.7185045,1.4098775,-1.5073493,-4.679174
545,1747486236640,-0.09322987,-2.2143314,-0.86371857,0.70467246,-1.5936357,-4.404336
546,1747486236650,-0.319837035,-2.2262902,-0.8673794349999999,0.2434129349999999,-1.5978967000000002,-4.17130935
547,1747486236660,-0.7485236,-2.2692444,-0.73510045,-0.84635264,-1.406149,-3.4892738
548,1747486236670,-1.0091767,-2.3629622,-0.34582913,-1.5749935,-1.1297129,-2.8650289
549,1747486236680,-1.2090596,-2.3851714,-0.2443013,-1.7630126,-0.98856544,-2.6945865
550,1747486236690,-1.4538491,-2.5306296,-0.28749946,-1.9574234,-0.89162636,-2.5129588
551,1747486236700,-1.743545,-2.6958563,-0.39073566,-2.2935145,-0.8032094,-2.2631543
552,1747486236710,-2.0361695,-2.8278913,-0.485918,-2.8362665,-0.6034723,-2.0644825
553,1747486236720,-2.7781038,-3.456339,-0.28994003,-4.1337585,0.28868666,-1.7305222
554,1747486236730,-3.5583546,-3.6696448,0.054424766,-4.280765,0.47404268,-1.1595404
555,1747486236740,-4.103091,-3.7892327,0.328257,-4.1460094,0.6045376,-0.15659387
556,1747486236750,-4.2199936,-3.7643387,0.60599416,-3.5260253,1.2964269,2.020274
557,1747486236760,-4.027433,-3.6374292,0.55791485,-3.186206,1.8066885,2.7851338
558,1747486236770,-3.8407288,-3.4661012,0.41977844,-2.898052,2.1923141,3.3832798
559,1747486236780,-3.6974673,-3.3328457,0.31898284,-2.5944517,2.3718114,3.919108
560,1747486236790,-3.5576227,-3.171524,0.2711476,-2.1992385,2.3973777,4.4868937
561,1747486236800,-2.8071465,-2.79592,0.08956901,-1.0535465,2.030394,5.8360515
562,1747486236810,-2.2187245,-2.5589402,-0.15790504,-0.6359629,1.907356,6.3191485
563,1747486236820,-1.7491581,-2.3661351,-0.42270714,-0.3669836,1.8269285,6.743124
564,1747486236830,-1.2080834,-2.2199447,-0.630888,-0.22743396,1.663943,7.0653663
565,1747486236840,-0.2042759,-1.9270761,-0.9872115,-0.28176245,1.0327739,7.4302197
566,1747486236850,0.30092257,-1.8616686,-1.0931324,-0.47670585,0.58962387,7.5335503
567,1747486236860,0.77048874,-1.8006544,-1.1868503,-0.8117315,0.2647182,7.5921397
568,1747486236870,1.2044226,-1.7547716,-1.1692783,-1.2639363,0.015446335,7.6347504
569,1747486236880,1.5800266,-1.7081566,-1.052863,-1.748099,-0.15126756,7.6693716
570,1747486236890,1.8384832,-1.67764945,-0.8057550200000001,-2.17367215,-0.17789917,7.727162099999999
571,1747486236900,2.16112695,-1.62407895,-0.42173092,-2.66316115,-0.18402444,7.8211715
572,1747486236910,2.318544,-1.5653832,-0.051007964,-2.7302728,-0.10066749,7.90586
573,1747486236920,2.442525,-1.5570853,0.14936304,-2.593919,-0.05752428,7.921839
574,1747486236930,2.557964,-1.5280424,0.29579738,-2.3313313,-0.036751624,7.894675
575,1747486236940,2.8571782,-1.4143118,0.4144092,-1.6740631,-0.1965413,7.658186
576,1747486236950,2.9268565,-1.3744084,0.42026659,-1.5169366,-0.25859295,7.5388765
577,1747486236960,3.0970864,-1.2420074,0.4417436,-1.0141318,-0.52464277,6.9913306
578,1747486236970,3.193489,-1.1177822,0.47127452,-0.7621967,-0.7318367,6.5242124
579,1747486236980,3.1825066,-0.9984382,0.48713827,-0.52411014,-0.9102685,6.002765
580,1747486236990,2.8193493,-0.8341876,0.39537275,-0.35792887,-1.0295781,5.264537
581,1747486237000,2.6370385,-0.7582859,0.26699865,-0.58483016,-0.8159926,5.0797133
582,1747486237010,2.4740083,-0.65944266,0.10836142,-1.0439591,-0.32810146,4.944425
583,1747486237020,2.3854156,-0.6313761,-0.00097622897,-1.7060211,0.36591834,4.8117995
584,1747486237030,2.1328163,-0.69312257,-0.00976229,-3.2804818,1.8461033,4.6307044
585,1747486237040,1.9680777,-0.77195305,0.09835507,-4.159325,2.5028389,4.60141
586,1747486237050,1.8855863,-0.9159469,0.30922052,-4.6642604,2.6594326,4.537494
587,1747486237060,1.8213992,-1.0294335,0.5989165,-4.8623996,2.4916537,4.4474792
588,1747486237070,1.7145022,-1.0977695,0.87201655,-4.7382965,2.056493,4.391553
589,1747486237080,1.607117,-1.0543274,1.2217506,-3.7838194,0.6737798,4.293016
590,1747486237090,1.582223,-0.94206095,1.2154051,-3.176086,0.16777915,4.2589273
591,1747486237100,1.58002655,-0.900205125,1.1877046,-2.91855825,-0.01624528,4.24747565
592,1747486237110,1.6044323,-0.7914777,1.0504224,-2.3004386,-0.37603834,4.224306
593,1747486237120,1.5731931,-0.7556012,0.90423214,-2.1236048,-0.25992453,4.213121
594,1747486237130,1.5290186,-0.8171036,0.84248555,-2.1747375,0.28655612,4.3798347
595,1747486237140,1.4914337,-0.8090498,0.9061846,-2.159291,0.36218992,4.508732
596,1747486237150,1.48691875,-0.8116123749999999,0.918143385,-2.138252,0.299871945,4.575311
597,1747486237160,1.5585496,-0.8617661,0.90520835,-2.0964406,-0.024501082,4.748949
598,1747486237170,1.4689806,-0.6108753,0.98062205,-2.122007,-0.29614353,4.8608017
599,1747486237180,1.6220044,-0.3863426,1.0338265,-2.2913837,-0.58269966,5.2304482
600,1747486237190,1.9287844,-0.24552159,1.1653733,-2.4799356,-0.40746364,5.319398
601,1747486237200,2.01945165,-0.201713315,1.29814045,-2.5273399000000003,-0.05938849,5.3060823
602,1747486237210,2.1159763,-0.17889395,1.7552598,-2.4453146,0.8042747,5.32792
603,1747486237220,1.9556307,0.038561042,2.0715578,-1.5499598,0.7052051,5.6038237
604,1747486237230,2.19139,0.3909797,1.8963249,-1.0002834,0.105993815,5.742308
605,1747486237240,2.7400305,0.8505395,1.5041249,-0.5656554,-0.7637946,5.5228634
606,1747486237250,3.2576761,1.3376778,1.0831261,-0.3637878,-1.845038,5.1159325
607,1747486237260,3.6762345,2.3195202,0.6794554,-0.509729,-2.7654266,4.9806437
608,1747486237270,4.302241,2.7688293,0.7285109,-1.685781,-2.9917953,5.1553473
609,1747486237280,4.8408756,3.172012,0.9938011,-2.6530411,-2.1736722,4.9891663
610,1747486237290,5.5220394,3.6884372,1.585884,-3.029612,-1.3459617,4.8229847
611,1747486237300,6.202471,4.267585,2.1420906,-2.882073,-0.5400891,4.227502
612,1747486237310,6.742326,4.8579597,2.5484457,-2.25623,0.07084008,3.1670313
613,1747486237320,7.5950613,5.3136144,2.4154346,-0.46978164,0.2796319,0.26312032
614,1747486237330,7.4398413,4.891639,1.9392788,0.09427591,0.406931,-1.2761868
615,1747486237340,6.9944367,4.3161526,1.569044,0.26418558,0.7419567,-2.5513084
616,1747486237350,6.5051017,3.576171,1.3252308,0.15073492,1.176052,-3.5824845
617,1747486237360,5.9186325,2.8449752,1.2354177,-0.16245283,1.5978967,-4.3830304
618,1747486237370,4.519696,1.6122422,1.8133454,-0.2743056,2.2700787,-5.0648
619,1747486237380,4.160444,1.1975889,2.152829,0.23489082,2.2652848,-5.1340423
620,1747486237390,4.06172285,1.035901,2.26192265,0.64049021,2.1696774,-5.1790495
621,1747486237400,3.7799585,0.5869577,2.4027436,1.9776635,1.7907095,-5.3098106
622,1747486237410,3.6384056,0.34729347,2.2250698,2.8117654,1.4780544,-5.3721285
623,1747486237420,3.5193055,0.06613952,1.6112659,3.6218991,0.9219864,-5.648565
624,1747486237430,3.3606684,-0.017328065,1.3457316,3.6304212,0.8836369,-5.774266
625,1747486237440,3.1705477,-0.10933765,1.1812371,3.4807515,0.9502159,-5.855226
626,1747486237450,2.7566266,-0.22916976,1.159516,3.3172336,0.8926916,-5.9180765
627,1747486237460,2.5757802,-0.2677308,1.1992973,3.3353431,0.84368944,-5.9026303
628,1747486237470,2.472544,-0.29140437,1.2051547,3.3795514,0.8021441,-5.8823905
629,1747486237480,2.4156787,-0.2877435,1.2229708,3.4445326,0.7584683,-5.9447083
630,1747486237490,2.3688195,-0.29018408,1.2546983,3.5739622,0.67697555,-6.1135526
631,1747486237500,2.29511425,-0.3455850649999999,1.28935445,3.81844045,0.4873584749999999,-6.3204803
632,1747486237510,2.1513648,-0.4915313,1.3447554,4.415521,0.0777643,-6.7425914
633,1747486237520,2.0854692,-0.6169767,1.3284036,4.9060755,-0.24341293,-6.9918633
634,1747486237530,2.0215262,-0.69141415,1.2954559,5.09356225,-0.4231763,-7.08107925
635,1747486237540,1.7916242,-0.88885653,1.1419438,5.5665393,-1.0226538,-7.2768216
636,1747486237550,1.5526923,-1.0304097,0.79782313,5.5606804,-1.8040254,-7.215569
637,1747486237560,1.5302389,-1.0006347,0.6123396,5.2522864,-2.0112193,-7.1234236
638,1747486237570,1.5461026,-0.93205464,0.38585448,4.6978164,-1.995773,-6.982276
639,1747486237580,1.6232247,-0.9066727,0.28627914,3.9840891,-1.8013622,-6.7804084
640,1747486237590,1.688632,-0.8110022,0.41148052,2.7265444,-1.1153319,-6.44485
641,1747486237600,1.7569683,-0.8161274,0.55913514,2.245045,-0.80374205,-6.302637
642,1747486237610,1.8838779,-0.83101493,0.7326599,2.0793962,-0.7536746,-6.3031697
643,1747486237620,1.8841219,-0.82247293,0.89715445,2.1166804,-0.7728494,-6.3788037
644,1747486237630,1.8309175,-0.83491987,1.022844,2.2977755,-0.8591358,-6.433665
645,1747486237640,1.8419001,-0.88885653,1.022844,2.7547739,-0.97738016,-6.592389
646,1747486237650,1.722312,-0.88958865,0.96329397,2.9433258,-0.99069595,-6.6158247
647,1747486237660,1.5539125,-0.8978866,0.8617661,3.0850058,-1.0988203,-6.492787
648,1747486237670,1.5120567,-0.89349355,0.8180798499999999,3.1262849,-1.1992215000000002,-6.387325799999999
649,1747486237680,1.46788235,-0.876897665,0.7270465500000001,3.1776838,-1.5941683,-6.0198092
650,1747486237690,1.5629426,-0.88958865,0.5593792,3.0344057,-2.0112193,-5.7071543
651,1747486237700,1.60528655,-0.901425425,0.55315575,2.98700155,-2.04717195,-5.66294565
652,1747486237710,1.6303024,-0.88983274,0.5012936,2.824016,-1.9675435,-5.5393753
653,1747486237720,1.5441502,-0.8700641,0.46078008,2.6610305,-1.7555559,-5.4030213
654,1747486237730,1.2053988,-0.8371163,0.3968371,2.3616912,-1.1147993,-4.8959556
655,1747486237740,1.040172,-0.8463905,0.3577879,2.2791333,-0.928378,-4.616856
656,1747486237750,0.85908157,-0.84102124,0.358032,2.2434468,-0.9038769,-4.3617253
657,1747486237760,0.69507504,-0.90374404,0.3951287,2.299906,-0.9869675,-4.0266995
658,1747486237770,0.47225076,-1.0182068,0.5352176,2.5102956,-1.1084076,-3.7646446
659,1747486237780,0.09322987,-1.0980135,0.54790854,3.2149682,-1.7512947,-3.3529198
660,1747486237790,-0.07199689,-1.3401184,0.3824377,3.4514568,-2.181129,-3.3310819
661,1747486237800,-0.33191785,-1.5727049,0.19744232,3.4724958,-2.30789545,-3.40325355
662,1747486237810,-0.7700006,-1.876068,-0.06882414,3.2868736,-2.2977755,-3.7071204
663,1747486237820,-1.4019869,-2.12586065,-0.43198134,3.13906815,-2.0037625,-3.6972667
664,1747486237830,-2.4303222,-2.5184267,-1.2288283,1.3848438,-0.57790595,-2.4240093
665,1747486237840,-2.49036,-2.4527755,-1.4199251,-0.16990969,-0.026631612,-1.5164039
666,1747486237850,-2.2948701,-2.4064045,-1.3740423,-1.3923006,0.2790993,-1.0114686
667,1747486237860,-2.0820522,-2.3624742,-1.1114367,-2.394182,0.48043427,-0.753142
668,1747486237870,-2.0390983,-2.2450826,-0.31898284,-3.2458608,0.515588,-0.48469532
669,1747486237880,-2.092547,-2.1633234,0.005857374,-3.1611724,0.1933455,-0.34248254
670,1747486237890,-2.1154883,-2.0595992,0.1969542,-2.8991172,-0.26525086,-0.2412824
671,1747486237900,-2.1206133,-2.0408068,0.268463,-2.6354642,-0.6151902,-0.25566345
672,1747486237910,-2.2873044,-2.1274471,0.16083373,-2.5347967,-0.6317018,-0.41971418
673,1747486237920,-3.2779331,-2.422024,-0.023429496,-2.748915,-0.26418558,-0.45540056
674,1747486237930,-3.6049697,-2.536975,0.14960709,-3.13241,0.44421527,0.6002765
675,1747486237940,-3.7228491,-2.5406358,0.47103047,-2.8810077,0.7749799,1.4492923
676,1747486237950,-3.64475095,-2.5111049000000003,0.612827735,-2.55796625,0.95128115,1.89856765
677,1747486237960,-3.4326654000000003,-2.41775305,0.7825695500000001,-1.79204115,1.3185311,2.7715519
678,1747486237970,-2.2279985,-2.0268953,0.0873725,0.11558119,1.816276,4.5486794
679,1747486237980,-1.9108462,-1.92414725,-0.16315225,0.254864515,1.8405107,4.749215400000001
680,1747486237990,-0.9610975,-1.658613,-0.9003272,0.30519825,1.9361181,5.1590757
681,1747486238000,-0.70264084,-1.57441325,-1.08178375,0.063915865,1.88312125,5.19289785
682,1747486238010,-0.045638707,-1.3010693,-1.4348125,-0.6498113,1.5430355,5.2389708
683,1747486238020,0.5183776,-1.1177822,-1.3508569,-1.3289174,0.6849651,5.325257
684,1747486238030,0.75291663,-1.0631135,-1.2395668,-1.4950987,0.28655612,5.413674
685,1747486238040,0.94669807,-0.99965847,-1.1431642,-1.5957662,0.06018744,5.524994
686,1747486238050,1.051520635,-0.985991285,-1.0974034499999998,-1.6476978,-0.00133158,5.5769258
687,1747486238060,1.2759314,-0.97085977,-0.97500867,-1.8189391,-0.15819177,5.699165
688,1747486238070,1.4013767,-1.0845904,-0.8049008,-2.1965754,-0.37230992,5.824333
689,1747486238080,1.428223,-1.1590278,-0.68360436,-2.5502431,-0.37444046,5.946839
690,1747486238090,1.4052817,-1.1927078,-0.5937913,-2.9087045,-0.29507825,6.0821276
691,1747486238100,1.3966176,-1.19392805,-0.5677992000000001,-3.1396006,-0.21758026,6.1803983
692,1747486238110,1.4597064,-1.2366381,-0.5217944,-3.9760995,0.036751624,6.5061026
693,1747486238120,1.837019,-1.3759948,-0.28335047,-4.6695867,0.21092236,6.6499133
694,1747486238130,2.0017576,-1.4645876,-0.030507157,-5.8797274,0.531567,6.516755
695,1747486238140,2.1125596,-1.59467,0.33191785,-6.160424,0.57364494,6.218481
696,1747486238150,2.0666766,-1.6512914,0.7387613,-6.070942,0.5305017,5.9250007
697,1747486238160,1.9585594,-1.6508032,1.1002101,-5.49783,0.36218992,5.6954365
698,1747486238170,1.8067559,-1.6683753,1.364524,-4.135889,0.016511599,5.640043
699,1747486238180,1.8858303,-1.6595892,1.2310247,-3.6037896,-0.13688648,5.5292554
700,1747486238190,1.9378146,-1.6303024,1.0460293,-3.2937977,-0.28122982,5.3721285
701,1747486238200,1.9063311,-1.58564,0.737541,-3.2463934,-0.5118596,5.049886
702,1747486238210,1.8233517,-1.5614783,0.74413055,-3.3364084,-0.60507023,4.924185
703,1747486238220,1.8233517,-1.5614783,0.74413055,-3.3364084,-0.60507023,4.924185
704,1747486238230,1.6759411,-1.5783182,0.86518294,-3.3220272,-0.73343456,4.826713
705,1747486238240,1.5038807,-1.5756336,1.0450531,-2.9518478,-0.8655274,4.9465556
706,1747486238250,1.4677603,-1.5229172,1.0843463,-2.620018,-1.0247844,5.0200586
707,1747486238260,1.5160836,-1.4636112,1.0321181,-2.263687,-1.2634037,5.0392337
708,1747486238270,1.581491,-1.4055257,0.9789136,-1.9361181,-1.6064188,4.9875684
709,1747486238280,1.56709165,-1.3437792000000002,0.9664667,-1.78644845,-1.7747305999999998,4.9726547
710,1747486238290,1.5038807,-1.1665937,0.83784854,-1.4839134,-2.1395836,5.037103
711,1747486238300,1.58185705,-1.1658615,0.86347452,-1.5121429000000002,-2.19817315,5.208877
712,1747486238310,1.7725879,-1.2202863,0.93620354,-1.5992283,-2.09963625,5.4696005
713,1747486238320,1.82335175,-1.2600676,0.97073767,-1.8556907,-1.3480922,5.755624
714,1747486238330,1.9217068,-1.3913703,1.091424,-1.9632823,-0.8378305,5.994776
715,1747486238340,2.1725976,-1.274467,1.1460928,-1.995773,-0.37923414,6.730341
716,1747486238350,2.7041545,-1.0994779,1.103871,-1.9765981,-0.85966843,6.9071746
717,1747486238360,3.3823893,-0.767316,0.95011485,-2.0953753,-1.8125474,6.792659
718,1747486238370,3.5869093,-0.605384015,0.924122755,-2.0953753,-1.8125474,6.792659
719,1747486238380,4.0391474,-0.18743597,1.3825843,-2.4554346,-2.7856665,6.562029
720,1747486238390,4.09662295,-0.163640385,1.6312786,-3.1590418,-2.545982,6.8278125
721,1747486238400,4.36594025,-0.034778155,2.1390396,-3.8008635,-1.6266588,7.645403
722,1747486238410,4.944356,0.22794946,2.5379512,-3.6328181,-1.49536495,7.776164
723,1747486238420,6.0948415,0.9022797,2.8549817,-2.1012342,-2.1774006,7.170828
724,1747486238430,7.2250705,2.0093234,3.031435,-2.1012342,-2.1774006,7.170828
725,1747486238440,7.5364876,2.374677,2.7722464,-0.19973709,-3.1148334,5.458415
726,1747486238450,7.337581,2.7549183,2.421048,0.45380265,-3.2927325,4.5785065
727,1747486238460,7.1201262,3.2044718,2.170401,0.753142,-3.355583,3.963849
728,1747486238470,7.1394067,3.6532931,2.0024896,0.69668293,-2.9017804,3.3145704
729,1747486238480,7.1379423,3.88832,2.0049303,-0.12037488,0.19920446,1.1941614
730,1747486238490,6.8436093,3.6862407,2.2880366,-0.26418558,1.5803198,0.27803403
731,1747486238500,6.516084,3.2674387,2.6275203,0.0314253,2.632801,-0.6412892
732,1747486238510,6.121444,2.7571146,2.8418026,0.7350325,3.1872714,-1.6037556
733,1747486238520,5.4639535,2.186753,2.903305,1.7374463,3.1611724,-2.4543693
734,1747486238530,4.4201207,1.3750186,2.450579,3.884487,2.0676782,-3.7428067
735,1747486238540,3.9627576,1.0721434,2.002734,4.6610646,1.4221281,-4.2717104
736,1747486238550,3.5822723,0.81930023,1.4731296,5.031244,0.82078624,-4.8006144
737,1747486238560,3.2689025,0.61722076,0.92400074,4.843225,0.6508766,-5.1228566
738,1747486238570,2.8464396,0.4893348,0.5186216,3.869573,0.9827065,-5.490906
739,1747486238580,2.7463763,0.41294485,0.5459561,3.4317493,1.3273195,-5.643771
740,1747486238590,2.690243,0.32288775,0.6645679,3.1856732,1.5957662,-5.845106
741,1747486238600,2.6768198,0.18011424,0.8175918,3.1904671,1.7049558,-6.142315
742,1747486238610,2.659492,-0.0053692595,0.98379475,3.4360106,1.5840483,-6.5061026
743,1747486238620,2.6275203,-0.50788313,1.1985651,4.5305696,0.94488955,-7.265104
744,1747486238630,2.6079957,-0.7656076,1.2051547,5.3604107,0.23755397,-7.7822895
745,1747486238640,2.5425885,-1.0374874,1.0780008,5.9095545,-0.37603834,-8.154067
746,1747486238650,2.4747405,-1.2498171,0.87323684,6.228069,-0.91452956,-8.450743
747,1747486238660,2.3885884,-1.3991802,0.64040625,6.267483,-1.3161342,-8.6765785
748,1747486238670,2.2977991,-1.48643065,0.49763274,6.0365871,-1.5345134,-8.75887075
749,1747486238680,2.101089,-1.5583055,0.26919514,5.3662696,-1.7997643,-8.699482
750,1747486238690,2.0444674,-1.4675162,0.2506468,4.8639975,-1.8263959,-8.447015
751,1747486238700,2.0908384,-1.3657444,0.20842488,4.3425508,-1.7694043,-8.169513
752,1747486238710,2.431054,-1.2010058,0.20574026,3.1606395,-1.551025,-7.8882833
753,1747486238720,2.554059,-1.1006982,0.2562601,2.7265444,-1.5675366,-7.923437
754,1747486238730,2.6282525,-1.0618931,0.2550398,2.295645,-1.5994946,-7.9921465
755,1747486238740,2.620931,-1.0423685,0.2979939,1.8796592,-1.6160061,-8.00706
756,1747486238750,2.621602125,-1.045480225,0.34283942,1.691240525,-1.60255715,-7.94940265
757,1747486238760,2.62227325,-1.04859195,0.38768494,1.50282185,-1.5891082,-7.8917453
758,1747486238770,2.7473524,-1.0975254,0.7912336,0.7850999,-0.99548966,-7.5175714
759,1747486238780,2.7610197,-1.0662861,1.0284572,0.95234644,-0.69721556,-7.510114
760,1747486238790,2.7083032,-1.0518868,1.2239472,1.5329156,-0.48522797,-7.5234303
761,1747486238800,2.60043,-1.0838583,1.3337729,2.1859226,-0.54168695,-7.519702
762,1747486238810,2.3566167,-1.1365746,1.2315128,2.908172,-0.81013364,-7.4850807
763,1747486238820,2.2997513,-1.1641531,1.0716554,4.1662493,-1.7257284,-7.301855
764,1747486238830,2.2841318,-1.163909,0.8542004,4.530037,-2.2743397,-7.2794847
765,1747486238840,2.220677,-1.1346222,0.60038084,4.6584015,-2.7281423,-7.3039856
766,1747486238850,2.1394057,-1.0924002,0.383658,4.5385594,-2.9971216,-7.329552
767,1747486238860,2.0100555,-1.0450531,0.25552794,4.217382,-3.0013826,-7.3023877
768,1747486238870,1.5783182,-0.9786696,0.20940112,3.2911346,-2.1534321,-6.9828086
769,1747486238880,1.3567142,-1.0240642,0.3109289,2.9955237,-1.7124126,-6.764429
770,1747486238890,1.1307173,-1.0121055,0.44369608,2.8794098,-1.4040185,-6.5609636
771,1747486238900,1.1307173,-1.0121055,0.44369608,2.8794098,-1.4040185,-6.5609636
772,1747486238910,0.624786593,-1.1315715000000002,0.48604004,2.9443909,-1.4780544,-6.3108928
773,1747486238920,-0.31141704,-1.3362135,0.37487194,2.9625003,-1.9909793,-5.7822556
774,1747486238930,-0.5354616,-1.5370725,0.14252943,2.6727486,-2.4016387,-5.475459
775,1747486238940,-0.65334123,-1.6168792,0.02123298,2.1140172,-2.3558323,-5.150021
776,1747486238950,-1.3349931,-2.1642997,-0.55767083,-0.023435818,-0.87138635,-4.427239
777,1747486238960,-1.6486067,-2.6248357,-0.7404697,-1.2170646,-0.17630127,-4.100203
778,1747486238970,-2.0818083,-3.0426617,-0.6867771,-2.3153522,0.3520699,-3.6762276
779,1747486238980,-2.450579,-3.3762882,-0.48665017,-3.128149,0.6737798,-3.2000544
780,1747486238990,-2.6033587,-3.8260856,-0.24918245,-3.7065878,0.763262,-2.8485172
781,1747486239000,-3.150535,-4.47723,0.6133158,-3.4871433,1.0807108,-2.2168152
782,1747486239010,-3.5234544,-4.716894,0.83809257,-2.7569044,1.0807108,-1.7188042
783,1747486239020,-3.9759367,-4.864793,0.8844635,-1.8785939,0.8788432,-1.0018812
784,1747486239030,-4.373262,-4.9738865,0.9193637,-0.69348717,0.6860303,0.38562572
785,1747486239040,-4.246108,-4.8747993,0.5405868,0.27004454,0.66152924,1.717739
786,1747486239050,-3.798995,-4.7093287,0.035144243,1.3310479,1.1765846,4.37078
787,1747486239060,-2.8913462,-4.4525805,-0.44833317,1.1984226,1.663943,5.3971624
788,1747486239070,-1.8911997,-4.0518384,-0.90740484,0.7440872,2.2509038,6.003298
789,1747486239080,-1.1238836,-3.6020408,-1.227852,0.087884314,2.6114957,6.453372
790,1747486239090,-0.10323621,-2.94992,-0.8839754,-0.5230448,1.808819,7.0999875
791,1747486239100,0.139234655,-2.8382638,-0.7660957349999999,-0.4665858,1.4588796,7.270163549999999
792,1747486239110,0.946454,-2.4727879,-0.4339338,-0.06924219,0.3669836,7.7412767
793,1747486239120,1.3218141,-2.3392887,-0.36266908,0.18375812,0.032490566,7.931959
794,1747486239130,1.5692881,-2.250696,-0.35705575,0.2609898,-0.047404267,8.191351
795,1747486239140,2.259238,-2.0212822,-0.36681804,-0.18162759,0.35579833,8.832108
796,1747486239150,2.6736472,-1.8641093,-0.30922052,-0.6380934,0.7840346,9.110674
797,1747486239160,2.9428422,-1.692537,-0.19451363,-1.158475,1.3187973,9.3274555
798,1747486239170,3.200811,-1.5507398,-0.07565775,-1.717739,1.8338528,9.47819
799,1747486239180,4.0096164,-1.2219946,0.50763905,-2.453304,2.2615564,9.060607
800,1747486239190,4.1506815,-0.99160457,0.8912971,-2.3233418,2.1033647,8.256865
801,1747486239200,4.0313377,-0.85590875,1.1331578,-1.9728698,1.8343854,7.56178
802,1747486239210,3.777518,-0.8329674,1.3015573,-1.5020229,1.4737934,6.95884
803,1747486239220,3.4726906,-0.8449261,1.432128,-0.948618,1.0711234,6.4975805
804,1747486239230,3.0263097,-0.9442575,1.4418901,0.087884314,0.4079963,5.93086
805,1747486239240,2.8086107,-0.9176552,1.27886,0.32170987,0.40746364,5.8142133
806,1747486239250,2.6070197,-0.92546505,1.0633575,0.24927188,0.7238472,5.8136806
807,1747486239260,2.4454536,-0.9508471,0.8683557,-0.10546118,1.3171995,5.8546934
808,1747486239270,2.0869334,-0.98525906,0.83028275,-0.7451525,2.1534321,5.9415126
809,1747486239280,1.9817449,-0.99819416,0.93181056,-1.6298546,3.1750207,6.1934476
810,1747486239290,1.978084,-1.010397,1.0118613,-1.8769959,3.3859432,6.267483
811,1747486239300,1.9514818,-0.9830626,1.0201592,-2.0208068,3.3566482,6.2877235
812,1747486239310,1.9136529,-1.00576,0.9886759,-2.1150825,3.1100395,6.3313994
813,1747486239320,1.8916876,-1.0860548,1.0062481,-2.1603563,2.7249465,6.4267406
814,1747486239330,1.8899792,-1.09118,0.99355704,-2.1156151,1.9979035,6.721819
815,1747486239340,1.9109682,-1.0753163,0.96719885,-2.1385183,1.7976338,6.954579
816,1747486239350,1.9849175,-1.0423685,0.9589009,-2.3105586,1.7496969,7.2997246
817,1747486239360,2.1220777,-0.9554841,0.98403883,-2.5209484,1.9835224,7.5463333
818,1747486239370,2.4859672,-0.83443177,1.1141213,-2.9864688,2.8842034,7.6810894
819,1747486239380,2.5774887,-0.7494998,1.2495731,-3.0791469,3.257046,7.5404744
820,1747486239390,2.719774,-0.6548056,1.3779472,-2.9161615,3.2277513,7.3087792
821,1747486239400,2.7773714,-0.57329047,1.3921026,-2.525742,2.7451866,6.9860044
822,1747486239410,2.770294,-0.38829508,1.3650122,-1.9552929,1.8173412,6.6685553
823,1747486239420,2.9094064,-0.3265486,1.091424,-0.7238472,-0.12623383,6.346313
824,1747486239430,3.0553527,-0.26236153,0.7558453,-0.5864281,-0.57790595,6.337791
825,1747486239440,3.193001,-0.011470691,0.48445365,-0.86233157,-0.33182988,6.466155
826,1747486239450,3.3921516,0.28457075,0.08419975,-1.5414376,0.350472,6.581204
827,1747486239460,3.4636605,0.8659151,-0.07565775,-2.5598304,1.0199907,6.450709
828,1747486239470,3.5722659,0.9386441,0.36803833,-4.091681,1.3709954,6.0672135
829,1747486239480,3.8768494,0.9772052,0.9264413,-4.0900826,0.7819041,6.0544305
830,1747486239490,4.74911,1.2595794,1.5565971,-3.4104443,-0.38615838,5.975601
831,1747486239500,5.19146385,1.56806785,1.7819839000000002,-2.80084665,-1.03197494,5.8195397
832,1747486239510,6.314249,2.639723,2.0430033,-0.62317973,-2.5177526,4.9625344
833,1747486239520,6.7622163,3.1440674,1.61590305,0.073503235,-1.61174515,4.1867557
834,1747486239530,7.2641196,4.0855184,0.895446,1.0780476,0.5949502,2.5134914
835,1747486239540,7.3868804,4.260507,0.68214005,1.3038837,1.2522184,1.5334482
836,1747486239550,7.662177,4.221458,0.44955346,1.4221281,1.2378373,0.37230992
837,1747486239560,7.7629733,4.0262127,0.21477039,1.4258565,1.0695255,-0.87990844
838,1747486239570,7.265584,3.4214385,0.32093528,1.4050838,1.28897,-3.3550503
839,1747486239580,6.629815,2.8237424,0.5120321,1.5249261,1.6884441,-4.382498
840,1747486239590,5.8717737,2.1948068,0.7487676,1.9542277,2.2471755,-5.1841097
841,1747486239600,5.1422863,1.5910091,0.8705522,2.4607608,2.4580977,-5.465339
842,1747486239610,4.4452586,0.9876996,0.5047104,3.2170987,1.9462382,-5.65975
843,1747486239620,4.2714896,0.8236932,0.18475133,3.1824775,1.3640711,-5.8078218
844,1747486239630,4.1619086,0.70239675,-0.09127741,2.8320055,0.78776306,-6.0048957
845,1747486239640,4.1018705,0.46419686,-0.111046046,2.241849,0.3270362,-6.2834625
846,1747486239650,3.9539716,0.34192422,0.16351835,1.1536814,-0.11345066,-6.945524
847,1747486239660,3.7799585,0.17962612,0.5215503,0.9155948,-0.13315806,-7.1575117
848,1747486239670,3.6518285,0.011958805,0.8788501,1.0178602,-0.010120012,-7.3519225
849,1747486239680,3.4795241,-0.16644704,1.1758678,1.3805827,0.13315806,-7.4808197
850,1747486239690,3.1261294,-0.42465958,1.3537855,1.8855181,0.2263687,-7.6065207
851,1747486239700,2.9777424,-0.56596875,1.2978964,2.910835,0.23276028,-7.8696413
852,1747486239710,2.804462,-0.67042524,1.2595794,3.3518546,0.08468852,-8.047008
853,1747486239720,2.7346615,-0.7248500200000001,1.2261436,3.752394,-0.08468852,-8.211591
854,1747486239730,2.5391717,-0.9130182,1.0809295,4.085289,-0.330232,-8.348477
855,1747486239740,2.3307467,-1.138283,0.8546885,4.503938,-1.1611383,-8.638762
856,1747486239750,2.2236056,-1.2327331,0.7153318,4.486361,-1.6186694,-8.701612
857,1747486239760,2.2028608,-1.2861817,0.6382097,4.3137884,-1.8125474,-8.707472
858,1747486239770,2.1369653,-1.2808125,0.5618198,4.0416136,-1.80296,-8.648882
859,1747486239780,2.0908384,-1.261776,0.5086153,3.671434,-1.6655409,-8.481636
860,1747486239790,2.0342171,-1.1741594,0.5547421,2.9300098,-1.1132014,-8.048073
861,1747486239800,2.029824,-1.1324255,0.59110665,2.6168222,-0.9054748,-7.81478
862,1747486239810,2.0627718,-1.103871,0.6962953,2.373942,-0.8293084,-7.594803
863,1747486239820,2.0559382,-1.0697029,0.8429737,2.2658174,-0.8165252,-7.41211
864,1747486239830,2.0159128,-1.0411482,0.9957536,2.3068302,-0.86872315,-7.199057
865,1747486239840,1.8157859,-0.9928249,1.1419438,2.5790052,-1.0887003,-6.703709
866,1747486239850,1.7889396,-0.9809881,1.1445064,2.6474485000000003,-1.17978045,-6.5521752
867,1747486239860,1.79016,-0.9584128,1.1129011,2.8218856,-1.4823155,-6.1092916
868,1747486239870,1.8484896,-0.9693954,1.0457853,2.8868666,-1.6666062,-5.830725
869,1747486239880,2.1664963,-0.9445015,0.8978866,2.8788772,-1.7614148,-5.6038237
870,1747486239890,2.2057896,-0.8766537,0.82149667,2.7638285,-1.4764565,-5.6735983
871,1747486239900,2.1067023,-0.8454143,0.81149036,2.711098,-1.107875,-5.815811
872,1747486239910,1.9507496,-0.8495633,0.8583493,2.769155,-0.79255676,-5.8994346
873,1747486239920,1.7228,-0.87616557,0.895446,2.9577067,-0.74035877,-5.839247
874,1747486239930,1.4555575,-1.0072243,0.8073414,3.3726273,-1.226652,-5.4733286
875,1747486239940,1.3384099,-1.0431006,0.7326599,3.5281558,-1.5270566,-5.2389708
876,1747486239950,1.262142,-1.03602295,0.6832382800000001,3.56117905,-1.6261262,-5.1132696
877,1747486239960,1.0513986,-0.9859913,0.5195979,3.558516,-1.7587516,-4.743623
878,1747486239970,0.96256185,-0.98062205,0.45419052,3.4535873,-1.6186694,-4.517254
879,1747486239980,0.63503695,-1.0865428,0.46956614,3.3188314,-1.0833739,-4.282363
880,1747486239990,0.27456442,-1.1744035,0.44101146,3.3380063,-0.89322424,-4.1966095
881,1747486240000,0.27456442,-1.1744035,0.44101146,3.3380063,-0.89322424,-4.1966095
882,1747486240010,-0.47493544,-1.5324354,0.26187342,3.32735345,-1.03836652,-4.103132499999999
883,1747486240020,-0.72875497,-1.62676355,0.219285435,3.3638388,-1.30681315,-3.9196406
884,1747486240030,-0.6577343,-1.8170061,-0.39708114,3.6314864,-1.9851203,-2.9566414
885,1747486240040,-0.5771954,-1.884488,-0.66188327,3.3182987,-2.1108215,-2.9979205
886,1747486240050,-0.71826047,-1.9387908,-1.1953924,2.0543625,-2.1177456,-3.2751555
887,1747486240060,-1.1539028,-2.0405626,-1.3801438,0.8836369,-1.7422401,-3.3886063
888,1747486240070,-2.2443504,-2.690243,-1.6112659,-2.1411815,-0.28122982,-3.1270838
889,1747486240080,-2.8210578,-3.1581008,-1.496803,-3.397661,0.24341293,-2.6477149
890,1747486240090,-3.3177145,-3.4846492,-1.11705,-4.206197,0.6668556,-1.9307919
891,1747486240100,-3.611071,-3.6371849,-0.8534682,-4.65201,0.90707266,-1.0274476
892,1747486240110,-3.4268076,-3.8514676,-0.7809832,-4.9785132,0.94595486,-0.3158509
893,1747486240120,-3.171524,-4.041832,-0.5959878,-5.449893,0.850081,0.35473305
894,1747486240130,-3.14663,-4.110412,-0.30555966,-5.4866447,0.5773733,0.6641924
895,1747486240140,-3.1197836,-4.104555,0.029774986,-5.20648,0.33076462,1.0487529
896,1747486240150,-3.1644461,-4.0607465000000005,0.189754513,-4.834702699999999,0.22077606,1.4474281
897,1747486240160,-3.2083766,-3.8565927,0.55767083,-3.6682382,0.022903185,2.766492
898,1747486240170,-2.5635774,-3.4687858,0.3939084,-2.2801986,0.05006743,4.704208
899,1747486240180,-2.0815644,-3.252795,0.2208718,-1.8716697,0.15925704,5.529788
900,1747486240190,-1.5585496,-3.048763,0.09786696,-1.6213325,0.32170987,6.2792015
901,1747486240200,-0.89715445,-2.8283794,0.00073217176,-1.5350461000000002,0.3779025649999999,6.6051724
902,1747486240210,-0.16742326,-2.6487532,-0.08590815,-1.3523532,0.44687843,7.4403396
903,1747486240220,1.2205303,-2.238493,-0.37145513,-1.4636734,0.33449304,7.781757
904,1747486240230,1.6144388,-2.079856,-0.4698102,-1.7928401,0.2759035,7.809454
905,1747486240240,1.862889,-1.9063311,-0.45687518,-2.0559604,0.19014971,7.8877506
906,1747486240250,2.0185976,-1.8016307,-0.38853914,-2.269546,0.13369069,8.044877
907,1747486240260,2.09547555,-1.7923564,-0.36340125,-2.3678165,0.131293845,8.1229075
908,1747486240270,2.4022555,-1.7574562,-0.16571487,-2.7643614,-0.05965481,8.405469
909,1747486240280,2.536975,-1.7974815,0.03465613,-2.8149614,-0.26844665,8.46832
910,1747486240290,2.6563191,-1.8165181,0.33777523,-2.6482475,-0.61891866,8.435829
911,1747486240300,2.67511155,-1.79382075,0.4846977,-2.4346620000000003,-0.8431568300000001,8.384164
912,1747486240310,2.693904,-1.7711234,0.63162017,-2.2210765,-1.067395,8.332499
913,1747486240320,2.946747,-1.7213358,0.73583263,-1.17898143,-1.84983175,8.10107015
914,1747486240330,3.056817,-1.7020552,0.65675807,-0.56459016,-2.2019017,7.8174434
915,1747486240340,3.1451657,-1.6637384,0.5532778,-0.61412495,-2.0048277,7.6709695
916,1747486240350,3.2039835,-1.6215163,0.48445365,-0.84635264,-1.6490294,7.5463333
917,1747486240360,3.1744528,-1.5888127,0.5027579,-1.1883025,-1.1872373,7.4579163
918,1747486240370,2.984332,-1.5568411,0.6960513,-1.7433053,-0.21038973,7.3668365
919,1747486240380,2.8635237,-1.5380487,0.81246656,-1.8674086,0.12676647,7.355651
920,1747486240390,2.76224,-1.4841121,0.98330665,-1.8700718,0.36432046,7.319965
921,1747486240400,2.673159,-1.48301385,1.003319375,-1.7483653,0.4295679049999999,7.27655535
922,1747486240410,2.518915,-1.4680043,1.052863,-1.4524881,0.41278997,7.2395372
923,1747486240420,2.5359988,-1.441158,0.9752528,-1.3102753,0.24181503,7.2406025
924,1747486240430,2.625812,-1.4082103,0.9005712,-1.2389026,0.04314321,7.21983
925,1747486240440,2.7600435,-1.31559055,0.8809246,-1.20721095,-0.092944325,7.147392
926,1747486240450,2.9434524,-1.16769185,0.8732367999999999,-1.1755193,-0.22903186,7.074954
927,1747486240460,3.0497394,-1.0006347,0.8917852,-1.1366372,-0.07829694,6.921556
928,1747486240470,3.0904968,-0.87274873,0.8922733,-1.1611383,0.21731395,6.767092
929,1747486240480,3.1439455,-0.67530644,0.8751893,-1.1824435,0.49002165,6.5412564
930,1747486240490,3.107337,-0.32069123,0.7670719,-1.2942963,1.0135992,5.844041
931,1747486240500,2.9645634,-0.08175918,0.70264083,-1.3784522,1.1611383,5.475459
932,1747486240510,2.766877,0.12422514,0.7055695,-1.4375744,1.1313108,5.1590757
933,1747486240520,2.58359,0.2889638,0.6811638,-1.4753913,1.0210559,4.915663
934,1747486240530,2.4579005,0.34192422,0.46785772,-1.617604,0.92997587,4.715393
935,1747486240540,2.1213458,0.353883,0.5132524,-2.3595607,0.9054748,4.6456184
936,1747486240550,2.1734519,0.369258615,0.54876272,-2.5635589,1.0796455,4.7915597000000005
937,1747486240560,2.3198862,0.397935345,0.61417007,-2.8743498,1.41413855,5.05334835
938,1747486240570,2.5372192,0.46700353,0.6560258800000001,-3.0607711,1.5843146,5.26214005
939,1747486240580,3.0023923,0.7497439,0.6655441,-3.289004,1.25861,5.438708
940,1747486240590,4.1848493,1.4033291,0.83882475,-3.320962,-0.14487597,5.0291133
941,1747486240600,4.5848594,1.7713674,1.0577441,-3.0567763,-0.984837,4.7260456
942,1747486240610,4.9170213,2.1970034,1.2000295,-2.672216,-1.6612799,4.4512076
943,1747486240620,5.287744,2.7361257,1.2188219,-2.3339944,-2.0096214,4.107127
944,1747486240630,6.1927085,3.3550549,0.8009959,-2.5102956,-1.109473,2.8149614
945,1747486240640,6.398937,3.377752,0.6731099,-2.9838057,-0.30040458,2.0602214
946,1747486240650,6.37868,3.4282722,0.77951884,-3.4376085,0.34461305,1.5600798
947,1747486240660,6.418217,3.4363263,0.9808661,-3.7715688,0.773382,1.186172
948,1747486240670,6.7198725,3.285743,1.4780107,-3.807788,1.135572,0.5368933
949,1747486240680,6.814079,2.5191588,2.924782,-2.3190808,2.2423816,-1.6522251
950,1747486240690,6.2908196,1.9873582,3.5268714,-0.69508505,2.6296053,-2.6977823
951,1747486240700,5.6216145,1.4050376,3.7877684,1.3630059,2.7553065,-3.4679685
952,1747486240710,5.076635,0.8437059,3.6349888,3.9936764,2.3979104,-4.1108556
953,1747486240720,4.156051,-0.26529023,2.072534,6.379869,1.0279802,-4.7036753
954,1747486240730,3.7655594,-0.5537659,1.3857571,6.4698834,0.3073288,-4.8485513
955,1747486240740,3.4743989,-0.6228341,1.0728757,6.2381887,-0.0314253,-4.9438925
956,1747486240750,3.3743355,-0.6496804,1.0599406,5.974003,-0.022370555,-5.1004863
957,1747486240760,3.270855,-0.630888,1.1917315,5.8376493,0.043675844,-5.3779874
958,1747486240770,2.8425348,-0.7658516,1.4414021,5.86215,0.0628506,-5.704491
959,1747486240780,2.5972571,-0.8573731,1.5190123,6.0198092,-0.010652645,-6.1907845
960,1747486240790,2.4049401,-0.95597225,1.7176749,6.125271,-0.034621093,-6.4192834
961,1747486240800,2.2463028,-1.0391958,1.833358,6.2254057,0.08628642,-6.547648
962,1747486240810,2.1242743,-1.1687901,2.0020018,6.369216,0.21358553,-6.6957197
963,1747486240820,1.8472692,-1.4113832,2.4832826,7.0685625,0.051665325,-7.0637684
964,1747486240830,1.7501346,-1.5849078,2.634842,7.5228977,-0.29561087,-7.203318
965,1747486240840,1.769171,-1.654708,2.5984776,7.9010663,-0.6918893,-7.338607
966,1747486240850,1.930981,-1.744277,2.3175676,7.9990706,-0.98590225,-7.544203
967,1747486240860,2.2731493,-1.6852154,1.363792,6.628608,-0.49534798,-8.31066
968,1747486240870,2.2135992,-1.5888127,1.0628693,5.613411,-0.08681905,-8.44595
969,1747486240880,2.058867,-1.4997318,0.8949579,4.675978,0.350472,-8.398012
970,1747486240890,1.952214,-1.4318839,0.72826684,3.882889,0.82557994,-8.233429
971,1747486240900,1.8694785,-1.4318839,0.5095915,3.1627703,1.1744541,-8.014517
972,1747486240910,1.7552598,-1.4296874,0.31483385,2.505502,1.4199976,-7.7418094
973,1747486240920,1.5719727,-1.4270028,0.2894519,1.6506273,1.6729978,-7.0589747
974,1747486240930,1.6227367,-1.461903,0.46492904,1.5712651,1.5787219,-6.744722
975,1747486240940,1.6896083,-1.4907017,0.8122225,1.8940402,1.2341089,-6.5455174
976,1747486240950,1.7476939,-1.5280424,1.1063116,2.8644962,0.7824367,-6.369216
977,1747486240960,1.8094405,-1.6058967,1.2998489,3.9318912,0.27164245,-6.343117
978,1747486240970,1.9976085,-1.8357986,1.1673259,6.652044,-0.99708754,-6.7804084
979,1747486240980,1.8775325,-2.1008449,0.7807391,7.997473,-1.6548884,-6.9897327
980,1747486240990,1.6683753,-2.3512475,0.28359452,9.237441,-2.5102956,-7.1111727
981,1747486241000,1.52621195,-2.4344711,-0.1201981749999999,9.589511,-3.04452575,-7.158310650000001
982,1747486241010,1.22126245,-2.54966605,-0.855664685,9.9972405,-4.1808964500000005,-7.2134383
983,1747486241020,0.54034275,-2.3856597,-2.2702205,8.485364,-6.778278,-6.8507156
984,1747486241030,0.34241232,-2.0644803,-2.5928643,6.418751,-7.128217,-6.3878584
985,1747486241040,0.35656762,-1.7916242,-2.4625378,4.5438857,-6.7132964,-5.921805
986,1747486241050,0.49226347,-1.6212723,-2.1496563,2.7601001,-5.6650763,-5.5143414
987,1747486241060,0.50666285,-1.5456146,-1.6058967,1.2538162,-4.184891,-5.140434
988,1747486241070,0.18792409,-1.5204766,-0.013911263,0.07084008,-1.7065537,-4.339355
989,1747486241080,0.025381953,-1.5831994,0.6113634,0.4511395,-1.4269217,-3.9361522
990,1747486241090,-0.12202863,-1.5980868,1.018451,1.2436962,-1.7502295,-3.6527917
991,1747486241100,-0.268096885,-1.67606315,1.16110245,2.4386567,-2.7731497000000003,-3.46690305
992,1747486241110,-0.7575537,-1.8074881,1.2305366,4.535363,-4.5177865,-3.1329427
993,1747486241120,-1.1316935,-1.9029144,0.94303715,5.0184608,-4.884238,-2.8868666
994,1747486241130,-1.4841121,-2.0305562,0.60599416,4.9598713,-4.777711,-2.4825988
995,1747486241140,-1.6252992,-2.15746595,0.4190462949999999,4.433897,-4.0288301,-2.0793962
996,1747486241150,-2.1389177,-2.3114662,0.079562664,3.9079227,-3.2799492,-1.6761936
997,1747486241160,-2.2561872000000003,-2.3483188,-0.080416868,3.22428915,-2.29378065,-1.1720572
998,1747486241170,-2.6536345,-2.4957294,-0.53082454,1.8775285,-0.6540724,0.099069595
999,1747486241180,-2.753698,-2.5054917,-0.77903074,1.2330436,-0.17949706,1.0327739
1000,1747486241190,-2.1257386,-2.4022555,-1.3376778,-0.31158987,0.99282646,2.610963
1001,1747486241200,-2.1257386,-2.4022555,-1.3376778,-0.31158987,0.99282646,2.610963
