id,timestamp,acc_x,acc_y,acc_z,gyro_x,gyro_y,gyro_z
1,1747486247500,-0.28871974,0.39708114,0.77561396,-0.10652645,0.23382555,0.0015978967
2,1747486247510,0.21330604,-2.2062776,0.4195344,-1.4226607,1.3422332,5.9404473
3,1747486247520,0.6515108199999999,-1.97271475,0.50361212,-0.576041765,0.92970955,6.15749485
4,1747486247530,0.80465674,-1.9121885,0.5181335,-0.30466563,0.8149273,6.2568307
5,1747486247540,0.99660777,-1.85751975,0.533387085,-0.064714815,0.732635625,6.36229185
6,1747486247550,1.5331676,-1.6622739,0.58036816,0.6695187,0.6066681,6.6887956
7,1747486247560,2.1437988,-1.4043053,0.5430274,1.0865698,0.8474179,6.8608356
8,1747486247570,2.4868214,-1.2149169,0.44662477,1.0335728,1.04236125,6.75058115
9,1747486247580,2.5879831,-1.151218,0.41416514,0.9720538,1.1062771,6.6749473
10,1747486247590,2.672427,-1.0077124,0.38927132,0.76965356,1.2479573,6.457633
11,1747486247600,2.6716948,-0.85444444,0.43246946,0.54435015,1.4088123,6.2270036
12,1747486247610,2.5318499,-0.7585299,0.53887844,0.33502567,1.6096146,6.0011673
13,1747486247620,2.3516137,-0.899961115,0.5779275500000001,-0.18482339,2.20243415,5.5700013
14,1747486247630,2.1549035,-0.996363735,0.82479145,-0.2876214099999999,2.3651534,5.51780335
15,1747486247640,2.042271,-1.0384636,1.0555476,-0.2727077,2.3936493,5.5138087
16,1747486247650,1.943794,-1.05640185,1.06616405,0.54195328,2.27141025,5.8232680000000006
17,1747486247660,1.930981,-1.0606729,1.0296775,0.69721556,2.245045,5.914348
18,1747486247670,1.9602679,-0.9623177,0.85175985,0.86392945,2.247708,6.110357
19,1747486247680,2.054962,-0.82247293,0.60697037,0.7717841,2.3078954,6.277071
20,1747486247690,2.3646708,-0.6025773,0.1564407,-0.20133498,2.6695528,6.2760057
21,1747486247700,2.3863916,-0.51618105,0.08322352,-0.93423694,2.9172268,6.175871
22,1747486247710,2.3585694,-0.44906533,0.16595893,-1.8120148,3.0945933,6.075736
23,1747486247720,2.3178117,-0.43246946,0.2818861,-2.4000409,3.165966,6.0134177
24,1747486247730,2.2653394,-0.45467865,0.46785772,-2.838397,3.235208,5.983058
25,1747486247740,2.2175043,-0.54034275,0.8581053,-3.1627703,3.2975261,6.0778666
26,1747486247750,2.2314155,-0.5874458,0.99502134,-3.1270838,3.2053807,6.1343255
27,1747486247760,2.25362465,-0.5878118999999999,1.07458402,-3.0506511,3.08660375,6.15110325
28,1747486247770,2.3356278,-0.5649925,1.2925272,-2.6839337,2.576342,6.165218
29,1747486247780,2.4037197,-0.47078642,1.2332213,-2.122007,1.6841831,6.273875
30,1747486247790,2.4037197,-0.47078642,1.2332213,-2.122007,1.6841831,6.273875
31,1747486247800,2.6280084,-0.311173,1.0130817,-2.343582,1.6607473,6.4006414
32,1747486247810,2.69317165,-0.2792015,1.01479005,-2.47168,1.84077705,6.391054199999999
33,1747486247820,2.8491244,-0.18597162,1.0623811,-2.8314729,2.5885925,6.2818646
34,1747486247830,2.738078,0.042465962,1.2888663,-2.928412,3.538276,6.0570936
35,1747486247840,2.7680972,0.14985114,1.2261436,-2.8884647,3.7199035,5.8983693
36,1747486247850,2.7261195,0.25943285,1.082638,-2.9342709,3.7822216,5.707687
37,1747486247860,2.7007375,0.3392396,0.98477095,-3.0679617,3.6240296,5.583584
38,1747486247870,2.7146487,0.4170938,0.88055855,-3.4157704,2.4695493,5.4943675
39,1747486247880,2.954557,0.780251,0.8463905,-3.5244274,1.8881812,5.477057
40,1747486247890,3.1429693,0.9874556,0.74852357,-3.5963328,1.6879115,5.492769750000001
41,1747486247900,3.3313816,1.1946602,0.65065664,-3.933489,1.335309,5.513276
42,1747486247910,3.725778,1.415532,0.6657882,-4.243481,1.1877699,5.4099455
43,1747486247920,4.353493,2.216528,1.3449996,-4.0858216,0.48629323,5.109541
44,1747486247930,4.7522826,2.5691907,1.6141946,-3.562777,0.21731395,5.1681304
45,1747486247940,5.3577886,2.954801,1.7542835,-2.3537019,-0.04607268835,4.7809069
46,1747486247950,6.010397899999999,3.62290765,1.90974805,-1.3262543,-0.0026631599999999,4.2663841
47,1747486247960,6.1277895,3.8321867,1.9697862,-0.8229168,0.08042747,4.0149817
48,1747486247970,6.662275,4.54581,1.9492851,1.6793894,0.2657835,2.602441
49,1747486247980,6.933911,4.621712,1.6837509,2.9800773,-0.18375812,1.5233282
50,1747486247990,7.107923,4.4982195,1.1531705,4.0757017,-0.8186557,0.2593919
51,1747486248000,7.079857,4.222678,0.59672,4.807006,-1.4604776,-1.1808456
52,1747486248010,5.787085,3.504906,-0.8217408,3.950799500000001,-1.65142625,-3.36197475
53,1747486248020,5.025627,3.031435,-1.415532,2.958772,-1.459945,-4.143879
54,1747486248030,4.382048,2.5889592,-1.7213358,0.6870956,-0.62264705,-4.5438857
55,1747486248040,3.9627575,2.0533756,-1.3618394500000002,-1.7829863499999998,0.291882476,-4.94043
56,1747486248050,3.5921565,1.4974132,-0.54449172,-3.0703584,1.01413177,-5.32365885
57,1747486248060,3.201909,0.96585658,0.38207163,-3.5622443,1.54197025,-5.63258585
58,1747486248070,3.060966,0.80343646,0.6879974,-3.4738274,1.6293219,-5.699165
59,1747486248080,2.8701131,0.5632841,1.1348661,-2.9358687,1.5393071,-5.7923756
60,1747486248090,2.6963444,0.35168648,1.4550693,-2.149171,1.25861,-5.871205
61,1747486248100,2.35551845,0.1099477849999999,1.67240235,-0.25406553,0.4343615915,-5.948703
62,1747486248110,2.1938305,0.02831064,1.7301219,0.74728304,-0.039947417,-5.977199
63,1747486248120,2.09547555,-0.0602821405,1.60894735,1.5584819,-0.386691,-6.0150156
64,1747486248130,2.0786357,-0.09493827,1.5504957,2.2498386,-0.6498113,-6.095976
65,1747486248140,2.0281157,-0.16229807,1.4123594,2.7968519,-0.8447547,-6.223808
66,1747486248150,2.0131062,-0.41392109,1.002099085,3.37795355,-1.156877185,-6.5745461
67,1747486248160,2.0127401,-0.47225076,0.92156017,3.5505264,-1.3161342,-6.7686906
68,1747486248170,1.87814245,-0.69409882,0.7846440299999999,3.5276232,-1.3928332,-6.9247518
69,1747486248180,1.820667,-0.76194674,0.75364876,3.439739,-1.3305153,-6.9700255
70,1747486248190,1.7918682,-0.8715284,0.694831,3.251187,-1.2618058,-7.005179
71,1747486248200,1.55269215,-0.9102115,0.736564785,3.02694905,-1.47911965,-6.86296605
72,1747486248210,1.4372531,-0.8973985,0.77610207,2.9422605,-1.6516925,-6.7116985
73,1747486248220,1.3901501,-0.78757274,0.78537625,2.863431,-1.8503643,-6.433132
74,1747486248230,1.5541565,-0.65260905,0.78513217,2.7340012,-2.0208068,-6.1582937
75,1747486248240,1.7952851,-0.53814626,0.77170897,2.5374599,-2.1054952,-5.9601545
76,1747486248250,2.089374,-0.42929673,0.7748818,2.148372,-2.09324455,-6.0195430000000005
77,1747486248260,2.5516186,-0.33484653,1.0023432,2.010154,-2.0948424,-6.151902
78,1747486248270,2.6265441000000003,-0.39207798,1.12083285,2.049569,-2.0021646,-6.3990436
79,1747486248280,2.6338658,-0.42929673,1.1395032,2.120409,-1.8562233,-6.5396585
80,1747486248290,2.5999417,-0.49079913,1.1146095,2.1917815,-1.6319852,-6.6381955
81,1747486248300,2.37772775,-0.62124775,0.920095775,2.2032332500000003,-1.2836437,-6.677876449999999
82,1747486248310,2.229219,-0.6794554,0.81417495,2.1875205,-1.1797804,-6.6584353
83,1747486248320,2.1560016,-0.694831,0.75169635,1.9920446,-0.9800433,-6.433132
84,1747486248330,2.02982415,-0.7186266,0.676160605,1.8234664,-1.1856393,-6.287989700000001
85,1747486248340,1.9485531,-0.7304634,0.64235866,1.7491642,-1.3560816,-6.2136874
86,1747486248350,1.9485531,-0.7304634,0.64235866,1.7491642,-1.3560816,-6.2136874
87,1747486248360,1.9207305,-0.77781045,0.6321083,1.6740631,-1.6761936,-6.084258
88,1747486248370,1.8811932,-0.80368054,0.68604493,1.7012273,-1.68152,-5.999037
89,1747486248380,1.7889396,-0.8112463,0.7812273,1.8354506,-1.6000272,-5.8807926
90,1747486248390,1.6137065,-0.844194,0.9586569,2.4847293,-1.0626013,-5.6432385
91,1747486248400,1.3036318,-0.91082165,0.95292155,3.0738206,-0.819721,-5.716209
92,1747486248410,1.1336459,-0.9359596,0.899595,3.7518613,-0.8186557,-5.82167
93,1747486248420,0.7336361,-1.0889834,0.60843474,4.2418833,-1.1382351,-5.7561564
94,1747486248430,0.3265486,-1.1885588,0.26065314,4.414456,-1.8141453,-5.324724
95,1747486248440,0.2238005,-0.98111016,-0.2042759,3.9137816,-2.9017804,-4.7622647
96,1747486248450,0.27895743,-0.89007676,-0.3482697,3.3843453,-3.0637007,-4.8480186
97,1747486248460,0.1889003,-0.8932495,-0.38146147,2.7643614,-2.843191,-4.968926
98,1747486248470,0.06662763,-0.96768695,-0.4751795,2.1150825,-2.2322617,-5.0722566
99,1747486248480,-0.72729063,-1.5490314,-0.9898962,1.2511531,-1.4796523,-5.187838
100,1747486248490,-0.949138665,-1.7084008000000002,-1.08337015,0.036219,-0.7914914749999999,-4.996623
101,1747486248500,-1.4767904,-2.3095136,-1.1997855,-2.5933864,0.376571,-4.4512076
102,1747486248510,-1.6794799,-2.9107488,-0.463098605,-3.9824913,0.8857674,-4.217382
103,1747486248520,-1.7274371,-3.0677996,-0.15253578,-4.36066,1.1116035,-4.308995
104,1747486248530,-2.6206868,-3.7050328,0.7902574,-3.2650356,0.7781757,-4.4336305
105,1747486248540,-3.2806172,-3.9356673,0.9401085,-2.1992385,0.3392867,-3.9185753
106,1747486248550,-3.4975843,-4.06465165,0.8206424800000001,-1.7494306,0.09827063,-3.531618
107,1747486248560,-3.901987,-4.281252,0.35119838,-0.8926916,-0.37017938,-2.253567
108,1747486248570,-3.8639145,-4.396447,0.06321083,-0.9709886,-0.11504856,-1.4413028
109,1747486248580,-4.220482,-4.5506916,0.10592084,-1.5089471,0.94755274,0.29188246
110,1747486248590,-4.2370777,-4.519208,0.3226437,-1.4024206,1.4365091,1.8780613
111,1747486248600,-4.018891,-4.3210335,0.38390204,-1.1456919,1.6293219,3.3300166
112,1747486248610,-3.4211946,-4.0725837,0.28798756,-0.94542223,1.8514296,4.770787
113,1747486248620,-1.2578712,-3.3755558,-0.10884953,-0.9720538,2.269546,5.945241
114,1747486248630,-0.013179091,-2.9355206,-0.18450728,-1.5014902,2.8969867,6.7756147
115,1747486248640,0.7314396,-2.5567439,-0.11006982,-1.6564863,2.744654,6.6680226
116,1747486248650,1.1478013,-2.200664,0.073949344,-1.5441009,2.202967,6.512494
117,1747486248660,1.49326425,-1.80016635,0.2383218999999999,-1.1893678,1.4828482,6.50557
118,1747486248670,1.6447018,-1.6207842,0.27993366,-0.12623383,0.30999196,7.2059813
119,1747486248680,1.9063311,-1.4196811,0.17767367,0.12783173,0.3392867,7.680557
120,1747486248690,2.358081,-1.2905748,-0.0034168016,0.056991648,0.58962387,8.037953
121,1747486248700,2.9659057,-1.11033845,-0.077000065,-0.49481535,0.8439558,8.071508999999999
122,1747486248710,3.1153908,-1.0545714,-0.07541369,-0.7302388,0.8900285,8.016115
123,1747486248720,3.2512087,-0.9121639,0.3923219999999999,-2.04584035,1.1587413999999998,7.495200499999999
124,1747486248730,3.269147,-0.8959341,0.52033,-2.2546322,1.2713932,7.356716
125,1747486248740,3.4087477,-0.8617661,0.76926845,-2.499643,1.520665,6.9018483
126,1747486248750,3.3355303,-0.780251,0.9684192,-2.31828175,1.7347832,5.93938175
127,1747486248760,2.4326406,-0.811612395,1.40393925,-1.8820559,1.7134779,5.7646785000000005
128,1747486248770,2.318544,-0.82711005,1.4492118,-1.6772588,1.7070863,5.816344
129,1747486248780,2.2187245,-0.82125264,1.3716017,-1.3134711,1.7587516,5.9441757
130,1747486248790,2.272295,-0.933763,1.1294969,-1.1307782,1.8189391,6.025136
131,1747486248800,2.3933475,-1.07250955,0.92973603,-1.3182648,1.9291939,6.198774
132,1747486248810,2.50732225,-1.20515465,0.7626788600000001,-1.6698021,2.08099405,6.363091
133,1747486248820,2.5298975,-1.2476206,0.72094506,-2.0074909,2.26528475,6.53193535
134,1747486248830,2.574072,-1.2634844,0.73339206,-2.18539,2.3670175,6.6307387
135,1747486248840,2.5596724,-1.2129645,0.76463133,-2.320146,2.5523736,6.760168
136,1747486248850,2.5215995,-1.1814811,0.77195305,-2.3494408,2.6519759,6.8933263
137,1747486248860,2.4727879,-1.150974,0.77634615,-2.3174827,2.6413233,7.0701604
138,1747486248870,2.67877235,-1.026016635,0.68921765,-2.4130903000000004,2.347044,7.68907885
139,1747486248880,2.775419,-0.99965847,0.6718896,-2.495382,2.2722092,7.8019967
140,1747486248890,3.014595,-0.95060295,0.6811638,-2.7217507,2.1161478,7.923437
141,1747486248900,3.232294,-0.85908157,0.72533816,-2.9379995,2.0197413,7.9127846
142,1747486248910,3.440109,-0.425147725,0.872748765,-3.22588705,1.8524949,7.5990639
143,1747486248920,3.49062885,-0.1791380149999999,0.8465125849999999,-3.158509,1.77952425,7.35804765
144,1747486248930,3.5002692,-0.04905551,0.80416864,-3.1111047,1.7571537,7.21184
145,1747486248940,3.3444386,0.2458876749999999,0.53338711,-3.2413335,1.6895094,6.73646625
146,1747486248950,3.2881835,0.30800024,0.44516042,-3.3422673,1.6516925,6.578541
147,1747486248960,2.715381,0.69214636,0.5188657,-3.829093,1.587244,6.213155
148,1747486248970,2.6053112,0.8927614,0.6621273,-3.9153795,1.5584819,6.2776036
149,1747486248980,2.7461321,0.99550945,0.73558855,-3.9798281,1.4295849,6.263222
150,1747486248990,2.920145,1.125592,0.626739,-4.225904,1.4887071,6.176936
151,1747486249000,3.1729882,1.2956998,0.5469323,-4.5944858,1.6106799,6.048039
152,1747486249010,3.8085134,1.7606289,1.0496902,-4.32976735,0.402936285,5.476791
153,1747486249020,4.41524,2.0908384,1.3213259,-4.0442767,-0.08522116,5.293832
154,1747486249030,4.889687,2.618246,1.5021724,-3.1313448,-1.391768,4.820854
155,1747486249040,5.12325,3.3250358,1.3740423,-2.231729,-2.5992453,4.4176517
156,1747486249050,5.3538837,3.926149,1.1646413,-1.5084145,-3.2170987,4.201936
157,1747486249060,6.32498765,4.736785,0.5906185965,-1.67832415,-2.31881445,3.101784
158,1747486249070,7.2960916,5.547421,0.016595893,-1.8482338,-1.4205302,2.001632
159,1747486249080,7.69903,5.4549236,-0.1244692,-2.664759,-0.17257284,0.49854377
160,1747486249090,6.98284435,3.67769865,0.89263945,-3.8365499,2.3169501500000003,-2.881274
161,1747486249100,6.6822877,3.2213116,1.21028,-3.7758298,2.56782,-3.470099
162,1747486249110,5.7258267,2.3470986,1.9685657,-3.073288,2.7196202,-4.230165
163,1747486249120,4.946308,1.7518429,2.3729687,-1.943575,2.525742,-4.5667887
164,1747486249130,4.2644124,1.1526824,2.0927908,0.283893,1.478587,-4.679174
165,1747486249140,4.2644124,1.1526824,2.0927908,0.283893,1.478587,-4.679174
166,1747486249150,4.0740476,0.73778504,1.1263242,0.87831056,0.6743124,-5.2608085
167,1747486249160,3.837068,0.63015586,0.8639627,0.5864281,0.7653925,-5.414739
168,1747486249170,3.6794071,0.53131264,0.76463133,0.01757687,1.3440974,-5.5641425
169,1747486249180,3.5410266,0.439059,0.75438094,-0.1555286,1.5717977,-5.617672
170,1747486249190,3.2298536,0.2550398,0.9459658,-0.41225734,2.1587584,-5.856824
171,1747486249200,3.0770738,0.15448824,1.0638455,-0.25992453,2.2136195,-5.979862
172,1747486249210,2.927955,0.060038086,1.1236396,0.015446335,2.1928468,-6.0805297
173,1747486249220,2.8025093,-0.056377225,1.1321816,0.34194988,2.1619542,-6.1822624
174,1747486249230,2.5308735,-0.24356914,1.3010693,1.3752564,1.9510318,-6.4890585
175,1747486249240,2.4322746,-0.319715,1.3103434,1.9616845,1.8439728,-6.6280756
176,1747486249250,2.3614979,-0.40147418,1.2844733,2.5390577,1.7251958,-6.789463
177,1747486249260,2.34294965,-0.45223809,1.2762973999999998,2.8168255,1.68791155,-6.874417749999999
178,1747486249270,2.4989022,-0.81722567,1.1733053,4.009389,1.48897345,-7.36151
179,1747486249280,2.609216,-0.97793734,1.1153417,4.412858,1.3843112,-7.61238
180,1747486249290,2.5375852,-1.1742814,0.97805945,4.7721187,1.12358765,-7.92956225
181,1747486249300,2.489628,-1.2341975,0.9183875,4.8426924,1.0306433,-7.99694
182,1747486249310,2.44106055,-1.3193735,0.77219713,4.808071,0.7595336,-8.014517
183,1747486249320,2.45899875,-1.32730535,0.758285885,4.4517403,0.32810146,-7.9271655
184,1747486249330,2.460097,-1.3266952,0.77610207,4.2248387,0.1784318,-7.906925
185,1747486249340,2.446918,-1.3452435,0.8346757,4.005927,0.10279802,-7.870174
186,1747486249350,2.3433156,-1.3296238,0.927905675,3.7167077,0.11132014,-7.672301
187,1747486249360,2.2544786500000003,-1.28117855,1.0284572,3.63042125,0.04687164,-7.3788207
188,1747486249370,2.200664,-1.2410312,1.0972813,3.6256275,-0.0314253,-7.1729584
189,1747486249380,2.2560651,-1.1744035,1.1438963,3.7763624,-0.20932446,-7.0653663
190,1747486249390,2.3142729,-1.09374245,1.069703,4.08582175,-0.6018744149999999,-7.15112015
191,1747486249400,2.25460075,-1.0646997,0.953165615,4.153466,-0.70840085,-7.1873393
192,1747486249410,2.20127425,-1.0725096,0.756089365,4.0583912,-0.908137935,-6.9492525
193,1747486249420,2.1921222,-1.0814177,0.6228341,3.9324238,-0.94808537,-6.764429
194,1747486249430,2.2226293,-1.1002101,0.47054234,3.6724992,-0.813862,-6.4991784
195,1747486249440,2.0414169,-1.02943345,0.2976278049999999,3.1374701,-0.5123922,-5.958823000000001
196,1747486249450,1.9710064,-0.989164,0.26529023,2.9523804,-0.4250405,-5.76095
197,1747486249460,1.88107125,-0.815395265,0.303485185,2.35210395,0.13422332,-5.208876999999999
198,1747486249470,1.8271346,-0.8152732250000001,0.344608825,2.39924175,0.259125575,-5.284777
199,1747486249480,1.7845466,-0.83125895,0.36315718,2.466087,0.29507825,-5.347095
200,1747486249490,1.48362405,-0.96536845,0.30250895,2.86636025,0.0801611565,-5.5154067
201,1747486249500,1.09618318,-1.08324805,0.133621337,3.2613071,-0.4554005435,-5.5292552
202,1747486249510,0.82857436,-1.1517061,0.005857374,3.5111117,-0.87032104,-5.5042214
203,1747486249520,0.291526385,-1.27239245,-0.162298065,3.6501286,-1.36273955,-5.1361726
204,1747486249530,0.08639627,-1.3220581,-0.22135992,3.6746297,-1.484446,-4.966263
205,1747486249540,-0.6002588,-1.3802658,-0.52887206,3.38567675,-1.98618565,-4.13695445
206,1747486249550,-0.77854264,-1.4028411,-0.6452874,2.6410569,-2.00189825,-3.2639703
207,1747486249560,-0.88007045,-1.8099285,-0.9864794,2.1007016,-1.8269285,-2.7340012
208,1747486249570,-0.96402615,-2.0486166,-1.2978964,1.1526161,-1.6112125,-2.5497105
209,1747486249580,-1.2078394,-2.1686926,-1.4702009,-0.13528858,-1.3326459,-2.4064324
210,1747486249590,-1.4433545,-2.370528,-1.411139,-1.442368,-0.7957525,-2.2471755
211,1747486249600,-1.6600775,-2.584566,-1.2315128,-2.6312032,-0.25885928,-2.137453
212,1747486249610,-2.43996225,-2.8908581,-0.27310007,-3.9454732,0.0716390349999999,-1.85089705
213,1747486249620,-2.5528388,-2.9445508,-0.06809197,-3.9153795,0.03568636,-1.6698021
214,1747486249630,-2.695368,-2.9901893,0.114218794,-3.4770231,-0.10226539,-1.103614
215,1747486249640,-2.8405824,-2.9052575,0.21623473,-3.009372,-0.24554345,-0.59761333
216,1747486249650,-2.90476925,-2.7726123,0.0788304884999999,-2.33905445,0.073503255,0.2119876349999999
217,1747486249660,-3.0006839,-2.73014625,-0.0999414415,-2.1150826,0.59255335,0.70680297
218,1747486249670,-3.0707283,-2.7436914,-0.15033926,-2.0980384,0.80800307,0.87511474
219,1747486249680,-3.090741,-2.8022654,-0.16400647,-2.0490363,1.2128036,1.2468921
220,1747486249690,-3.010934,-2.8374097,-0.061502427,-1.830657,1.4823155,1.6170714
221,1747486249700,-2.9137995,-2.7788358,0.113974735,-1.2719258,1.5270566,1.988316
222,1747486249710,-2.3039005,-2.5009767,-0.0535705624999999,0.59122175,0.87831056,2.9566414
223,1747486249720,-2.131108,-2.399571,-0.16498269,0.59122175,0.87831056,2.9566414
224,1747486249730,-1.8084643,-2.1943188,-0.49299565,1.401888,0.33981937,3.614975
225,1747486249740,-1.5107143,-2.0085912,-0.7573096,1.1190603,0.43196473,3.9702406
226,1747486249750,-1.2046666,-1.8570317,-0.86615914,0.5251754,0.72437984,4.366519
227,1747486249760,-0.1500952075,-1.51278885,-0.4909211649999999,-1.311873165,1.602424,5.250954500000001
228,1747486249770,0.067359805,-1.4638554,-0.34290043,-1.6287893,1.7512947,5.371063
229,1747486249780,0.511544,-1.3694052,-0.005857374,-2.040514,1.9238676,5.4983625
230,1747486249790,0.822717,-1.2471325,0.32606047,-2.2008364,2.0698087,5.58891
231,1747486249800,1.38160815,-1.19344,0.75743165,-1.9315908,2.0921794,5.867210399999999
232,1747486249810,1.6569047,-1.19344,0.9298581,-1.73212,2.0271983,6.0011673
233,1747486249820,1.854347,-1.1251038,1.1026506,-1.17285615,1.82266745,6.082926499999999
234,1747486249830,2.14428695,-0.9815983,1.0001466,-0.95660745,1.8943065,6.0459085
235,1747486249840,2.2604582,-0.9242448,0.8534682,-0.9193232,2.020274,6.000102
236,1747486249850,2.27180685,-0.8180799000000001,0.64479922,-1.4535532999999998,2.5377263,5.85203025
237,1747486249860,2.2519162,-0.7902574,0.57524294,-1.6884441,2.7435887,5.8024955
238,1747486249870,2.2018845,-0.81246656,0.507395,-2.431466,3.2463934,5.708752
239,1747486249880,2.0937672,-0.8195442,0.49128726,-3.0487869,3.5926044,5.6688046
240,1747486249890,1.9312251,-0.9288819,0.60697037,-4.1460094,3.9281626,5.664011
241,1747486249900,1.8577638,-0.9938011,0.73461235,-4.5348306,3.882889,5.6735983
242,1747486249910,1.8449508,-1.03407055,0.903133875,-4.58676245,3.75186145,5.6656089000000005
243,1747486249920,1.8448287,-1.0471276,1.4592183,-4.3585296,3.1649008,5.6586847
244,1747486249930,1.8702106,-1.0308977,1.5302389,-3.2762208,1.9196066,5.648032
245,1747486249940,1.978084,-1.01479,1.394299,-2.8075044,1.2373047,5.60915
246,1747486249950,2.050935,-0.923024475,1.053595165,-2.8234835,0.8151936,5.4858455500000005
247,1747486249960,2.0488605,-0.9025237,0.95524013,-2.914031,0.7307714,5.4461646
248,1747486249970,1.9878463,-0.89617825,0.8080735,-3.2799492,0.721184,5.4200654
249,1747486249980,1.8592281,-0.9789136,0.792942,-3.733752,0.76752305,5.490906
250,1747486249990,1.8575197,-1.0077124,0.88226694,-4.5364285,0.74089146,5.9020977
251,1747486250000,1.9104803,-0.9772052,0.93986446,-4.8725195,0.62584287,6.142315
252,1747486250010,2.1120715,-0.93254274,1.0233321,-5.2299156,0.47137952,6.320214
253,1747486250020,2.54026985,-0.63515895,1.55525485,-5.67999,0.49295113,6.146842100000001
254,1747486250030,2.5801733,-0.5735345,1.7171869,-5.823268,0.6247776,5.9505672
255,1747486250040,2.5433207,-0.53106856,2.0325086,-5.5953016,0.86179894,5.7156763
256,1747486250050,2.4129941,-0.53106856,2.2140872,-5.1739893,1.0029465,5.600628
257,1747486250060,2.27095285,-0.333382195,2.0364136,-4.5598645,0.86339682,5.583050999999999
258,1747486250070,2.32659785,-0.00634549,1.7465957,-4.10073545,0.62744077,5.5673385
259,1747486250080,2.3734567,0.14570218,1.6037002,-3.8285604,0.4788364,5.5388427
260,1747486250090,2.4869432,0.49446,1.104359,-3.9473374,0.6764429,5.264004
261,1747486250100,2.57456,0.71874857,0.57377857,-4.5364285,1.0279802,4.8091364
262,1747486250110,2.4491146,0.93571544,0.26236153,-5.708752,1.3773869,4.128965
263,1747486250120,1.9895546,0.9794017,0.38487828,-7.893077,1.3134711,3.5707664
264,1747486250130,1.9016942,0.98208636,1.0452971,-8.503473,0.8857674,3.560114
265,1747486250140,2.007859,1.1456047,1.7598969,-8.568455,0.34940675,3.7401435
266,1747486250150,2.5320938,1.3462198,2.4652224,-8.193481,-0.36218992,3.9329565
267,1747486250160,4.0696545,1.7257288,3.214966,-7.487744,-1.186172,3.9318912
268,1747486250170,4.5841274,2.0559382,3.2369313,-5.7630806,-2.6541064,3.2415998
269,1747486250180,4.864549,2.5401478,3.2881835,-4.861867,-3.1707597,2.7867317
270,1747486250190,5.3956175,3.073413,3.3452926,-4.2195125,-3.3641052,2.3158848
271,1747486250200,5.9405975,3.347733,3.3418758,-3.6762276,-3.216566,1.5025555
272,1747486250210,6.4226108,3.3792167,3.60619,-2.24158265,-2.27167635,-0.59708072
273,1747486250220,6.1963696,2.920633,4.319081,-1.4029533,-1.7150757,-1.5504924
274,1747486250230,5.90106,2.5716312,4.514327,-0.44847634,-1.2447615,-2.1310616
275,1747486250240,5.793308700000001,2.3895645,4.5449562,0.06391588,-0.960868525,-2.3827303
276,1747486250250,5.3738966,1.854347,4.4577055,1.6053536,0.022370555,-3.0807447
277,1747486250260,4.5380006,1.206375,3.5722659,3.3353431,1.2325109,-3.8003309
278,1747486250270,4.0918636,0.8983747,2.8422906,3.5611792,1.5851135,-4.055462
279,1747486250280,3.6933181,0.6872652,2.2355645,3.4360106,1.9281287,-4.225904
280,1747486250290,3.1781133,0.501537635,1.65824695,3.103648,2.2945797,-4.3191147
281,1747486250300,3.0214286,0.46224442,1.5238935,2.716957,2.6019084,-4.387824
282,1747486250310,2.4976818,0.300800545,1.5788063,2.4623587,2.454902,-4.5630603
283,1747486250320,2.425929,0.28408262,1.6295702,2.6908581,2.018676,-4.6855655
284,1747486250330,2.3202522,0.22355644,1.6940014,3.0482543,1.5749935,-4.850682
285,1747486250340,2.2099385,0.13886857,1.6783818,3.4210968,1.3315805,-5.0163302
286,1747486250350,1.95441045,0.0305071545,1.4549473,3.8940742,1.1536814,-5.24882415
287,1747486250360,1.8353105,-0.013179091,1.3059504,3.9990027,1.077515,-5.3225937
288,1747486250370,1.8438525,-0.03807293,1.2373703,4.0266995,1.0705907,-5.472796
289,1747486250380,1.8826576,-0.10982577,1.1861182,4.0485377,1.1158645,-5.668272
290,1747486250390,1.89290805,-0.2651681999999999,1.1563432,4.07943,1.170193,-5.8632154
291,1747486250400,1.95538665,-0.48457567,1.1640310500000002,4.33003385,1.05381285,-6.14897265
292,1747486250410,2.0259192,-0.6445552,1.1709867,4.49009,0.9155948,-6.283995
293,1747486250420,2.1203694,-0.788549,1.2127205,4.738829,0.5651228,-6.5236797
294,1747486250430,2.0959635,-0.96329397,1.275199,5.1276503,0.08681905,-6.7820063
295,1747486250440,1.9732028,-1.0623811,1.2727585,5.4259243,-0.27164245,-6.845922
296,1747486250450,1.910236,-1.0919122,1.1814811,5.6080847,-0.561927,-6.809703
297,1747486250460,2.0217702,-1.057012,0.9003272,5.4530888,-0.90973586,-6.8043766
298,1747486250470,2.0674089,-0.964392225,0.670791355,4.91619535,-0.8980178999999999,-6.7745493
299,1747486250480,2.0820522,-0.93888825,0.60599416,4.681837,-0.8633968,-6.744722
300,1747486250490,2.1628354,-0.88690406,0.5354616,4.1012683,-0.68869346,-6.67548
301,1747486250500,2.2519162,-0.8288184,0.5352176,3.4999263,-0.44687843,-6.636065
302,1747486250510,2.3807785,-0.9460879,0.9881878,2.58672845,-0.310524595,-6.632869
303,1747486250520,2.387368,-0.9691513,1.1194906,2.59818,-0.35792887,-6.6568375
304,1747486250530,2.336116,-0.9869675,1.325719,2.8831382,-0.4926848,-6.69785
305,1747486250540,2.2221413,-1.0587204,1.3806318,3.8381479,-0.8527442,-6.637663
306,1747486250550,2.1638114,-1.0492021,1.2007617,4.222708,-1.0349044,-6.567355
307,1747486250560,2.144043,-1.0186949,0.99184865,4.4544034,-1.1606057,-6.512494
308,1747486250570,2.1171966,-1.018939,0.8090498,4.5545382,-1.2112057,-6.463492
309,1747486250580,2.066921,-0.9999026,0.70190865,4.5742455,-1.220793,-6.4059677
310,1747486250590,1.9461124,-0.98013395,0.6804316,4.754808,-1.6447684,-6.3761406
311,1747486250600,1.7557478,-0.9823304,0.6770148,4.9369683,-2.0548952,-6.3106265
312,1747486250610,1.5546447,-0.99795,0.66847277,5.118063,-2.4458473,-6.1268687
313,1747486250620,1.4272468,-0.99404514,0.60062486,5.2395034,-2.6594326,-5.9170113
314,1747486250630,1.244936,-1.1604922,0.3863426,5.195295,-2.5624936,-5.7108827
315,1747486250640,0.8912971,-1.2322451,0.34045988,5.1777177,-2.3707461,-5.617672
316,1747486250650,0.5091034,-1.2856936,0.22184804,5.1255198,-2.279666,-5.424859
317,1747486250660,0.17718557,-1.3474401,0.060770255,4.9406967,-2.3121564,-5.164402
318,1747486250670,-0.04881145,-1.380876,-0.174745,4.405934,-2.2285333,-4.713795
319,1747486250680,0.14374973,-1.4924101,-0.60916686,2.692456,-2.1720743,-4.4458814
320,1747486250690,0.043930303,-1.4304196,-0.59037447,1.794438,-2.2327943,-4.69249
321,1747486250700,-0.56975168,-1.7711235,-0.474203245,0.95128113,-2.1981733,-4.802745
322,1747486250710,-0.81930023,-1.9610001,-0.44955346,0.1123854,-2.0192087,-4.6610646
323,1747486250720,-1.3279155,-2.2753458,-0.37072295,-0.7089335,-1.7449032,-4.252003
324,1747486250730,-2.0198178,-2.7126963,-0.16986385,-2.1321268,-0.90920323,-3.1553133
325,1747486250740,-2.3434378,-3.01435105,0.220505712,-2.7244139,-0.5603291,-2.6786075
326,1747486250750,-2.5766344,-3.0957441,0.4162396299999999,-2.90550875,0.08122641,-1.8767296
327,1747486250760,-2.6714506,-3.1383321,0.44955346,-2.8810077,0.22210763,-1.659682
328,1747486250770,-3.074145,-3.2645097,0.12422514,-2.8666267,0.3584615,-1.2911005
329,1747486250780,-3.2625573,-3.3757997,-0.046614934,-3.3087113,0.5651228,-0.44794372
330,1747486250790,-3.4182656,-3.4578032,-0.030507157,-3.6511939,0.75420725,0.103863284
331,1747486250800,-3.4160695,-3.4722025,0.15497635,-3.820571,1.0125339,0.72970617
332,1747486250810,-3.4160695,-3.4722025,0.15497635,-3.820571,1.0125339,0.72970617
333,1747486250820,-3.13186465,-3.278177,0.409161975,-3.14146485,1.4783208,1.813612785
334,1747486250830,-2.4976819,-2.8549817,0.46761367,-1.8706044,2.0271983,3.480219
335,1747486250840,-2.1045055,-2.6441162,0.24088451,-1.4418354,2.0639498,3.9894154
336,1747486250850,-1.6852154,-2.3981063,0.04148973,-1.180313,2.1124194,4.366519
337,1747486250860,-0.9196077,-1.9351299,-0.22916976,-1.0476876,2.1268005,4.626976
338,1747486250870,-0.59525563,-1.7529412,-0.29445507,-1.2711269,2.1742047,4.9936935
339,1747486250880,-0.27090356,-1.5707525,-0.35974038,-1.4940335,2.2120216,5.170261
340,1747486250890,0.048567392,-1.4694687,-0.27261195,-1.7923075,2.257828,5.365737
341,1747486250900,0.34192422,-1.3623276,-0.14082102,-2.18219425,2.371545,5.65708685
342,1747486250910,0.818568,-1.1922196,0.30946457,-2.3020365,2.437325,5.7662764
343,1747486250920,0.99965847,-1.1265682,0.562796,-2.201369,2.692456,6.130597
344,1747486250930,1.2127205,-1.0926442,0.8110022,-1.8849854,2.711098,6.294115
345,1747486250940,1.2127205,-1.0926442,0.8110022,-1.6295883,2.64878,6.34578035
346,1747486250950,1.6359158,-0.99917036,1.1827015,-0.7174556,2.2977755,6.4400563
347,1747486250960,1.89766715,-0.85871543,0.99319097,0.707069275,1.50655025,6.4933195
348,1747486250970,1.9505056,-0.8305268,0.90789294,0.88683265,1.4104102,6.512494
349,1747486250980,2.1003566,-0.7304634,0.72216535,1.0114686,1.3662016,6.5423217
350,1747486250990,2.2572856,-0.5864696,0.50812715,0.8186557,1.5169365,6.5327344
351,1747486251000,2.5671161,-0.29299073,0.408795905,0.00958739,2.12120785,6.3194152
352,1747486251010,2.6327676,-0.2174550049999999,0.46395284,-0.6197175699999999,2.7095002,6.0568272
353,1747486251020,2.647533,-0.1889003,0.49860895,-0.813862,2.9134984,5.946306
354,1747486251030,2.5826137,-0.1552204,0.5723142,-1.1579424,3.1984565,5.7226005
355,1747486251040,2.4886518,-0.14643435,0.6125837,-1.4562165,3.3348105,5.4967647
356,1747486251050,2.361742,-0.15717287,0.6233222,-1.7198695,3.3704967,5.296495
357,1747486251060,2.0696054,-0.18645974,0.5933032,-2.3643544,3.2836776,5.042962
358,1747486251070,1.956851,-0.20915705,0.5588911,-2.7105653,3.218164,4.971589
359,1747486251080,1.8831457,-0.23136626,0.5605995,-3.0439932,3.0668964,4.886901
360,1747486251090,1.8018748,-0.27895743,0.59061855,-3.300722,2.8186898,4.8091364
361,1747486251100,1.5512279,-0.38731885,0.7912336,-3.444,2.1640847,4.8650627
362,1747486251110,1.5031487,-0.44271985,0.8607899,-3.3699641,1.8881812,4.9763827
363,1747486251120,1.518036,-0.46761367,0.83858067,-3.3001893,1.7188042,5.1015515
364,1747486251130,1.6007715,-0.43149322,0.75194037,-3.3603768,1.6437031,5.2112737
365,1747486251140,1.7162106,-0.37633628,0.65138876,-3.5952675,1.6559536,5.2719936
366,1747486251150,1.94184145,-0.332772065,0.7211891699999999,-4.087952,1.8082864,5.24696
367,1747486251160,2.0488605,-0.3248402,0.84858704,-4.7838365,2.00296355,4.877846
368,1747486251170,1.94647865,-0.3648656,1.1255920499999998,-4.72684485,1.88285495,4.77744485
369,1747486251180,1.892664,-0.39146784,1.2073512,-4.6509447,1.7869811,4.754808
370,1747486251190,1.8409238,-0.41099238,1.3908823,-4.2802324,1.4407701,4.7958207
371,1747486251200,1.70120115,0.0768780365,1.50449095,-2.961435,0.56245965,4.977448
372,1747486251210,1.683263,0.2135501,1.4572659,-2.961435,0.56245965,4.977448
373,1747486251220,1.8731394,0.42783237,1.2354177,-1.9110844,0.16884442,4.9231195
374,1747486251230,2.0312884,0.55059314,0.99160457,-1.9744676,0.61572284,4.628574
375,1747486251240,2.0234787,0.532777,0.7902574,-2.4138892,1.1606057,4.3627906
376,1747486251250,1.8448287,0.35827604,0.9203399,-2.98061,1.6884441,4.3729105
377,1747486251260,2.0144486,0.4656612,1.1297411,-3.5079157,2.6471822,5.2086105
378,1747486251270,2.5762684,0.84931916,1.2351737,-3.2985914,2.7585022,5.491971
379,1747486251280,3.266462,1.3742863,1.1873385,-2.808037,2.3158848,5.3348446
380,1747486251290,4.135306,2.3109782,0.5039782,-1.7166736,0.31158987,3.987285
381,1747486251300,4.1504374,2.4679067,-0.006345488,-1.6847157,-0.6514092,3.3955305
382,1747486251310,3.926881,2.669742,-0.46029195,-2.2391858,-1.1291803,3.0605047
383,1747486251320,3.940304,2.7868898,-0.58842206,-2.9577067,-1.103614,3.0871365
384,1747486251330,4.463563,2.9713972,-0.36632994,-4.369182,-0.4101268,3.1377366
385,1747486251340,4.677357,3.1432133,-0.07370529,-4.6514773,-0.06391586,3.1265512
386,1747486251350,5.0351453,3.4304688,0.38609856,-4.450675,0.07456851,3.0450585
387,1747486251360,5.5010505,3.755065,0.69239044,-3.8195057,-0.029294772,2.7510455
388,1747486251370,5.5010505,3.755065,0.69239044,-3.8195057,-0.029294772,2.7510455
389,1747486251380,7.365404,3.981794,0.60013676,-2.065015,-1.3741912,-1.7124126
390,1747486251390,6.620541,3.534925,0.6884855,-2.1076257,-1.0295781,-3.128149
391,1747486251400,5.673599,2.911603,0.8361401,-2.3062975,-0.27377295,-3.9792955
392,1747486251410,4.7298293,2.2704647,1.0653099,-2.4740767,0.6812366,-4.394216
393,1747486251420,3.461464,1.410895,1.6815544,-2.394182,1.5787219,-4.4874268
394,1747486251430,3.2115493,1.2522577,1.8580079,-1.2580773,2.3121564,-4.4277716
395,1747486251440,3.0975745,1.168058,1.8775325,-0.396811,2.1017668,-4.5470815
396,1747486251450,2.9894571,1.1109486,1.8048034,0.48469532,1.7528926,-4.718056
397,1747486251460,2.9825015,0.93717985,1.39966835,1.274589,1.4072144,-4.928446
398,1747486251470,3.0280182,0.839801,1.1443844,1.9718045,1.0253171,-5.363074
399,1747486251480,2.9069657,0.7897693,0.9176552,2.2748723,0.42983422,-6.391054
400,1747486251490,2.7436914,0.6909261,0.7524285,2.0879183,0.396811,-6.7905283
401,1747486251500,2.6599798,0.5452239,0.6660322,1.7710022,0.60933125,-7.0930634
402,1747486251510,2.5818818,0.33704305,0.6953191,1.4567492,0.98430437,-7.333813
403,1747486251520,2.4693713,-0.12422514,1.0675064,1.3576796,1.8407769,-7.528224
404,1747486251530,2.468151,-0.3612047,1.2212625,1.6309199,2.0921793,-7.530887
405,1747486251540,2.4671748,-0.5691415,1.3591548,2.0895162,2.0341225,-7.4957333
406,1747486251550,2.4845028,-0.73729694,1.445307,2.834136,1.6186694,-7.4893417
407,1747486251560,2.55735375,-0.968541225,1.385513,3.4589138,1.0972224,-7.4925375
408,1747486251570,2.6370385,-1.0640897,1.3035098,4.4655886,0.06551377,-7.6145105
409,1747486251580,2.6624205,-1.1207108,1.1109486,4.67225,-0.23329292,-7.7487335
410,1747486251590,2.5826137,-1.1465809,0.88983274,4.6626625,-0.39840892,-7.81478
411,1747486251600,2.5174503,-1.1744035,0.7214332,4.479437,-0.46871635,-7.781757
412,1747486251610,2.5225759,-1.1460928,0.4790844,3.781689,-0.396811,-7.685883
413,1747486251620,2.5389276,-1.1390152,0.42246306,3.2533176,-0.3110572,-7.6880136
414,1747486251630,2.5150099,-1.1443844,0.40733153,2.8405278,-0.26897928,-7.6794915
415,1747486251640,2.511349,-1.1377949,0.5183776,2.5246768,-0.35899413,-7.623565
416,1747486251650,2.5052476,-1.0780008,0.72753465,2.4160197,-0.5603291,-7.561247
417,1747486251660,2.4866993,-1.0306537,0.9823304,2.604039,-0.9076053,-7.4488616
418,1747486251670,2.418363,-1.0313859,1.0077124,2.7840686,-0.9624664,-7.356716
419,1747486251680,2.250452,-1.0182068,0.96353805,2.952913,-1.0285128,-7.17935
420,1747486251690,2.1389177,-0.9984382,0.89007676,3.00351305,-1.0705908,-7.045659000000001
421,1747486251700,2.1071904,-0.96573454,0.6765267,3.0700922,-1.0972224,-6.5849323
422,1747486251710,2.1845565,-0.9342511,0.5188657,2.5321336,-0.83862945,-6.01421665
423,1747486251720,2.2411778,-0.91863143,0.44442827,2.3755398,-0.79042625,-5.9676113
424,1747486251730,2.2641191,-0.9169231,0.4463807,2.0836573,-0.6876282,-5.9526978
425,1747486251740,2.1874852,-0.8983747,0.54912883,2.0865867,-0.588558575,-5.91807685
426,1747486251750,1.7467177,-0.9191196,0.976229,2.2626216,-0.57311225,-5.858422
427,1747486251760,1.5589157,-0.9997805,1.0565238,2.2626216,-0.57311225,-5.858422
428,1747486251770,1.3711137,-1.0804414,1.1368186,3.487676,-0.8426242,-5.691708
429,1747486251780,1.1490215,-1.232001,0.9859913,4.139085,-1.0396981,-5.6405754
430,1747486251790,0.72826684,-1.372822,0.6728658,4.6860986,-1.4295849,-5.516472
431,1747486251800,-0.04429637,-1.51840215,-0.200248985,4.29487995,-1.8181401,-5.032043
432,1747486251810,-0.47066439,-1.6953437,-0.92351265,3.32682085,-1.80402535,-4.6208508
433,1747486251820,-0.5554743,-1.8057796,-1.1812371,2.8266792,-1.7124126,-4.4821
434,1747486251830,-0.9056965,-1.9607558,-1.5453705,1.4945661,-1.4008228,-4.2429485
435,1747486251840,-1.1924638,-2.0608194,-1.565139,0.1107875,-0.94116116,-3.9036615
436,1747486251850,-1.5509838,-2.3475866,-1.1133891,-2.1779332,0.11611383,-3.1606395
437,1747486251860,-1.64518985,-2.42385455,-0.9218042,-2.5361284,0.285224565,-2.99126255
438,1747486251870,-2.054718,-2.6875584,-0.36730617,-3.1148334,0.51771855,-2.6455843
439,1747486251880,-2.39591,-2.8964713,-0.09274176,-3.0466564,0.43249738,-2.51722
440,1747486251890,-2.76224,-3.1385763,0.15204766,-2.6349316,0.19441076,-2.3206787
441,1747486251900,-3.130278,-3.3235717,0.16620298,-2.141714,-0.20026971,-1.9318571
442,1747486251910,-3.9334706,-3.70320275,-0.010494461,-1.7909758999999998,-0.225836057,-0.3773699335
443,1747486251920,-4.0877147,-3.7238257,0.033435844,-1.8018948,-0.044208474,0.050600063
444,1747486251930,-4.1975408,-3.7077177,0.21306199,-1.7731327,0.37124467,1.0146644
445,1747486251940,-4.0972333,-3.6205893,0.44027928,-1.5472966,0.7435546,2.0399814
446,1747486251950,-3.2591405,-3.1651785,0.7224094,-0.9933591,1.0823087,3.2586439
447,1747486251960,-2.4430132,-2.8742623,0.60941094,0.14168017,1.2378373,4.5641255
448,1747486251970,-1.7215798,-2.5247722,0.38512233,0.51026165,1.3507553,4.7260456
449,1747486251980,-1.2464004,-2.2245817,0.14545812,0.6311692,1.6165388,4.816593
450,1747486251990,-0.949016625,-1.98784625,0.0103724299999999,0.48496165,1.91161705,4.9830407
451,1747486252000,-0.5122762,-1.6503152,-0.14057697,0.001065265,2.3558323,5.7662765
452,1747486252010,-0.20818083,-1.565139,-0.053936653,-0.09640643,2.3558323,5.987319
453,1747486252020,0.22233616,-1.4677603,0.08859278,-0.20080236,2.3931167,6.306898
454,1747486252030,1.0028312,-1.2642165,0.37877685,-0.05219796,2.5220137,6.5311365
455,1747486252040,1.2115002,-1.1992973,0.45931572,0.20186761,2.3600934,6.5556374
456,1747486252050,1.3752626,-1.1734272,0.50641876,0.5203817,2.1310616,6.588128
457,1747486252060,1.5292627,-1.1534146,0.5222825,1.0061423,1.89404015,6.6808062
458,1747486252070,1.6905845,-1.1194906,0.4634647,1.1478225,1.8503643,6.7196884
459,1747486252080,2.0090792,-1.0350468,0.3431445,1.4301175,1.8237327,6.826215
460,1747486252090,2.1391618,-0.9701275,0.2818861,1.4418354,1.8674086,6.8411283
461,1747486252100,2.208474,-0.8991069,0.25528386,1.3768543,1.9909793,6.8549767
462,1747486252110,2.2538686,-0.8188121,0.28359452,1.2538162,2.2173479,6.8917284
463,1747486252120,2.323181,-0.7570656,0.3653537,1.2069446,2.3355923,6.8549767
464,1747486252130,2.3675992,-0.6296677,0.5427833,1.397627,2.251969,6.581204
465,1747486252140,2.3536882,-0.5852493,0.5005614,1.4631407,2.2540996,6.4400563
466,1747486252150,2.387856,-0.5400987,0.43661842,1.4365091,2.3158848,6.2818646
467,1747486252160,2.46327,-0.45370242,0.33509058,1.2996227,2.4218788,6.06242
468,1747486252170,2.4037197,-0.34704942,0.14106509,1.0146644,2.5923212,5.801963
469,1747486252180,2.323181,-0.3270367,0.14301755,0.16192019,2.8293424,5.3939667
470,1747486252190,2.26045825,-0.313979635,0.17535513,-0.082558005,2.87115395,5.31353935
471,1747486252200,2.1291554,-0.3104408,0.28383857,-0.6679208,2.9971216,5.144695
472,1747486252210,2.0664327,-0.32215557,0.3533949,-0.82584627,3.0660974,5.108742
473,1747486252220,1.9124327,-0.34045988,0.38536638,-1.6357136,3.4594464,4.96573
474,1747486252230,1.8489777,-0.36803833,0.38439015,-2.0282636,3.6101813,4.9470882
475,1747486252240,1.7965053,-0.3904916,0.38439015,-2.4724789,3.7976677,4.956143
476,1747486252250,1.7664863,-0.3956168,0.41245672,-2.9678268,4.0378847,4.9683933
477,1747486252260,1.837629,-0.43454392,0.6715234800000001,-3.9009985,4.466920200000001,4.8472198
478,1747486252270,1.81151485,-0.4829892699999999,1.019305115,-4.293282,4.596616,4.71832285
479,1747486252280,1.7711234,-0.5100796,1.1622007,-4.270645,4.560397,4.6887617
480,1747486252290,1.6803342,-0.5835409,1.3550059,-4.0416136,4.3281693,4.710067
481,1747486252300,1.74818205,-0.5873238000000001,1.6065068,-3.2160334,3.6501285,4.47517575
482,1747486252310,1.7823502,-0.5452239,1.6827747,-2.7606328,3.323625,4.283428
483,1747486252320,1.65641655,-0.50385622,1.62249255,-2.4644892,3.161705,4.1294975
484,1747486252330,1.5983309,-0.48006064,1.6190758,-2.31695,3.1995218,4.1039314
485,1747486252340,1.6405529,-0.34192422,1.6124862,-2.2040322,3.3316145,4.1444116
486,1747486252350,1.96929795,-0.18975451,1.57490145,-1.82852645,3.63281815,4.1002028
487,1747486252360,2.19407465,-0.14045495,1.5802707,-1.4029533,3.76544355,4.07650065
488,1747486252370,2.268024,-0.12715383,1.564407,-1.2048141,3.7875478,4.0762343
489,1747486252380,2.5169625,-0.13203497,1.4306636,-0.77125144,3.5995286,3.9835565
490,1747486252390,2.6014063,-0.12422514,1.2503053,-0.41864893,3.1249533,3.8701057
491,1747486252400,3.3688443,0.5876898500000001,0.317396435,-0.36778256,1.8208033,3.6035234
492,1747486252410,3.5986242500000003,0.9309564,-0.113974735,-0.69455242,1.4980281,3.2511872
493,1747486252420,3.6396258,1.0958171,-0.32801294,-0.90654004,1.3784522,3.0668964
494,1747486252430,3.6406019,1.3237665,-0.7665838,-1.6927053,1.371528,2.9555762
495,1747486252440,4.0260903500000005,1.75611385,-0.8260117499999999,-2.5052356500000004,1.2857742,3.2975261
496,1747486252450,4.2875977,2.0664327,-0.7309515,-2.700978,1.1845741,3.4131074
497,1747486252460,4.4642954,2.5135455,-0.5947675,-2.7585022,0.22104238,3.5611792
498,1747486252470,4.84234,3.0167916,-0.27651685,-2.2588933,-0.20133498,3.594735
499,1747486252480,5.4415007,3.4931912,0.053204484,-1.2175972,-0.48682585,3.5143075
500,1747486252490,6.241764,4.0406117,0.102748096,0.22690132,-0.7004114,3.0280142
501,1747486252500,7.4158015,4.70066475,-0.926197175,2.5534389500000003,-1.004544385,0.2229065999999999
502,1747486252510,7.743936,4.8313575,-1.7140139,2.996589,-1.1193266,-2.32067865
503,1747486252520,7.3009725,4.5240893,-2.3270857,2.641856,-1.128115,-3.0913975
504,1747486252530,6.485333,3.8892963,-2.7756631,1.113734,-0.8213189,-4.2498727
505,1747486252540,5.5396113,3.1212482,-2.6443603,-0.7520767,-0.3089267,-4.9215217
506,1747486252550,4.6700354,2.515254,-2.0024896,-2.3457124,0.14168017,-5.1537495
507,1747486252560,3.8130286,1.4608046,-0.02721238,-3.60512115,0.234624495,-5.3779876
508,1747486252570,3.59447515,1.2232149,0.38561043,-3.581419,0.12463594,-5.4488277
509,1747486252580,3.4939234,1.1119248,0.56816524,-3.3577135,-0.19068234,-5.549495
510,1747486252590,3.3645732,0.9269294,0.82100856,-2.9630332,-0.4362258,-5.682121
511,1747486252600,3.2122815,0.54864067,1.1241276,-2.4133565,-0.47723848,-6.036321
512,1747486252610,3.0134969,0.322399635,1.37782515,-1.8905781,-0.26684873,-6.3388562
513,1747486252620,2.9408898,0.24454537,1.4553133,-1.6943032,-0.19441076,-6.4256754
514,1747486252630,2.7485726,0.14399378,1.6913167,-1.1467572,-0.12676647,-6.567355
515,1747486252640,2.5313618,0.10152781,1.9031584,-0.39947417,-0.10013486,-6.6637616
516,1747486252650,2.2177481500000003,-0.049543619,1.86874635,1.7017600000000002,-0.1320927949999999,-6.8677600000000005
517,1747486252660,2.153073,-0.08908089,1.7999222,2.0991037,-0.18588865,-6.909305
518,1747486252670,2.0622838,-0.20769271,1.5975988,2.8538435,-0.49694586,-6.993461
519,1747486252680,2.0622838,-0.20769271,1.5975988,2.8538435,-0.49694586,-6.993461
520,1747486252690,1.95904755,-0.568043265,1.1313274,3.32016305,-1.08230873,-7.0805465000000005
521,1747486252700,1.9468447,-0.6784792,1.0130817,3.7864826,-1.6676716,-7.167632
522,1747486252710,1.84128995,-0.7700006,0.855786725,3.7593184,-1.7976338,-7.1276846
523,1747486252720,1.8255482,-0.7905014,0.81368685,3.635215,-1.8663434,-7.032876
524,1747486252730,1.802851,-0.77659017,0.6816519,3.158509,-1.9329224,-6.8059745
525,1747486252740,1.8362867,-0.7487676,0.67677075,2.8160267,-2.0112193,-6.6834693
526,1747486252750,1.9153614,-0.69336665,0.7143555,2.3638217,-2.014415,-6.524745
527,1747486252760,2.0486166,-0.65919864,0.7739055,2.0208068,-1.9126823,-6.4640245
528,1747486252770,2.140138,-0.61160743,0.8520039,1.7129452,-1.804558,-6.4874606
529,1747486252780,2.2816913,-0.55669457,1.0804414,1.3401027,-1.6330504,-6.5716166
530,1747486252790,2.2997513,-0.52301466,1.2095478,1.3022858,-1.5281218,-6.573747
531,1747486252800,2.3346517,-0.511544,1.2886223,1.3550164,-1.391768,-6.5609636
532,1747486252810,2.3588133,-0.5112999,1.3498806,1.4865766,-1.2474247,-6.550311
533,1747486252820,2.3456342,-0.52399087,1.4262705,1.700162,-1.1680624,-6.524745
534,1747486252830,2.3036563,-0.57451075,1.5661154,2.5118935,-1.2948289,-6.40437
535,1747486252840,2.3087816,-0.60135704,1.5014402,2.8666267,-1.2820457,-6.335128
536,1747486252850,2.2842538,-0.60684832,1.44591715,3.00644265,-1.24982145,-6.3029035
537,1747486252860,2.169669,-0.61624455,1.2385906,3.325223,-1.1361046,-6.1588264
538,1747486252870,2.037878,-0.59989274,0.9198518,3.397661,-1.0769824,-6.0235376
539,1747486252880,2.0061505,-0.58842206,0.7963588,3.371562,-1.0407634,-5.949768300000001
540,1747486252890,1.8990095,-0.60819066,0.70337296,3.266101,-0.9821738,-5.820072
541,1747486252900,1.7557478,-0.6382097,0.67799103,3.193663,-1.0482203,-5.717274
542,1747486252910,1.5688,-0.64992446,0.71728426,3.1931303,-1.073254,-5.506352
543,1747486252920,1.0667742,-0.7153318,0.93376297,3.3449304,-0.8990832,-5.1766524
544,1747486252930,0.856885,-0.7473033,0.97208,4.116182,-0.5954828,-4.392618
545,1747486252940,0.6092889,-0.8662812,0.7199688799999999,4.75294355,-0.78563255,-3.956126
546,1747486252950,0.5210622,-0.8991069,0.5947675,4.9215217,-0.91612744,-3.84667
547,1747486252960,0.43613032,-0.9413288,0.23771177,5.0871706,-1.3379722,-3.7289581
548,1747486252970,0.306901975,-1.15073,-0.884585525,3.9337554,-2.28605745,-3.83761525
549,1747486252980,0.2767609,-1.1790406,-1.1089962,3.4653053,-2.3904533,-3.9143143
550,1747486252990,0.102748096,-1.3218141,-1.5761217,1.7188042,-2.4383903,-4.3334956
551,1747486253000,-0.3441207,-1.5507398,-1.6695957,0.041012682,-2.2461102,-4.6829023
552,1747486253010,-1.433470235,-2.14990025,-0.93168855,-2.2234733,-0.8586031774999999,-4.4104612
553,1747486253020,-1.8914437,-2.477669,-0.5374141,-3.0397322,-0.022370555,-4.1039314
554,1747486253030,-2.2148197,-2.843267,-0.44052333,-3.4045851,0.64341974,-3.9052596
555,1747486253040,-2.596037,-3.2291214,-0.4702983,-3.7497308,1.0460896,-3.8136468
556,1747486253050,-3.69527065,-3.8863677,-0.172182392,-3.6274917,1.3153353,-2.9776804
557,1747486253060,-4.1423836,-4.2151127,0.054424766,-3.2836776,1.310808,-2.380866
558,1747486253070,-4.514083,-4.411335,0.031483386,-2.2658174,0.737163,-1.3928332
559,1747486253080,-4.6402607,-4.4657593,-0.12080834,-1.582983,0.2146508,-0.5523396
560,1747486253090,-4.6051164,-4.42671,-0.2796896,-1.0833739,0.075101145,0.44048685
561,1747486253100,-4.4137754,-4.246108,-0.47859627,-0.81918836,0.26684874,1.5222629
562,1747486253110,-3.2474258,-3.576415,-0.8759214,-0.96566224,0.9129316,3.4051178
563,1747486253120,-2.396154,-3.1947093,-1.0128375,-1.2729911,1.073254,4.010188
564,1747486253130,-1.5553769,-2.822034,-1.091424,-1.6777915,1.0860372,4.3036685
565,1747486253140,-0.878118,-2.477669,-1.0396838,-2.0964406,0.9347696,4.395814
566,1747486253150,-0.05027579,-1.9458685,-0.6164886,-2.521481,0.6961503,4.483698
567,1747486253160,0.16547081,-1.7713674,-0.3607166,-2.9172268,0.4213121,4.8709216
568,1747486253170,0.33435842,-1.6315227,-0.07687803,-2.9784794,0.44528055,5.2144694
569,1747486253180,0.5862255,-1.5761217,0.1210524,-2.994991,0.531567,5.6096826
570,1747486253190,0.895446,-1.5370725,0.260165,-3.0274816,0.61678815,5.9148808
571,1747486253200,1.4144337500000002,-1.41565405,0.64662967,-2.8615666,0.516386965,6.0451095
572,1747486253210,1.5949141,-1.3506129,0.8070973,-2.716957,0.44687843,6.0288644
573,1747486253220,1.6149268,-1.2827649,0.9132622,-2.514024,0.37603834,6.015548
574,1747486253230,1.6268855,-1.2183337,0.9725681,-2.23599,0.42024684,6.0347233
575,1747486253240,1.65849095,-1.2710502,0.908137035,-2.0671456,0.55606806,6.053898
576,1747486253250,1.6488507,-1.3205938,0.8529801,-2.0112193,0.757403,6.0698767
577,1747486253260,1.6432373999999998,-1.37074755,0.8679896,-2.04850355,0.9446232,6.096508350000001
578,1747486253270,1.6281059,-1.4999758,1.0289453,-1.9702066,1.031176,6.1503043
579,1747486253280,1.6727684,-1.5214529,1.1019185,-1.7028252,0.8032094,6.1950455
580,1747486253290,1.8008984,-1.5299948,1.0162543,-1.4620755,0.58483016,6.263755
581,1747486253300,1.952458,-1.5065655,0.86225426,-1.3848438,0.4314321,6.3543024
582,1747486253310,2.30194795,-1.3694052,0.5404648,-2.23146265,0.90121375,6.72181865
583,1747486253320,2.3756533,-1.3562261,0.5259434,-2.463424,1.0274476,6.7814736
584,1747486253330,2.5164742,-1.3620834,0.5964759,-2.862898,1.1707256,6.8192906
585,1747486253340,2.6072636,-1.3418267,0.77195305,-3.0940607,1.1893678,6.8017135
586,1747486253350,2.6787722,-1.2676333,1.1377949,-2.961435,1.0578076,6.6802735
587,1747486253360,2.6553428,-1.2564068,1.2090596,-2.731338,1.0183928,6.614227
588,1747486253370,2.6521702,-1.2800802,1.223459,-2.4964473,1.010936,6.5758777
589,1747486253380,2.664617,-1.2793481,1.1880707,-2.2951124,0.99548966,6.5284734
590,1747486253390,2.4615614,-1.275199,1.0828819,-1.85835385,0.5536712,6.7646955
591,1747486253400,2.5726075,-1.2539662,1.0860548,-1.7827201,0.386691,6.813964
592,1747486253410,2.6741354,-1.2044226,1.1187584,-1.5659387,0.10173275,6.864564
593,1747486253420,2.7480845,-1.1748916,1.1692783,-1.2852416,-0.09853696,6.9114356
594,1747486253430,2.7771275,-0.9989263,1.1866064,-0.57311225,-0.23222765,7.038735
595,1747486253440,2.797384,-0.82198477,1.0262607,-0.27377295,-0.15180019,7.0131683
596,1747486253450,2.8211796,-0.7353444849999999,0.880558535,-0.23595607,-0.0588558635,6.98014515
597,1747486253460,2.9147756,-0.52301466,0.4510178,-0.39627838,0.25193503,6.8395305
598,1747486253470,2.8337488,-0.36388937,0.25796852,-0.9603359,0.509729,6.716492
599,1747486253480,2.8287456,-0.29567536,0.292014495,-0.9603359,0.509729,6.716492
600,1747486253490,2.852053,-0.12739788,0.5103237,-2.3339944,1.0657971,6.8128986
601,1747486253500,2.9766442,0.07272906,0.6875092650000001,-2.3813987,1.16433405,6.871222
602,1747486253510,3.1012354,0.272856,0.86469483,-2.3393207,1.3784522,6.94872
603,1747486253520,3.5195496,0.5217944,0.7690244,-2.1960428,1.4780544,6.763364
604,1747486253530,3.7967987,1.0535952,0.12398108,-2.2301311,1.0407634,5.729525
605,1747486253540,3.77153875,1.13523235,-0.067725885,-2.45250505,0.8327705,5.48531315
606,1747486253550,3.88038825,1.37343215,-0.396593005,-3.530819,-0.4924185,4.8110005000000005
607,1747486253560,3.9368875,1.4172405,-0.32508424,-3.711914,-0.902279,4.816593
608,1747486253570,4.717139,2.0124962,0.25430766,-3.8860848,-1.7246631,5.1031494
609,1747486253580,5.325573,2.391517,0.59232694,-4.060788,-2.3712788,5.410478
610,1747486253590,5.325573,2.391517,0.59232694,-4.060788,-2.3712788,5.410478
611,1747486253600,6.4787436,3.7672677,1.709377,-3.197924,-0.54275227,5.3178
612,1747486253610,7.292431,4.455509,2.0515454,-2.107093,0.608266,4.519917
613,1747486253620,7.9967794,5.3902483,1.504857,0.8745821,0.39521313,1.087635
614,1747486253630,7.9967794,5.0436873,0.6728658,1.965413,-1.1393003,-1.907356
615,1747486253640,7.533803,4.2905264,0.33460248,2.2311964,-1.5840483,-3.6240296
616,1747486253650,6.1824584,3.4724464,0.020012695,1.9409119,-1.1105382,-4.4469466
617,1747486253660,5.1056776,2.7124522,-0.24478942,1.1249193,-0.16937704,-4.635498
618,1747486253670,4.1929035,1.8523946,-0.003172744,-0.773382,1.4082797,-4.5891595
619,1747486253680,4.0213313,1.5495194,0.33997175,-1.417867,1.845038,-4.726578
620,1747486253690,3.8304784,1.2883781,0.76853627,-1.6607473,2.1406488,-4.9172606
621,1747486253700,3.7185782,1.1856300000000002,0.969517435,-1.5776567,2.2245384,-5.00088405
622,1747486253710,3.4280279,0.91448253,1.4401819,-0.8431568,2.3318639,-5.2858424
623,1747486253720,3.0148392,0.5264315,1.5126668,0.5470133,1.959554,-5.57879
624,1747486253730,2.7946997,0.36803833,1.3498806,1.1201255,1.6666062,-5.6272593
625,1747486253740,2.672427,0.25552794,1.1778203,1.5504924,1.2740563,-5.70023
626,1747486253750,2.596037,0.18865626,0.9884319,1.8370485,0.8016115,-5.8823905
627,1747486253760,2.2677798,0.12544543,0.7487676,2.0266657,0.2263687,-6.3031697
628,1747486253770,2.195295,0.05418071,0.72338563,2.0293288,0.2050634,-6.400109
629,1747486253780,2.1660082,-0.022941383,0.6294237,1.9542277,0.31798145,-6.4863954
630,1747486253790,2.1660082,-0.0615024265,0.6023333200000001,1.8477012,0.428502625,-6.5684207
631,1747486253800,2.1425786,-0.21769907,0.61502427,1.5883093,0.7824367,-6.762831
632,1747486253810,2.1284232,-0.53912246,0.85590875,1.5488945,1.1744541,-6.8975873
633,1747486253820,2.13184,-0.66139513,1.087519,1.8098843,1.0924287,-6.9524484
634,1747486253830,2.1374533,-0.77951884,1.3420708,2.3068302,0.7717841,-7.0083747
635,1747486253840,2.1352569,-0.993068935,1.5677017,2.9987195,0.24820662,-7.042996
636,1747486253850,2.1508765,-1.0853225,1.5443943,3.764112,-0.3355583,-7.0563116
637,1747486253860,2.19041375,-1.08495645,1.44347665,4.3215115,-0.79708415,-7.0989223
638,1747486253870,2.2416658,-1.0560358,1.1067996,5.0291133,-1.5281218,-7.1276846
639,1747486253880,2.2524045,-1.001855,0.83223516,4.92338585,-1.5145397,-7.07042645
640,1747486253890,2.267536,-0.916435,0.6877533,4.424043,-1.2985574,-6.844324
641,1747486253900,2.3807786,-0.8009959,0.5747548,3.9910133,-0.97471696,-6.709568
642,1747486253910,2.4727879,-0.7844,0.64357895,3.2234902,-0.44421527,-6.6509786
643,1747486253920,2.459365,-0.76292294,0.75950617,3.026949,-0.30786142,-6.6749473
644,1747486253930,2.4022555,-0.80123997,0.88739216,2.9656963,-0.26525086,-6.647783
645,1747486253940,2.3881001,-0.82052046,1.0182068,3.0322752,-0.40906155,-6.5641594
646,1747486253950,2.4344711,-0.8263778,1.1063116,3.1957934,-0.7749799,-6.5077004
647,1747486253960,2.4747405,-0.8671354,1.1844097,3.6868804,-1.6729978,-6.5194182
648,1747486253970,2.430566,-0.9015475,1.1665937,3.871171,-1.8157432,-6.456035
649,1747486253980,2.4120178,-0.9196077,1.1463369,4.020308,-1.8157432,-6.385728
650,1747486253990,2.3756533,-0.90740484,1.0777569,4.1502705,-1.7502295,-6.358031
651,1747486254000,2.208718,-0.8969103,0.8163715,4.2168493,-1.6831179,-6.2951803
652,1747486254010,1.9763756,-0.95340965,0.7078880700000001,4.162521,-1.6735305,-6.2062306
653,1747486254020,1.8946164,-0.9835507,0.6901939,4.1151166,-1.7395768,-6.067746
654,1747486254030,1.6993706,-1.0611609,0.6875093,4.16838,-1.8919097,-5.7822556
655,1747486254040,1.4528728,-1.1568314,0.7748818,4.3761063,-2.05383,-5.4445667
656,1747486254050,0.84663457,-1.1878266,0.7497439,5.177185,-3.007774,-4.9114017
657,1747486254060,0.544613735,-1.2058868500000002,0.369380615,5.554555199999999,-3.44586425,-4.511395
658,1747486254070,0.5320448,-1.1983211,0.16766733,5.575594,-3.5143075,-4.385161
659,1747486254080,0.7302193,-1.1951483,-0.56523657,5.1303134,-3.361442,-4.294614
660,1747486254090,0.7878168,-1.3213259,-1.1900232,4.0378847,-3.2911346,-4.446414
661,1747486254100,0.31654227,-1.5024164,-1.6273737,0.6045376,-2.64878,-4.9257827
662,1747486254110,-0.16351835,-1.8458049,-1.3689171,-1.5009576,-1.9222697,-4.8666606
663,1747486254120,-0.6914142,-2.301704,-0.7992875,-2.674879,-1.2447615,-4.6988816
664,1747486254130,-1.735247,-3.0263097,0.17157225,-3.2591765,-0.6492787,-4.4586644
665,1747486254140,-2.3824868,-3.388979,0.40733153,-2.819755,-0.3174488,-3.8019288
666,1747486254150,-2.954313,-3.6859968,0.35998443,-2.385127,-0.6327671,-3.1776838
667,1747486254160,-3.4348617,-3.8260856,0.15082738,-2.0943098,-0.97258645,-2.4138892
668,1747486254170,-3.5695813,-3.8292582,-0.11592719,-2.56728725,-0.8181231200000001,-1.13184345
669,1747486254180,-3.2239964,-3.6652515,-0.31678632,-3.0232205,-0.52411014,-0.6785734
670,1747486254190,-3.23998215,-3.66696,-0.241128565,-3.33108195,-0.201334995,-0.531566935
671,1747486254200,-3.3911755,-3.7382247,0.13691612,-3.86691,0.4676511,0.0015978967
672,1747486254210,-3.4900186,-3.7931376,0.47664383,-3.50551905,0.87431585,0.9060074
673,1747486254220,-3.4922152,-3.798751,0.7678041,-3.2778187,1.0002834,1.2554141
674,1747486254230,-3.2501104,-3.63205985,0.8428517,-2.50896405,1.1909657,1.9728698
675,1747486254240,-2.8593748000000003,-3.3628647000000003,0.781105215,-1.42931855,1.4655376,3.01736165
676,1747486254250,-2.710744,-3.2603607,0.64431113,-1.1185277,1.5494272,3.3443978
677,1747486254260,-1.53524205,-2.6188562500000003,0.041977847,-0.7725830499999999,1.83012435,4.81952275
678,1747486254270,-1.1324255,-2.396154,-0.009518232,-0.8410263,1.8892465,5.0972905
679,1747486254280,-0.6960513,-2.2304392,0.099575356,-0.9241169,1.834918,5.8488345
680,1747486254290,-0.2042759,-2.106214,0.20305562,-0.7824367,1.7630126,6.0810623
681,1747486254300,0.21232979,-1.9368384,0.2882316,-0.5022722,1.587244,6.2616243
682,1747486254310,0.5525456,-1.8050474,0.31605414,-0.1571265,1.3171995,6.4352627
683,1747486254320,1.1636649,-1.6610537,0.2294138,0.14221281,1.0615361,6.6280756
684,1747486254330,1.4985116,-1.5802706,0.21599068,0.40852892,0.9155948,7.1607075
685,1747486254340,2.0270174,-1.4700788500000002,0.17706354,0.33502567,1.0162623,7.359912
686,1747486254350,2.1938305,-1.4399377,0.18377511,0.070307456,1.3736585,7.4653735
687,1747486254360,2.44045045,-1.21174415,0.3385074,-0.237287665,1.70016205,7.4267573
688,1747486254370,2.4837706,-1.1207108,0.4041588,-0.34621096,1.7401094,7.39187
689,1747486254380,2.5691907,-1.0365112,0.45760733,-0.35260254,1.5845809,7.2896047
690,1747486254390,2.6050673,-0.97134787,0.44735694,-0.3472762,1.4721955,7.13887
691,1747486254400,2.6538785,-0.94206095,0.3704789,-0.42344263,1.375789,6.9961243
692,1747486254410,2.6792605,-0.8683557,0.2936009,-0.5933523,1.3017532,6.841661
693,1747486254420,2.5999417,-0.78757274,0.27529657,-0.86020106,1.274589,6.684002
694,1747486254430,2.5103729,-0.8022162,0.37999713,-1.6335831,1.5888419,6.507168
695,1747486254440,2.4626596000000003,-0.8332115,0.55828097,-2.0088224500000003,1.86847385,6.42168045
696,1747486254450,2.41250575,-0.83699433,0.64699578,-2.3065639,2.02666565,6.36761835
697,1747486254460,2.3785818,-0.83223516,0.68311626,-2.5028389,2.1209416,6.3457804
698,1747486254470,2.383219,-0.81539524,0.62259,-2.8442562,2.4282703,6.356433
699,1747486254480,2.400547,-0.78757274,0.59183884,-3.338539,2.9145637,6.3819995
700,1747486254490,2.4427688,-0.7507201,0.67530644,-3.862649,3.3289514,6.347911
701,1747486254500,2.4227564,-0.74437463,0.9508471,-4.159325,3.3939326,6.2387214
702,1747486254510,2.2328796,-0.73485637,1.7057161,-3.2538502,2.183792,6.056561
703,1747486254520,2.22519195,-0.78317975,1.752087,-2.2474417,1.48604385,6.0214075000000005
704,1747486254530,2.2406895,-0.7834238,1.7193834,-1.9515644,1.3187973,5.999037
705,1747486254540,2.335384,-0.71215904,1.547567,-1.5638082,1.2010857,5.820072
706,1747486254550,2.26668175,-0.50727298,1.2078392999999998,-1.60748405,1.4551512,5.2727928
707,1747486254560,2.16552,-0.4261239599999999,1.2589693,-1.7446368,1.6679378,5.201420150000001
708,1747486254570,2.1330605,-0.39366436,1.3147364,-1.8125474,1.7811222,5.191034
709,1747486254580,2.1965153,-0.36340126,1.5648952,-1.7864485,2.078331,5.191034
710,1747486254590,2.2375169,-0.35827604,1.7896718,-1.448227,2.51722,5.1159325
711,1747486254600,2.1152442,-0.3807293,1.9734468,-0.96619487,2.654639,5.1031494
712,1747486254610,2.18492245,-0.141797265,1.9602679,0.659665015,2.3955134,5.308479
713,1747486254620,2.3197641,-0.04515059,1.8658178,0.93636745,2.3121564,5.299158
714,1747486254630,2.7248993,0.16693515,1.4484798,1.1105382,2.3371902,5.1090083
715,1747486254640,2.7519896,0.29726174,1.0789771,0.8032094,2.7079022,4.926848
716,1747486254650,2.7166011,0.41294485,0.9113098,-0.4181163,4.232828,5.189436
717,1747486254660,3.0752434,0.4467468,1.009908875,-0.8295747,5.021922849999999,5.596367000000001
718,1747486254670,3.244253,0.49250755,1.0521308,-0.8612663,5.0749197,5.694904
719,1747486254680,3.4861137,0.608068625,1.04724965,-0.726244025,4.8043425,5.587046
720,1747486254690,4.05013,0.88934463,0.88836837,-0.2396845,3.7374804,5.090899
721,1747486254700,4.2058387,0.9974619,0.41294485,0.0479369,2.9523804,4.862932
722,1747486254710,4.7334905,1.5707525,0.11006982,0.49534798,1.0381002,4.939099
723,1747486254720,5.3214245,1.8728954,-0.13740423,0.7861652,0.06764429,4.7670584
724,1747486254730,5.7409587,2.1086547,-0.42124277,1.1147993,-0.4958806,4.5018077
725,1747486254740,5.984528,2.209206,-0.5735345,1.29909005,-0.6295713000000001,4.3606601000000005
726,1747486254750,6.322059,2.3078055,-0.7280228,2.227468,-0.73343456,3.7950046
727,1747486254760,7.29902,2.9180705500000004,-1.6882660500000002,3.99261105,-1.531584,1.8405107
728,1747486254770,7.370529,3.0111785,-1.9854058,4.1859565,-1.7688717,1.3054816
729,1747486254780,7.1989565,3.090985,-2.715137,3.814712,-2.0501015,0.13635385
730,1747486254790,6.97625425,3.12234635,-3.0117886,2.5220137,-1.9020296,-1.0460896
731,1747486254800,6.4864314,3.06657935,-3.3532245,-0.16165385,-0.73023875,-2.4072313
732,1747486254810,5.005736150000001,2.0577687,-1.71010915,-3.30578195,0.81572625,-4.12417125
733,1747486254820,4.7803493,1.8194468,-1.2881342,-3.7662425,1.1899004,-4.4799695
734,1747486254830,4.1680098,1.475082,-0.52789587,-4.042146,1.504686,-5.1553473
735,1747486254840,3.3103926,1.0365112,0.46688148,-3.4045851,0.54275227,-5.7897124
736,1747486254850,3.1600533,0.9108216,0.7922098,-2.9230857,-0.0314253,-6.0965085
737,1747486254860,2.90891825,0.723629735,1.14743515,-2.427205,-0.31638354,-6.327671
738,1747486254870,2.8039737,0.64772797,1.2654368,-1.953695,-0.36591834,-6.5077004
739,1747486254880,2.4786453,0.46590528,1.9495293,-0.42237735,-0.5161206,-6.7772126
740,1747486254890,2.3470986,0.294089,2.169913,0.66525763,-0.7419567,-6.86776
741,1747486254900,2.2709527,0.14692247,2.2404454,1.7651432,-0.9805759,-6.900783
742,1747486254910,2.3646708,0.015375607,2.0339732,2.8591697,-1.2623384,-7.041398
743,1747486254920,2.4427688,-0.07370529,1.4030851,3.2884715,-1.4775218,-7.2491245
744,1747486254930,2.519891,-0.22355644,1.4030851,3.3534524,-1.6069515,-7.4696345
745,1747486254940,2.519891,-0.22355644,1.4030851,3.25278495,-1.6181367,-7.56098075
746,1747486254950,2.5223315,-0.6894617,1.4504322,2.7510455,-1.8524948,-7.8834896
747,1747486254960,2.4549718,-0.81149036,1.7249967,2.8565066,-2.1283984,-7.9314265
748,1747486254970,2.374677,-0.93620354,1.9336655,3.0812774,-2.3313313,-7.9005337
749,1747486254980,2.3758973,-0.98818777,2.0303121500000003,3.6597161,-2.1379857,-7.6954703
750,1747486254990,2.3971303,-1.018939,2.0173774,3.7747645,-1.866876,-7.6741652
751,1747486255000,2.42056,-1.0001466,1.8892472,3.7470677,-1.6511599,-7.6576533
752,1747486255010,2.456192,-0.95938903,1.79919,3.6602488,-1.5590146,-7.6837525
753,1747486255020,2.506224,-0.9610975,1.7540395,3.5483959,-1.5659387,-7.7476683
754,1747486255030,2.3988385,-1.0006347,1.8265244,3.327886,-1.496164,-7.7652454
755,1747486255040,2.37870395,-1.0904478,1.96002375,3.290602,-1.3720607,-7.6560555
756,1747486255050,2.38004635,-1.11717205,2.1203695,3.3646379,-1.2159994,-7.5186367
757,1747486255060,2.3856597,-1.1204668,2.21604,3.5968654,-1.0162623,-7.416904
758,1747486255070,2.4427688,-1.0994779,2.0927908,4.2802324,-0.6402239,-7.245929
759,1747486255080,2.4818182,-1.0792211,1.9578272,4.4400225,-0.7483483,-7.2363415
760,1747486255090,2.44203675,-1.08751905,1.7434229,4.37397565,-0.87484845,-7.1303477
761,1747486255100,2.4249527,-1.0921562,1.6949776,4.316984,-0.9006811,-7.079215
762,1747486255110,2.24569285,-1.09837965,1.71230565,4.2088596,-1.01892545,-6.88373875
763,1747486255120,2.1630795,-1.1141213,1.7289016,4.1891522,-1.0657971,-6.751646
764,1747486255130,2.0349493,-1.1514622,1.8838779,4.416054,-1.0860372,-6.5540395
765,1747486255140,1.82420595,-1.2387126,1.8859524,4.825115,-1.0924287,-6.347911
766,1747486255150,1.58539595,-1.3193735,1.5641629,5.7822555,-1.53611135,-6.001699950000001
767,1747486255160,1.4465274,-1.3730661,1.2944796,6.136456,-1.8594191,-5.8674765
768,1747486255170,1.1773322,-1.4479916,0.9523114,6.167881,-2.1273332,-5.81155
769,1747486255180,0.78586435,-1.5434179,0.5620638,5.9702744,-2.1843247,-5.600628
770,1747486255190,0.53765815,-1.63738,-0.020012695,5.4360447,-2.0708742,-5.3731937
771,1747486255200,0.338629435,-1.85776385,-0.66774063,3.59553385,-1.8511633,-5.1452273
772,1747486255210,0.18084641,-1.9573392,-0.9271735,1.83944535,-1.52971975,-5.004346
773,1747486255220,-0.1799922225,-2.1634455,-0.939010235,0.6575345,-1.034105475,-4.8986185
774,1747486255230,-0.33753118,-2.263387,-0.9313224,0.175236,-0.79894835,-4.866128
775,1747486255240,-0.73388016,-2.5286772,-1.0174747,-0.68816084,-0.43569317,-4.8378987
776,1747486255250,-1.7833264,-3.2933085,-1.0335824,-1.4301175,-0.22370553,-4.736166
777,1747486255260,-2.1328163,-3.619369,-0.9303462,-2.211489,-0.2593919,-3.8578553
778,1747486255270,-2.3715043,-3.9198034,-0.9117979,-2.4144218,-0.24607609,-3.3039176
779,1747486255280,-2.5115932,-3.9782552,-0.848953165,-2.4266724,-0.105461181,-2.9587719000000003
780,1747486255290,-2.860595,-4.075024,-0.728999,-2.2935145,0.36751625,-1.7507621
781,1747486255300,-2.95772985,-3.91931525,-0.94132875,-1.8711369,0.49108692,-0.1006675
782,1747486255310,-2.9508963,-3.858301,-0.9862353,-1.6772588,0.5305017,0.7323693
783,1747486255320,-2.809099,-3.6964908,-1.0162543,-1.613343,0.77391464,1.2937636
784,1747486255330,-2.5896914,-3.5363896,-0.99453324,-1.567004,0.9534117,1.7465011
785,1747486255340,-2.4190955,-3.3055112,-0.967443,-1.5020229,1.055677,2.130529
786,1747486255350,-2.2367031666666666,-3.0860226,-0.9630499333333334,-1.4966966333333334,1.0929613333333332,2.7625858
787,1747486255360,-1.8525166,-2.75699275,-0.8845855,-1.546764,1.1659319,3.5910065
788,1747486255370,-1.7618494,-2.6838975,-0.8603018,-1.6463662,1.2506205,4.102866
789,1747486255380,-1.5353642,-2.5377073,-0.76853627,-1.8136127,1.3427658,4.608334
790,1747486255390,-0.93376297,-2.2375169,-0.439059,-2.056493,1.4935007,5.1494884
791,1747486255400,-0.48335539,-2.04385745,-0.07541369,-2.32813535,1.67353045,5.9180767
792,1747486255410,-0.1802362685,-1.91096825,0.13972277,-2.3153522,1.6772588,6.03206
793,1747486255420,-0.030507157,-1.8497099,0.23185438,-2.2082932,1.6687368,6.2206116
794,1747486255430,0.49824288,-1.6772834,0.463220645,-1.95982035,1.5219966,6.4096962
795,1747486255440,0.89898488,-1.52157495,0.5175233850000001,-1.83172225,1.3206616,6.5961175
796,1747486255450,1.1399914,-1.4304196,0.520086,-1.7965685,1.1920309,6.735667
797,1747486255460,1.5485432499999998,-1.41602015,0.59818432,-2.0682108,1.2602079,6.952981
798,1747486255470,1.6827747,-1.4233419,0.65065664,-2.3579628,1.4157364,7.128217
799,1747486255480,1.9811348,-1.4867968,1.06726235,-2.660498,1.5579493,7.318367
800,1747486255490,2.1413583000000003,-1.4780107,1.4312737,-2.509763,1.577124,7.7868168
801,1747486255500,2.315493,-1.42639255,1.5788063,-2.169411,1.47272815,7.91251805
802,1747486255510,2.5173284,-1.31046535,1.64860675,-1.74730005,1.30734585,7.94048125
803,1747486255520,2.5938404,-1.2329772,1.6503152,-1.5233282,1.2197278,7.930894
804,1747486255530,2.8158104,-0.93632562,1.40003435,-1.1054781500000002,1.1624698,7.75432625
805,1747486255540,2.9566315,-0.69043797,1.17001035,-1.1472898,1.3608753,7.528224
806,1747486255550,3.0076395,-0.55022707,1.0182068,-1.459146,1.6042882500000002,7.317834250000001
807,1747486255560,2.99982965,-0.471640645,0.91631297,-1.90202975,1.8642128,7.07442125
808,1747486255570,2.9816473,-0.44564855,0.87909424,-2.1481059,1.9963056,6.946057
809,1747486255580,2.74845075,-0.542539275,0.98757765,-3.2911345,2.7206855,6.418484749999999
810,1747486255590,2.6919515,-0.5864696,1.0216236,-3.482882,2.845854,6.3441825
811,1747486255600,2.5430765,-0.6787232,1.087275,-3.8067226,2.994991,6.274408
812,1747486255610,2.4227564,-0.78464407,1.1756238,-4.0527987,2.99073,6.287191
813,1747486255620,2.3607657,-0.86274236,1.3393861,-4.130563,2.7643614,6.318616
814,1747486255630,2.4344711,-0.8107582,1.5585496,-3.623497,1.9963056,6.1716094
815,1747486255640,2.3433157,-0.68567885,1.4460392,-3.29672715,1.66420935,6.027799
816,1747486255650,2.306585,-0.6299118,1.3903941,-3.23174595,1.5795208500000002,5.9902485
817,1747486255660,2.335384,-0.4881145,1.2795922,-3.2320123,1.5717977,5.978797
818,1747486255670,2.4366674,-0.3572998,1.1546348,-3.3523872,1.7022926,5.893043
819,1747486255680,2.3577149,-0.2788354199999999,1.32242415,-3.7055223,2.1784658,5.477057
820,1747486255690,2.272661,-0.29116032,1.4201691,-3.6804886,2.4266725,5.2970276
821,1747486255700,2.0766833,-0.32020313,1.6080933,-3.3550503,2.6104305,5.2480254
822,1747486255710,2.0317764,-0.4166057,1.6944895,-2.95025,2.5869946,5.2677326
823,1747486255720,2.1372094,-0.13911264,1.4074782,-1.9504992,1.9909793,5.1889033
824,1747486255730,2.32696395,0.4528482299999999,0.757675725,-1.4125406,1.39789325,4.7308395
825,1747486255740,2.40237765,0.8789722,0.111778225,-1.6160061,1.2069446,4.3492085
826,1747486255750,2.4239767,1.1002101,-0.2523552,-2.44930925,1.47059755,3.97210485
827,1747486255760,2.3807786,1.359399,-0.80685323,-4.42564125,2.4780715,3.55958115
828,1747486255770,2.186753,1.4846002,-0.6897058,-5.828062,3.2107072,3.3257556
829,1747486255780,2.0481284,1.5031487,-0.1044565,-6.698383,3.5238948,3.3880737
830,1747486255790,2.1874852,1.5580615,0.5269196,-6.5971828,3.1201596,3.594735
831,1747486255800,2.6084838,1.7642899,0.9886759,-5.920207,2.2514365,3.8195057
832,1747486255810,3.24889,2.0947433,1.1927078,-4.9625344,1.0578076,3.8173752
833,1747486255820,4.801338,3.1744528,1.5712405,-2.3813987,-1.4812502,3.0402648
834,1747486255830,5.2455225,3.5117397,1.4653198,-1.1366372,-2.0991037,2.5065672
835,1747486255840,5.700201,3.7228491,1.1961246,-0.24074976,-2.2295985,1.9510318
836,1747486255850,6.254455,3.8131506,0.8851956,0.2146508,-2.1379857,1.2229236
837,1747486255860,6.604433,3.7069855,0.60721445,0.16458336,-1.7070863,0.128897
838,1747486255870,6.36537925,2.90952845,0.6194172849999999,-0.82078624,-0.62264705,-1.3704628
839,1747486255880,6.292528,2.7241669,0.71020657,-1.3896375,-0.046871636,-1.9611518
840,1747486255890,6.118759,2.4537516,0.9862353,-1.7731327,0.49960902,-2.530003
841,1747486255900,5.848832,2.1923664,1.2227268,-1.9249328,1.0530139,-3.0578415
842,1747486255910,4.8241578,1.4874069,1.57416925,-1.31293845,2.2538332,-4.24827485
843,1747486255920,4.573877,1.3420708,1.6041883,-1.0615361,2.4149544,-4.443751
844,1747486255930,4.093572,1.0575,1.5954022,-0.45007423,2.4048345,-4.6797066
845,1747486255940,3.7377367,0.8232051,1.6271297,0.43782368,1.9275961,-4.8480186
846,1747486255950,3.234979,0.545712,1.8084643,1.2681973,1.32945,-4.952947
847,1747486255960,3.09525605,0.5155709749999999,1.66874145,2.99179515,0.4447479,-5.1753212
848,1747486255970,3.0502276,0.52911615,1.6032121,3.2197618,0.3818973,-5.2352424
849,1747486255980,3.0407093,0.54668826,1.3611072,3.444,0.40426785,-5.3971624
850,1747486255990,3.0775619,0.5276518,1.1846539,3.4551852,0.51026165,-5.666674
851,1747486256000,3.040221,0.47762007,1.104603,3.3625073,0.6993461,-5.9644156
852,1747486256010,2.8918345,0.15863721,1.1875826,3.2474587,0.9576728,-6.5353975
853,1747486256020,2.7395427,-0.15229172,1.3464638,3.4424021,0.82877576,-6.838465
854,1747486256030,2.5777326,-0.45077375,1.513399,3.7854173,0.52624065,-7.0057116
855,1747486256040,2.29218565,-0.9881878,1.65592835,4.51112865,-0.109722235,-7.10797715
856,1747486256050,2.1268368,-1.30875695,1.64689825,4.7622647,-0.35420042,-7.1218257
857,1747486256060,2.084981,-1.3889297,1.6259093,5.491971,-1.4258565,-7.1069117
858,1747486256070,2.0359256,-1.4916779,1.5492754,5.6288576,-1.7880464,-7.055779
859,1747486256080,2.0620399,-1.5353642,1.4938743,5.603291,-2.0367856,-6.967895
860,1747486256090,2.1760144,-1.5780742,1.4501882,5.4200654,-2.176868,-6.891196
861,1747486256100,2.5338024,-1.5778301,1.5786843,4.67810885,-1.876996,-6.702643849999999
862,1747486256110,2.6326456,-1.5875924,1.6381122,4.568919,-1.8114822,-6.6914587
863,1747486256120,2.852297,-1.619808,1.8345783,4.5295043,-1.7827201,-6.768158
864,1747486256130,2.852297,-1.619808,1.8345783,4.5295043,-1.7827201,-6.768158
865,1747486256140,2.7056186,-1.6815544,2.2553332,5.432849,-2.0490363,-6.9103703
866,1747486256150,2.5726075,-1.6747209,2.2516723,5.9644156,-2.283927,-6.935937
867,1747486256160,2.395666,-1.7232883,2.097184,6.4656224,-2.5497105,-6.937535
868,1747486256170,2.1816278,-1.7994341,1.8826576,6.8176928,-2.9177594,-6.90824
869,1747486256180,1.9756435,-1.820911,1.6612977,7.016897,-3.4738274,-6.748983
870,1747486256190,1.8133454,-1.8323817,1.3249868,6.931676,-3.7513287,-6.524745
871,1747486256200,1.69473355,-1.54890935,0.655659795,6.108759,-3.9105859,-6.0688114
872,1747486256210,1.7376877,-1.4799632,0.53350914,5.4493604,-3.6788907,-5.980395
873,1747486256220,1.6996148,-1.343047,0.24918245,4.6093993,-3.2655683,-5.946839
874,1747486256230,1.4658079,-1.308635,0.084687866,3.6586509,-2.8064392,-5.870672
875,1747486256240,1.1534146,-1.3445114,0.08859278,2.7409256,-2.3627565,-5.690643
876,1747486256250,0.5093474499999999,-1.6011376,0.47066441,1.4820492,-1.58617875,-4.8669268500000005
877,1747486256260,0.345341,-1.6569047,0.5520575,1.4333134,-1.5446335,-4.6339
878,1747486256270,-0.0021965152,-1.7533073,0.4971446,1.5259913,-1.8397117,-4.182228
879,1747486256280,-0.54046479,-1.78540085,0.47932843,2.2383869,-2.89938355,-3.4344126
880,1747486256290,-0.80587706,-1.79345475,0.304217355,2.6823358500000003,-3.2629051,-3.17422175
881,1747486256300,-0.97037166,-1.7843026,0.15326795,2.8815403,-3.4344127,-3.0141659
882,1747486256310,-1.0267489,-1.7869871,-0.3990336,2.915629,-3.6879456,-2.5209484
883,1747486256320,-0.8463905,-1.8973011,-1.0589644,2.2572954,-3.8392131,-2.1252027
884,1747486256330,-0.9349833,-1.8487337,-1.5085179,-1.0247844,-2.7824707,-1.5707325
885,1747486256340,-0.97452056,-1.9290285,-1.1914874,-2.4021714,-1.695901,-1.417867
886,1747486256350,-1.1248599,-2.080832,-0.7905014,-3.3699641,-0.6945524,-1.3262542
887,1747486256360,-1.3674527,-2.212867,-0.29945824,-3.764112,-0.15339808,-1.3406353
888,1747486256370,-1.7384197,-2.3390448,0.0622346,-3.671434,-0.022903185,-1.4796523
889,1747486256380,-2.3257435,-2.5434426,0.1784058499999999,-3.1593081,-0.3837615175,-1.36673425
890,1747486256390,-3.3452926,-2.8161767,0.15692882,-2.20563,-1.3763217,-0.6945524
891,1747486256400,-3.4341295,-2.8291116,0.0053692595,-2.0293288,-1.7022926,-0.083090626
892,1747486256410,-3.3357744,-2.8115394,-0.12129646,-2.1789985,-1.4647386,0.4213121
893,1747486256420,-3.3706746,-2.693904,-0.18963248,-2.7494476,-0.59122175,0.9321064
894,1747486256430,-3.4248552,-2.6924396,-0.08151512,-3.8472025,0.9582054,1.7571537
895,1747486256440,-3.3992295,-2.7680972,0.18279888,-4.091681,1.6266588,2.20563
896,1747486256450,-3.3240597,-2.7988486,0.51569295,-3.8717036,1.973935,2.6828685
897,1747486256460,-3.1888518,-2.7607756,0.690438,-3.2650356,1.9813919,3.246926
898,1747486256470,-2.5779767,-2.5464933,0.5191097,-1.6660736,1.6138756,4.557734
899,1747486256480,-2.1264708,-2.4315424,0.24771811,-1.0066749,1.4689997,5.1612062
900,1747486256490,-1.6749649,-2.2885249,-0.048323333,-0.57790595,1.3880396,5.7156763
901,1747486256500,-0.8395569,-2.1140238,-0.4648069999999999,-0.4093278649999999,1.2351741,6.46722055
902,1747486256510,-0.5940353,-2.0520332,-0.5718261,-0.44421527,1.1680624,6.6451197
903,1747486256520,0.4087959,-1.8348224,-0.66969305,-0.8990832,0.8362326,7.091998
904,1747486256530,0.8715284,-1.7542835,-0.5767073,-1.1233214,0.680704,7.1916003
905,1747486256540,1.2969202,-1.7076685,-0.4144092,-1.3038837,0.535828,7.257114
906,1747486256550,1.64152905,-1.66825335,-0.0872504635,-1.4138722499999998,0.40187103,7.40065865
907,1747486256560,1.7201155,-1.6571487,0.035144243,-1.4109428,0.3930826,7.4680367
908,1747486256570,2.0788796,-1.6259093,0.2967736,-1.206412,0.8266452,7.944742
909,1747486256580,2.2614346,-1.5839316,0.24283697,-1.2697952,0.99708754,8.122642
910,1747486256590,2.387612,-1.5182801,0.16400647,-1.5361114,1.1217234,8.289355
911,1747486256600,2.7075711,-1.38209615,0.267242685,-2.021073,1.29056785,8.4193175
912,1747486256610,3.188486,-1.19685675,0.480182635,-2.5060346,1.4594123,8.54928
913,1747486256620,3.3494418,-1.1478013,0.58988637,-3.2346754,1.3986923,8.100271
914,1747486256630,3.5483484,-1.1124129,0.7402256,-3.498861,1.24849,7.587346
915,1747486256640,3.5280917,-1.0972813,0.81271064,-3.8338869,1.2101405,7.0222235
916,1747486256650,3.3755558,-1.1292529,0.9405966,-4.2514706,1.3145363,6.539126
917,1747486256660,2.967248,-1.2546983,1.2307807,-5.2094094,2.3337281,5.71008395
918,1747486256670,2.7478404,-1.2595794,1.3357253,-5.3460298,2.4991105,5.5926385
919,1747486256680,2.5267248,-1.2598236,1.4987555,-5.4664044,2.6802053,5.389173
920,1747486256690,2.306585,-1.2771516,1.6830187,-5.3747916,2.7760792,5.220861
921,1747486256700,2.175038,-1.3403623,1.9036466,-5.007808,2.6999128,5.092497
922,1747486256710,1.80895235,-1.2743449,2.09779405,-3.185407,1.7590179,5.00461245
923,1747486256720,1.768683,-1.2385906,2.0854692,-2.7563717,1.4551512,4.9886336
924,1747486256730,1.683873,-1.13633055,1.8907114,-1.43118282,0.511326945,4.95347975
925,1747486256740,1.6549523,-1.1065556,1.8072438,-0.96566224,0.19387813,4.950284
926,1747486256750,1.6432374,-1.0113733,1.3603752,-0.4149205,-0.058056913,5.011004
927,1747486256760,1.6591012,-0.92400074,1.2251674,0.23861924,-0.056459017,5.1830444
928,1747486256770,1.7364672,-0.86664724,1.1092402,0.44368264,0.06924219,5.2496233
929,1747486256780,1.7374434,-0.75389284,1.0038075,0.5928197,0.24660872,5.2885056
930,1747486256790,1.90633105,-0.60941095,0.79550455,0.652474485,0.50600062,5.20328415
931,1747486256800,1.9705181,-0.545468,0.7228975,0.6428871,0.55766594,5.1468253
932,1747486256810,1.9959,-0.36510965,0.6909261,0.6247776,0.4644553,4.9635997
933,1747486256820,2.1171966,-0.10396838,0.5142286,0.60293967,0.54168695,4.924185
934,1747486256830,2.44923655,0.320691235,0.0383169949999999,0.3787015,0.7888283,4.7809067
935,1747486256840,2.5677264,0.47932845,-0.13935669,-0.15020229,1.0205233,4.4458814
936,1747486256850,2.48938395,1.0671403499999998,-0.5204521,-2.5630263,1.7963022,3.57609285
937,1747486256860,2.4535077,1.0801975,-0.4617563,-3.1009848,2.0367856,3.4866107
938,1747486256870,2.1880953,1.11070455,0.0486894249999999,-4.2232409,2.5824673,3.60884965
939,1747486256880,2.1518528,1.1404796,0.26284966,-4.475176,2.6349316,3.7033918
940,1747486256890,2.3014598,1.4484798,0.5962319,-4.5263085,2.294047,3.9004657
941,1747486256900,3.3408997,2.3248894,0.74486274,-3.6964676,0.22423817,3.8237667
942,1747486256910,4.0375608,3.01447305,0.8489530999999999,-2.5840652000000004,-1.56620505,3.37129575
943,1747486256920,4.3010206,3.248646,0.8817788,-2.1683457,-2.0634172,3.202185
944,1747486256930,4.786939,3.7528682,0.899595,-1.3049489,-2.4522388,2.8410604
945,1747486256940,5.2147713,4.297116,0.9010593,-0.48948902,-2.4234767,2.3915186
946,1747486256950,6.4828925,4.523113,0.3738957,0.32277513,-1.9318571,0.47351006
947,1747486256960,6.52365015,4.01754835,0.287499425,0.2860235,-1.5595472,-0.64714813
948,1747486256970,6.4555583,3.7760537,0.3018988,0.08841695,-1.2868395,-1.6138756
949,1747486256980,6.2083282,3.1534636,0.3133695,-0.44794372,-0.82185155,-2.4671526
950,1747486256990,5.503003100000001,2.0852251500000003,0.59757419,-1.6985642,0.2383529399999999,-3.217365
951,1747486257000,5.1513166,1.6725243,0.8102701,-2.3110912,0.82185155,-3.5169706
952,1747486257010,4.8511257,1.3884417,1.1736712,-2.5337315,1.4205302,-3.7997983
953,1747486257020,4.574853,1.1124129,1.6098017,-2.3494408,1.8503643,-4.093279
954,1747486257030,4.037195,0.6994681,2.1049938,-0.7930894,2.0772657,-4.6413574
955,1747486257040,3.6481678,0.41416515,2.08009995,0.2561961,1.7827201,-4.8480186
956,1747486257050,3.5022216,0.336799,2.0727782,1.3385048,1.1957593,-5.011004
957,1747486257060,3.141871,0.20171331,1.76441185,2.89565515,0.0551274349999999,-5.1593420000000005
958,1747486257070,3.0668235,0.16766733,1.6237129,3.2229576,-0.22370553,-5.200621
959,1747486257080,2.7898185,0.122760795,0.9654905,3.3886063,-0.4101268,-5.3225937
960,1747486257090,2.6580274,0.10323621,0.7133793,2.99073,-0.14753912,-5.3662696
961,1747486257100,2.536975,0.10640897,0.63113207,2.4730115,0.20879184,-5.4126086
962,1747486257110,2.4068928,0.07443746,0.66847277,1.988316,0.57098174,-5.458415
963,1747486257120,2.0866895,-0.06638357,0.967443,1.4594123,1.0988203,-5.509015
964,1747486257130,1.9749112,-0.14570218,1.1204668,1.5425029,1.2468921,-5.5505605
965,1747486257140,1.9331775,-0.2306341,1.2869139,1.8141453,1.2154667,-5.641108
966,1747486257150,1.81480965,-0.3227657,1.4230978,2.5278726,0.9456885,-5.8253986
967,1747486257160,1.7720996,-0.3521746,1.4443307,2.7968519,0.8362326,-5.8813252
968,1747486257170,1.7251186,-0.52997029,1.2515256,4.069043799999999,0.0468716399999999,-6.1790664
969,1747486257180,1.7169427,-0.5637722,1.1817253,4.274906,-0.14327806,-6.2456455
970,1747486257190,1.7389079,-0.63308454,0.99038434,4.5023403,-0.43196473,-6.3468456
971,1747486257200,1.83982555,-0.7052034,0.7870846499999999,4.438158,-0.5960154550000001,-6.4560352000000005
972,1747486257210,1.8704547,-0.7226535,0.7407138,4.3697147,-0.60240704,-6.492787
973,1747486257220,1.9500173,-0.8075854,0.70459324,3.9665122,-0.45380265,-6.599846
974,1747486257230,1.9500173,-0.8075854,0.70459324,3.9665122,-0.45380265,-6.599846
975,1747486257240,2.016645,-0.86469483,0.686289,3.5819516,-0.43888897,-6.6131616
976,1747486257250,2.0541078,-0.863718595,0.7270465500000001,3.503921,-0.51745221,-6.6435218
977,1747486257260,2.0903504,-0.9316885,0.986967515,3.3481262000000003,-0.8655274,-6.787865249999999
978,1747486257270,2.075707,-0.9459658,1.014546,3.3310819,-0.9464875,-6.8208885
979,1747486257280,2.0234787,-0.9513352,1.0533512,3.3688989,-0.9470201,-6.816627
980,1747486257290,1.9514818,-0.9706156,1.0550594,3.4232273,-0.8974853,-6.779343
981,1747486257300,1.8362867,-0.96353805,1.0218678,3.482882,-0.813862,-6.6717515
982,1747486257310,1.7674625,-0.9798898,0.92180425,3.5276232,-0.76592517,-6.4485784
983,1747486257320,1.7667305,-1.0169866,0.84907514,3.4791536,-0.82185155,-6.342052
984,1747486257330,1.8048034,-1.0509106,0.7897693,3.3662357,-0.8831042,-6.239254
985,1747486257340,1.8109047,-1.073852,0.7297312,3.2069786,-0.912399,-6.147641
986,1747486257350,1.7852788,-1.0941086,0.71264714,2.9278793,-0.85673892,-5.989716
987,1747486257360,1.6505592,-1.0728757,0.7592621,2.838397,-0.8021441,-5.938317
988,1747486257370,1.4809394,-1.0704352,0.8112463,2.7702203,-0.4841627,-5.6922407
989,1747486257380,1.2805684,-1.0492021,0.81930023,2.9555762,-0.45327002,-5.4674697
990,1747486257390,1.0873971,-1.0450532,0.8030704,3.3848778,-0.5510080500000001,-5.21473575
991,1747486257400,1.0101529,-1.0609169,0.78635246,3.5542548,-0.5933523,-5.126585
992,1747486257410,0.62002745,-1.1735493,0.4482111599999999,4.137487,-1.0727214,-4.728176
993,1747486257420,0.5208182,-1.1827015,0.36706212,4.3079295,-1.5398397,-4.4821
994,1747486257430,0.3734076,-1.159272,0.23405088,4.385161,-2.021872,-4.1907506
995,1747486257440,0.2818861,-1.1492655,0.11690342,4.347877,-2.2945797,-3.9382827
996,1747486257450,0.1486308535,-1.3085129,-0.11348662,4.1574609,-2.1686121,-3.8847532
997,1747486257460,-0.3227657115,-1.5351201,-0.48701626,3.3174999,-1.6242619500000002,-4.00912275
998,1747486257470,-0.66090703,-1.6024799,-0.63015586,3.0274816,-1.5164039,-4.004329
999,1747486257480,-1.3696493,-1.7281694,-0.95694846,2.1459754,-1.4476944,-3.5654402
1000,1747486257490,-1.7437891,-1.8267684,-1.1563432,1.0460896,-1.3491575,-2.9332056
1001,1747486257500,-1.6695957,-2.025675,-0.89617825,-1.0471549,-0.7462177,-2.0698087
