id,timestamp,acc_x,acc_y,acc_z,gyro_x,gyro_y,gyro_z
1,1747486607550,-0.2638259,0.11861181,0.90130347,-0.3073288,0.11132014,0.077231675
2,1747486607560,-0.728999,-1.3574464,-0.15546446,-1.2000204,0.22903186,8.206798
3,1747486607570,-0.294089,-1.4977793,-0.18182266,-1.2357068,0.05752428,8.931177
4,1747486607580,0.28115395,-1.645434,-0.19841854,-1.2895026,-0.21837921,9.549563
5,1747486607590,0.9706156,-1.7752724,-0.21257387,-1.3677995,-0.51718587,10.001235
6,1747486607600,1.679358,-1.8599603,-0.2550398,-1.5030881,-0.7584683,10.304303
7,1747486607610,2.63569625,-1.82835485,-0.27688294,-1.9965719,-1.0109359,11.034542
8,1747486607620,3.0368044,-1.7813739,-0.26553428,-2.2844596,-1.0594054,11.495269
9,1747486607630,3.3982532,-1.7877192,-0.19085276,-2.6402578,-0.7057377,12.169048
10,1747486607640,4.53787825,-1.7683168,0.2706594989499999,-2.8043087,-0.4889564,12.483834
11,1747486607650,5.231611,-1.60650685,0.57878175,-1.9369171,-0.98483703,10.9668975
12,1747486607660,5.3050723,-1.5268221,0.61819696,-1.6319852,-1.073254,10.385263
13,1747486607670,5.162787,-1.3437792,0.5869577,-1.063134,-1.1478225,9.263007
14,1747486607680,4.544834,-1.1573195,0.413677,-0.8753811,-0.95900435,8.786301
15,1747486607690,3.6332803,-1.10301675,0.08627423,-0.78243675,-0.5933523,8.418518500000001
16,1747486607700,3.32540195,-1.018939065,-0.068458058,-1.35341855,0.0151800149999999,8.9237205
17,1747486607710,3.40716125,-0.869820065,-0.0949382679999999,-2.07513525,0.584031215,9.2808505
18,1747486607720,3.4761076,-0.7839119,-0.09030118,-2.3206787,0.721184,9.241702
19,1747486607730,3.50454,-0.648948215,0.332405955,-2.5694178,0.62211445,8.538628
20,1747486607740,3.49538785,-0.3342363985,0.86847765,-1.64503465,0.05592638,7.462977
21,1747486607750,3.3592039,0.1211744214999999,1.1281546,-0.26871296,-0.46711847,6.219813
22,1747486607760,2.98030505,0.458949645,0.953043565,0.64288709,-0.6245113,5.4075487
23,1747486607770,2.753942,0.61844105,0.82344913,1.0349044,-0.67324716,5.0568104
24,1747486607780,2.1762585000000003,1.10997235,0.30946458,1.57632505,-0.44687845,4.3609264
25,1747486607790,1.9260999,1.4080883000000002,-0.039171185,1.4897722999999998,-0.0455400499999999,3.63414965
26,1747486607800,1.88461015,1.52694415,-0.231732345,1.1198592,0.344879375,2.84478865
27,1747486607810,1.8829017,1.5783182,-0.31068486,0.932639,0.46339005,2.5800705
28,1747486607820,1.9712504,1.6805782,-0.4612682,0.53795856,0.6828345,1.9259981
29,1747486607830,1.9810127,1.786255,-0.63064396,0.128897,0.86606,1.1787151
30,1747486607840,1.8836339,1.900718,-0.8600578,-0.39734364,0.9262474,0.46871635
31,1747486607850,1.7481819,1.9434278,-0.9723241,-1.8908445,0.46498793,-0.55606806
32,1747486607860,1.8133454,1.8636211,-0.6711574,-2.4410534,0.15925704,-0.9054748
33,1747486607870,1.9705181,1.7884516,-0.23771177,-2.6061695,-0.1603223,-1.2825783
34,1747486607880,2.1752822,1.7757605,0.19548985,-2.3792682,-0.22849922,-1.5680692
35,1747486607890,2.6631527,1.8394594,0.37194324,-1.5675366,0.15286545,-2.398443
36,1747486607900,2.8283794,1.8794849,0.12983845,-1.3880396,0.3787015,-2.968892
37,1747486607910,3.0953781,1.8683802,-0.237711765,-1.6274578000000002,0.424241575,-3.90153115
38,1747486607920,3.18934,1.8362867,-0.32166746,-1.7720674,0.37763625,-4.20886
39,1747486607930,3.3509061,1.6735007,-0.26748675,-2.0953753,0.16245283,-4.7452207
40,1747486607940,3.6005766,1.4728855,-0.06467517,-2.283927,-0.05486112,-5.2043495
41,1747486607950,4.1296926,1.0387076,0.4036707,-2.1108215,-0.26897928,-6.075736
42,1747486607960,4.3542256,0.8759214,0.54912883,-1.8823223,-0.15020229,-6.409696
43,1747486607970,4.5772934,0.77951884,0.6023333,-1.6559536,-0.020772656,-6.727145
44,1747486607980,4.7979217,0.7082541,0.6050179,-1.4801849,0.08468852,-7.0435286
45,1747486607990,4.8974967,0.6389419,0.58280873,-1.3566142,0.29134983,-7.2826805
46,1747486608000,5.2054973,0.6133158,0.6994681,-1.010936,0.71319455,-7.697601
47,1747486608010,5.2921376,0.52033,0.8088057,-0.67324716,0.85966843,-7.9383507
48,1747486608020,5.331187,0.34509695,0.88934463,-0.19281286,1.0263823,-8.274442
49,1747486608030,5.206229,0.10396838,0.92400074,0.5906891,1.3331785,-8.739963
50,1747486608040,4.765218,-0.21257387,0.84834296,1.3081448,1.6399746,-9.036106
51,1747486608050,3.559331,-0.81319875,0.51788944,2.5971148,1.7534252,-9.147959
52,1747486608060,3.0070293,-1.0338265,0.26187342,3.0216227,1.6271914,-8.966864
53,1747486608070,2.2838876,-1.3396302,-0.07614586,3.365703,1.139833,-8.4960165
54,1747486608080,2.1237862,-1.4499441,-0.16010156,3.3923347,0.99762017,-8.274442
55,1747486608090,1.9946798,-1.4863087,-0.26699865,3.3044503,0.9214538,-8.069378
56,1747486608100,1.9104803,-1.4865527,-0.3687705,3.067429,0.9012137,-7.8637824
57,1747486608110,1.9087718,-1.5980868,-0.3192269,2.3366575,1.1675298,-7.642207
58,1747486608120,1.8416561,-1.7408603,-0.29482117,2.0698087,1.5227956,-7.704525
59,1747486608130,1.6490947,-1.9341537,-0.29579738,1.8184065,1.9323897,-7.7865505
60,1747486608140,1.3894179,-2.1335485,-0.30287504,1.5888419,2.1784658,-7.7790937
61,1747486608150,1.1365746,-2.2707086,-0.35559142,1.4114754,2.0969732,-7.5750957
62,1747486608160,0.7831797,-2.3422174,-0.4566311,1.1936288,1.8397117,-7.1521854
63,1747486608170,0.5435155,-2.3156152,-0.5271637,0.88683265,1.5579493,-6.5465827
64,1747486608180,0.5435155,-2.3156152,-0.5271637,0.502272185,1.39656175,-5.98438935
65,1747486608190,0.6961733,-2.12500655,-0.58049017,-0.37071204,1.1345067,-5.1420317
66,1747486608200,0.5930591,-2.0276275,-0.5459561,-0.74781567,1.1132014,-4.999286
67,1747486608210,0.36022848,-2.017133,-0.4876264,-1.31427,1.22318995,-4.4914213
68,1747486608220,-0.18621568,-2.0705817,-0.28408262,-1.5318503,1.29909,-4.189685
69,1747486608230,-0.528628,-2.059111,-0.1666911,-1.526524,1.3406353,-3.7209687
70,1747486608240,-0.76463133,-2.084493,-0.11299851,-1.3752564,1.3528858,-3.1664987
71,1747486608250,-1.239200615,-2.04519985,-0.11641531,-1.073254,1.3358417,-2.5790052
72,1747486608260,-1.4902135,-1.9941918,-0.16058967,-0.15978967,1.0647318,-1.0604708
73,1747486608270,-1.7025435,-1.9322013,-0.28164205,0.15659387,0.82611257,-0.29348037
74,1747486608280,-1.8131012,-1.8553232,-0.41514137,0.35899413,0.54914385,0.47830373
75,1747486608290,-1.8109047,-1.7293897,-0.5120321,0.44847634,0.25300032,1.1813782
76,1747486608300,-1.6776495,-1.5746574,-0.6101431,0.4527374,-0.025566347,1.7390442
77,1747486608310,-1.4780107,-1.2708061,-0.677747,0.16884442,-0.5209143,2.6221485
78,1747486608320,-1.4545813,-1.125348,-0.6233222,-0.04474111,-0.54275227,3.0956585
79,1747486608330,-1.4289552,-1.002099,-0.52496713,-0.257794,-0.34088463,3.6139097
80,1747486608340,-1.3493925,-0.921072,-0.41465324,-0.47723848,-0.0314253,4.200338
81,1747486608350,-1.2161373,-0.9396204,-0.2186753,-0.74728304,0.49694586,5.0088735
82,1747486608360,-0.7585299,-0.96671075,-0.127886,-0.9869675,1.3603427,6.2051654
83,1747486608370,-0.5464442,-1.0492021,-0.07516963,-0.95234644,1.6181368,6.762831
84,1747486608380,-0.27358818,-1.1492655,-0.026846299,-0.8085357,1.591505,7.355651
85,1747486608390,0.084687866,-1.2498171,-0.00024405724,-0.5411543,1.2410331,7.9468727
86,1747486608400,1.1377949,-1.3042419,-0.113974735,0.07829694,-0.039947417,8.939167
87,1747486608410,1.683263,-1.2773956,-0.17328064,0.2615224,-0.4000068,9.358881
88,1747486608420,2.0664327,-1.1795286,-0.24332508,0.33502567,-0.27004454,9.958092
89,1747486608430,2.2788845,-1.14889945,-0.31556603,0.1920139165,-0.03834952,10.4244115
90,1747486608440,2.7920148,-1.1585398,-0.43027294,-0.4788364,0.6359629,11.546934
91,1747486608450,3.2266808,-1.3528093,-0.34729347,-1.037035,1.0492855,12.107796
92,1747486608460,5.493973,-1.4028411,-0.39854547,-1.9105518,0.81705785,11.060641
93,1747486608470,5.230147,-1.2100358,-0.4283205,-2.4282703,0.6066681,9.745039
94,1747486608480,4.5426373,-1.2861817,-0.14252943,-2.9087045,0.046871636,9.130915
95,1747486608490,3.8138824,-1.8484896,0.6216138,-2.8229508,-0.41172472,9.962353
96,1747486608500,3.7936256,-2.0015135,0.91375035,-2.14491,-0.17097494,10.759704
97,1747486608510,3.9688592,-2.0149367,1.0140579,-1.4769892,-0.0628506,11.296597
98,1747486608520,4.2614837,-1.9373264,0.88934463,-0.892159,0.0015978967,11.545869
99,1747486608530,4.6234207,-1.756724,0.55059314,-0.6530071,0.087884314,11.364774
100,1747486608540,5.1488757,-1.4340804,0.19939478,-0.84635264,0.10759171,10.614295
101,1747486608550,5.077123,-0.24845028,-0.13447554,-1.9041603,0.40746364,7.8584557
102,1747486608560,4.4789386,0.2111095,0.021965152,-2.3116238,0.66525763,6.5806713
103,1747486608570,3.8024118,0.56474847,0.40708748,-2.326005,0.84422207,5.6576195
104,1747486608580,3.2327824,0.89349353,0.7397375,-1.8727349,0.84848315,4.9987535
105,1747486608590,2.792259,1.1739154,0.7670719,-1.1627362,0.43249738,4.2733083
106,1747486608600,2.0857131,1.5609902,0.55620646,-0.62850602,-0.216515,2.56755365
107,1747486608610,1.8150537,1.6317668,0.5015376,-0.58909124,-0.12516858,2.275405
108,1747486608620,1.6127303,1.6305465,0.44369608,-0.52144694,0.2593919,1.8210696
109,1747486608630,1.5349981,1.6277398,0.4095280599999999,-0.46871635,0.44661212,1.6202673
110,1747486608640,1.2339534,1.67520895,0.1516815805,-0.170175995,0.80800305,0.6838997900000001
111,1747486608650,1.1197346,1.6800901,0.021232981,-0.05486112,0.7707188,0.34993938
112,1747486608660,1.0731196,1.6727684,-0.17547716,-0.060720075,0.62744075,0.10652645
113,1747486608670,1.1207108,1.7003468,-0.42002252,-0.2977414,0.41545314,-0.22796659
114,1747486608680,1.1836777,1.7506226,-0.54253924,-0.82131887,0.24288029,-0.656202925
115,1747486608690,1.2690977,1.7855228,-0.6074585,-1.0221212,0.22743396,-0.78563255
116,1747486608700,1.8179825,1.8148097,-0.43771666,-2.0817931,0.2173139499999999,-1.7936391
117,1747486608710,2.0153028,1.71145145,-0.175477159,-2.253567,0.18855181,-2.0282636
118,1747486608720,2.1054819,1.6442136,-0.028554698,-2.3963125,0.08681905,-2.4975126
119,1747486608730,2.3871238,1.3449996,0.56426036,-1.8658108,0.041012682,-3.235208
120,1747486608740,2.3871238,1.3449996,0.56426036,-1.8658108,0.041012682,-3.235208
121,1747486608750,2.976766,1.2495731,0.626495,-0.82824314,0.14594123,-3.963849
122,1747486608760,3.4268076,1.2346857,0.44345203,-0.588026,0.18162759,-4.4528055
123,1747486608770,4.0616007,1.2156491,0.05735345,-0.7547399,0.31851408,-5.651228
124,1747486608780,4.231586699999999,1.18855875,0.021355008,-0.91426325,0.3273025,-5.92739775
125,1747486608790,4.9519215,0.9959976,0.070532545,-1.3853765,0.27377295,-6.7148943
126,1747486608800,5.4107494,0.8258897,0.25845662,-1.5675366,0.22264028,-7.2773542
127,1747486608810,5.691415,0.614048,0.4554108,-1.5659387,0.28868666,-7.8067904
128,1747486608820,5.746328,0.38756293,0.7048373,-1.4242586,0.509729,-8.181231
129,1747486608830,5.384879,0.00024405724,0.77414954,-0.73130405,1.5978967,-8.343684
130,1747486608840,5.264559,-0.09664667,0.7963588,-0.28708878,2.0298615,-8.356467
131,1747486608850,5.1078744,-0.35388301,0.78366782,0.565921745,2.3284017500000003,-8.639827499999999
132,1747486608860,5.0741944,-0.4651731,0.77854264,0.8841695,2.363289,-8.775116
133,1747486608870,4.241959,-0.99233675,0.59110665,2.418683,1.9909793,-9.128251
134,1747486608880,3.7665355,-1.1751356,0.40196228,3.0711575,1.5488945,-9.053682
135,1747486608890,3.3933718,-1.2783719,0.16034561,3.5095139,1.0439591,-8.881642
136,1747486608900,3.1327188,-1.359887,-0.13154685,3.6591835,0.66365975,-8.715994
137,1747486608910,2.9406457,-1.461903,-0.38927132,3.46424,0.44101948,-8.588695
138,1747486608920,2.30682915,-1.69461155,-0.43820477,2.8325381,0.67697555,-8.420916
139,1747486608930,2.156978,-1.7457415,-0.4234393,2.5369272,1.0162623,-8.275507
140,1747486608940,1.8499539,-1.8321378,-0.43491003,2.2306638,1.3864417,-8.061389
141,1747486608950,1.5197445,-1.8997418,-0.39659303,1.9158782,1.7273263,-7.719439
142,1747486608960,1.36952725,-2.0193297,-0.177917745,1.67353045,1.7222663,-7.12901615
143,1747486608970,1.3520772,-2.1152442,-0.03929322,1.6788567,1.540905,-6.9263496
144,1747486608980,1.3606192,-2.152341,0.0053692595,2.0037625,0.7366304,-6.915164
145,1747486608990,1.10557935,-2.1971253,-0.162908205,2.1539648,0.18002969,-6.899185
146,1747486609000,0.9898962,-2.213355,-0.2294138,2.0857878,-0.12516858,-6.741526
147,1747486609010,0.4978768,-2.2116468,-0.55742675,1.7896442,-0.16298546,-6.429404
148,1747486609020,0.2208718,-2.1896815,-0.681896,0.6114618,0.3110572,-5.499428
149,1747486609030,-0.024161667,-2.1340365,-0.7141115,-0.111852765,0.6066681,-4.8799763
150,1747486609040,-0.14277348,-2.1067023,-0.58134437,-0.7339672,0.7803062,-4.3276367
151,1747486609050,-0.3407039149999999,-2.2001761,-0.211963715,-1.1041466,0.8117315,-3.8850195
152,1747486609060,-0.46370876,-2.293406,-0.0690682,-1.2463595,0.5917544,-3.1467912
153,1747486609070,-0.71045065,-2.425441,0.008786061,-1.1414309,0.44581318,-2.8000476
154,1747486609080,-0.95597225,-2.544541,0.042954076,-0.928378,0.30040458,-2.3355923
155,1747486609090,-1.1917315,-2.617758,0.05296042,-0.61572284,0.09427591,-1.7518274
156,1747486609100,-1.7411044,-2.5606487,-0.07468152,0.014913702,-0.34621096,-0.108124346
157,1747486609110,-1.8704547,-2.455216,-0.18231077,0.19281286,-0.46818373,0.87032104
158,1747486609120,-1.8655735,-2.3119543,-0.2774931,0.26045716,-0.4111921,1.8413097
159,1747486609130,-1.8067559,-2.1345246,-0.3214234,0.23808661,-0.23489082,2.7643614
160,1747486609140,-1.7064483,-1.9466007,-0.31898284,0.1571265,-0.044208474,3.6623793
161,1747486609150,-1.2293164,-1.5297508,-0.25772443,-0.020772656,0.17310548,5.3215284
162,1747486609160,-0.8659151,-1.3694052,-0.25674823,-0.075101145,0.12357068,5.8238006
163,1747486609170,-0.8659151,-1.3694052,-0.25674823,-0.075101145,0.12357068,5.8238006
164,1747486609180,-0.12544543,-1.2312689,-0.2272173,-0.1555286,0.041545313,6.1865234
165,1747486609190,0.19915071,-1.1802609,-0.113974735,-0.29188246,0.16405073,6.831541
166,1747486609200,0.5699957,-0.9959976,0.0962805875,-0.084954841,0.64528395,8.076834999999999
167,1747486609210,0.76341107,-0.9341291,0.1405769825,0.087618004,0.8591357749999999,8.8944255
168,1747486609220,0.9178993,-0.9237567,0.15888128,0.19014971,0.95447695,9.37486
169,1747486609230,1.4333482,-1.006004,0.1415532,0.34408042,1.041296,10.011355
170,1747486609240,2.352468,-1.0714114,0.11251039,0.49747851,0.9805759,10.235061
171,1747486609250,3.461708,-0.77317333,-0.22794947,0.41385525,0.7121293,9.333847
172,1747486609260,3.4639044,-0.6540734,-0.3961049,-0.037284255,0.65247446,9.084043
173,1747486609270,3.3013625,-0.70239675,-0.340948,-0.5656554,0.8815063,9.23318
174,1747486609280,3.0405872,-1.0964272,0.2845707489999999,-0.9038769,1.1408982,9.667808
175,1747486609290,2.9303954,-1.3511009,0.59110665,-0.7488809,1.3464943,11.453724
176,1747486609300,3.2383955,-1.5468348,0.71777236,-0.46871635,1.3704628,13.1427
177,1747486609310,4.6112175,-1.765022,0.7653635,-0.3291667,1.5542208,13.915017
178,1747486609320,6.517793,-1.6922929,0.6879974,-0.27537087,1.917476,13.422865
179,1747486609330,7.9967794,-1.2315128,0.5525456,-0.2806972,2.2349248,11.438277
180,1747486609340,7.587251,-0.64431113,0.485918,-0.27537087,2.3292007,9.072857
181,1747486609350,4.0724613,-0.39598289,0.73424622,0.175502326,0.982706475,7.935421
182,1747486609360,3.696247,-0.44516042,0.77146494,0.4079963,0.62744075,8.215852
183,1747486609370,3.5712898,-0.4737151,0.8090498,1.1121361,-0.013315806,8.66273
184,1747486609380,3.6981995,-0.3577879,0.76756,1.952097,-0.4628574,8.681906
185,1747486609390,3.6596384,-0.06980037,0.5091034,2.8447888,-0.6295713,8.240354
186,1747486609400,3.5376098,0.7155758,-0.375116,2.9129655,-0.07882957,6.761766
187,1747486609410,3.4504814,1.2061309,-0.8429737,2.237588,0.19813919,5.5462995
188,1747486609420,3.1402845,1.6459221,-1.2754432,1.1611383,0.4394216,4.214719
189,1747486609430,2.7229466,1.8980333,-1.5922295,-0.22956449,0.62264705,2.9816751
190,1747486609440,2.4056723,1.9390348,-1.6344513,-1.7134778,0.81066626,1.8903117
191,1747486609450,1.8089523,1.7899158,-1.1670818,-4.093279,1.4008228,0.15925704
192,1747486609460,1.41638625,1.55854965,-0.5723142649999999,-4.947621,1.866876,-0.5763081
193,1747486609470,1.2939916,1.4765464,-0.31654227,-5.1228566,2.1150825,-1.0423613
194,1747486609480,1.0723876,1.4094306,0.117879644,-4.8203216,2.1182783,-1.4024206
195,1747486609490,0.77512586,1.3201057,0.4876264,-3.4898064,1.5845809,-1.8077538
196,1747486609500,0.81930017,1.34170475,0.480060605,-2.7361317,1.2026836,-1.9558256
197,1747486609510,0.8756774,1.3613514,0.44369608,-2.0410466,0.75580513,-2.1619542
198,1747486609520,1.10655555,1.44469685,0.150339263,-1.07112343,-0.0215716099999999,-2.8024444500000003
199,1747486609530,1.2305366,1.4577539,0.076389916,-0.69721556,-0.36218992,-2.9305425
200,1747486609540,1.462635,1.4016209,-0.049299564,-0.5837649,-0.5640575,-3.281547
201,1747486609550,1.735247,1.3454876,-0.13398743,-0.64555025,-0.5629923,-3.639476
202,1747486609560,1.956119,1.3052181,-0.19573392,-0.82398206,-0.46552056,-4.051201
203,1747486609570,2.48133,1.036023,-0.16888762,-1.4066817,0.036751624,-4.830974
204,1747486609580,2.9745698,0.8925173,-0.04344219,-1.603223,0.39468047,-5.258678
205,1747486609590,3.3455367,0.8117344,0.12837411,-1.6026903,0.6412892,-5.762548
206,1747486609600,3.619857,0.7573096,0.26529023,-1.4434333,0.6743124,-6.28293
207,1747486609610,4.058184,0.6909261,0.39073566,-1.0056096,0.21624869,-7.231548
208,1747486609620,4.277347,0.61722076,0.43930307,-0.78776306,-0.01917476,-7.707188
209,1747486609630,4.349222149999999,0.53729202,0.441133485,-0.7219829799999999,-0.0154463344999999,-7.8390147
210,1747486609640,4.507737,0.28408262,0.4588276,-0.5342301,0.099069595,-8.131164
211,1747486609650,4.633915,0.13935669,0.53961056,-0.33449304,0.20879184,-8.251006
212,1747486609660,4.9592433,-0.002928687,0.7582859,0.01438107,0.06551377,-8.4624605
213,1747486609670,4.9980483,-0.08127106,0.6965394,1.0365024,-0.120907515,-8.614261
214,1747486609680,4.868698,-0.18304294,0.5222825,1.4535533,-0.2609898,-8.7618
215,1747486609690,4.579978,-0.264314,0.3385074,1.6927053,-0.32170987,-8.766061
216,1747486609700,4.2827163,-0.31019676,0.19158493,1.7779263,-0.2647182,-8.555672
217,1747486609710,3.8009474,-0.41148052,-0.12520137,1.6809874,-0.07137272,-8.368717
218,1747486609720,3.6288872,-0.49006698,-0.15180361,1.2559468,0.3568636,-8.096542
219,1747486609730,3.51869525,-0.5579148899999999,-0.13923466,1.1851067,0.4620584749999999,-8.0992055
220,1747486609740,3.0597458,-0.8180799,-0.04807928,1.0812434,0.7840346,-8.145012
221,1747486609750,2.5469816,-1.023088,0.065407336,1.1797804,0.9464875,-8.100803
222,1747486609760,1.7281694,-1.3069266,0.12373702,1.3587449,1.0253171,-7.9287634
223,1747486609770,1.3801438,-1.4157761,0.09176553,1.7832527,1.0546118,-7.4637756
224,1747486609780,1.0472497,-1.4867967,-0.004881145,1.9281287,1.0439591,-7.0563116
225,1747486609790,0.7065457,-1.5419537,-0.13276714,1.8844528,1.055677,-6.6541743
226,1747486609800,0.48152497,-1.5624546,-0.20988922,1.7678064,1.103614,-6.230732
227,1747486609810,0.26358184,-1.5780742,-0.30214286,1.5723304,1.0487529,-5.367335
228,1747486609820,0.22209209,-1.6144388,-0.34704942,1.4823155,0.90920323,-5.0184608
229,1747486609830,0.15302388,-1.6149268,-0.41245672,1.3608754,0.7552725,-4.6823697
230,1747486609840,0.1072631669999999,-1.6221265,-0.590252465,1.1504856,0.63383234,-4.321245
231,1747486609850,0.107629254,-1.6324989,-0.67750293,0.8293084,0.5784386,-3.9862196
232,1747486609860,0.04344219,-1.6678872,-0.7141115,-0.20985709,0.8900285,-3.4088464
233,1747486609870,-0.032459613,-1.7528191,-0.70239675,-0.7185209,1.1638014,-3.2575786
234,1747486609880,-0.1867038,-1.8655735,-0.6635916,-1.1733888,1.3954965,-3.1622376
235,1747486609890,-0.4549227,-1.9668574,-0.601113,-1.5435683,1.4801849,-3.0013826
236,1747486609900,-1.0265048,-2.2821794,-0.38170552,-1.8455707,1.1856394,-2.3297334
237,1747486609910,-1.351345,-2.3500273,-0.25845662,-1.6847157,0.8591358,-1.7172064
238,1747486609920,-1.620052,-2.366867,-0.1769415,-1.4013554,0.40746364,-0.871919
239,1747486609930,-1.7359792,-2.3546643,-0.13252309,-1.0578076,-0.0958738,0.13635385
240,1747486609940,-1.7169427,-2.2882807,-0.11592719,-0.660464,-0.572047,1.4466292
241,1747486609950,-1.2412751,-2.0473962,-0.15155955,-0.4346279,-0.7536746,2.422944
242,1747486609960,-0.9135063,-1.918534,-0.19036464,-0.29880667,-0.6849651,3.9270973
243,1747486609970,-0.5691415,-1.7796655,-0.21550256,-0.3334278,-0.52411014,4.396879
244,1747486609980,-0.42417149,-1.70779065,-0.23649147,-0.381098365,-0.43516055,4.539091750000001
245,1747486609990,-0.06980037,-1.4882611,-0.30873242,-0.5885586,-0.18322548,4.837366
246,1747486610000,-0.0043930304,-1.2988727,-0.34656128,-0.99229383,-0.06764429,5.143097
247,1747486610010,-0.112022275,-1.2745890000000002,-0.340703925,-1.2144015,-0.14647387,5.435512
248,1747486610020,-0.13886857,-1.2730026,-0.3243521,-1.5073493,-0.2593919,5.9702744
249,1747486610030,-0.05735345,-1.3054622,-0.26626647,-1.7251958,-0.32384038,6.512494
250,1747486610040,0.16791138,-1.4006445,-0.21428227,-1.9212044,-0.267914,7.0941286
251,1747486610050,0.83028275,-1.3196175,-0.046614934,-2.072472,0.021837922,8.027833
252,1747486610060,1.4165082,-1.1971008,0.11251039,-1.9451729,-0.022903185,8.461928
253,1747486610070,2.0005372,-1.0023432,0.107873306,-1.7502295,-0.12197278,8.758604
254,1747486610080,2.5723634,-0.8110022,0.023673553,-1.6612799,-0.18269286,8.811335
255,1747486610090,2.9709089,-0.6616392,-0.055400997,-1.7193369,-0.14434333,8.720255
256,1747486610100,4.100894,-0.35705575,0.20305562,-1.7805896,-0.09427591,8.044345
257,1747486610110,4.21974985,-0.1382584349999999,0.6358911549999999,-1.264735265,0.08788432,7.4376765
258,1747486610120,3.87880185,-0.21123155,1.1282766249999998,0.0727042849999999,-0.2079928899999999,7.6685725
259,1747486610130,3.521258,-0.43942508,1.3692832,1.7467674,-0.65673555,8.3335635
260,1747486610140,3.431689,-0.55571836,1.312784,2.3531692,-0.8111989,8.654208
261,1747486610150,3.3906875,-0.7316837,0.88055855,3.2176313,-0.928378,9.409481
262,1747486610160,3.5232103,-0.8754333,0.30897647,3.4871433,-0.7520767,10.188722
263,1747486610170,3.8856354,-0.96329397,-0.24869433,3.0812774,-0.3392867,10.851316
264,1747486610180,4.40450095,-0.942671135,-0.455776915,1.798699,0.19973709,10.9019165
265,1747486610190,5.5994053,-0.5442477,-0.9003272,0.44101948,0.69295454,10.239322
266,1747486610200,5.9754972,0.1398448,-0.24771811,-1.5227956,1.4311827,8.133827
267,1747486610210,5.3536396,0.51642513,0.311173,-1.5259913,1.3923006,7.10052
268,1747486610220,4.98425915,0.636745365,0.5199639699999999,-1.2514194,1.17312245,6.7497818
269,1747486610230,3.4102119,1.02211175,0.412090635,0.70786825,-0.8298410299999999,5.431251
270,1747486610240,3.2808616,1.0865428,0.20598431,0.6258428699999999,-1.1829762,4.833104799999999
271,1747486610250,2.90123055,1.4342024,-0.396837065,-0.219178155,-1.01865915,3.9270973
272,1747486610260,2.7854254,1.5544006,-0.56865335,-0.86872315,-0.7845673,3.371562
273,1747486610270,2.271685,1.74745,-0.43954712,-3.2985914,0.9464875,1.3651364
274,1747486610280,1.9153614,1.7186512,-0.14472595,-4.0671797,1.7038904,0.48629323
275,1747486610290,1.5619664,1.6344513,0.19378147,-4.3377566,2.1758027,-0.2412824
276,1747486610300,1.2298045,1.5326794,0.53180075,-4.1433463,2.3174827,-0.8069378
277,1747486610310,1.0416363,1.4604386,0.78806084,-3.5579834,2.1640847,-1.2660668
278,1747486610320,0.84761083,1.3903941,0.9117979,-1.824798,1.3321131,-1.8945729
279,1747486610330,0.7979451799999999,1.3309662,0.6670084700000001,-0.5139900900000001,0.75101145,-2.25090375
280,1747486610340,0.7839119,1.3147364,0.5630401,-0.20293288,0.6295713,-2.3393207
281,1747486610350,0.84785485,1.3340169,0.37975308,0.27164245,0.44474792,-2.5406556
282,1747486610360,0.9484064,1.3828284,0.1969542,0.62264705,0.25033715,-2.7856665
283,1747486610370,1.1268123,1.5275543,-0.18401916,1.0146644,0.028229509,-3.2708945
284,1747486610380,1.3689171,1.602968,-0.44369608,0.9406285,-0.046339005,-3.5281558
285,1747486610390,1.7188951,1.6532438,-0.61844105,0.7025419,-0.12942964,-3.9500005
286,1747486610400,2.059111,1.6647146,-0.68702114,0.3818973,-0.24660872,-4.55081
287,1747486610410,2.481574,1.5622104,-0.51447266,-0.1555286,-0.49641323,-5.9777317
288,1747486610420,2.6719387,1.3830724,-0.41001618,-0.28975195,-0.62264705,-6.481069
289,1747486610430,2.7824967000000003,1.3149804500000002,-0.362425015,-0.3185140749999999,-0.683367125,-6.707704
290,1747486610440,3.0067854,1.1185144,-0.2438132,-0.37550572,-0.8330368,-7.325291
291,1747486610450,3.0729249,0.97598493,-0.19915071,-0.41385525,-0.86233157,-7.6054554
292,1747486610460,3.3880029,0.7975791,0.03172744,-0.46392268,-0.84368944,-7.773235
293,1747486610470,3.657686,0.78513217,0.18157859,-0.3323625,-1.0290455,-8.025169
294,1747486610480,4.47100675,0.826255815,0.3564456299999999,-0.14913702,-1.25861,-8.234494
295,1747486610490,4.7647295,0.8542004,0.4002539,0.10759171,-1.448227,-8.692558
296,1747486610500,5.0268474,0.6545615,0.1581491,0.27164245,-1.3965617,-9.827598
297,1747486610510,4.9238553,0.45199403,0.06418706,0.1603223,-1.1664646,-10.098174
298,1747486610520,4.6905365,0.25137895,0.009518232,0.06977482,-0.9054748,-10.248377
299,1747486610530,4.3229856,0.046614934,-0.027334413,-0.0167779155,-0.74595142,-10.138122
300,1747486610540,3.8392644,-0.10396838,-0.008786061,-0.03568636,-0.73982614,-10.016682
301,1747486610550,3.3465128,-0.21184167,-0.053692598,-0.056991648,-0.8021441,-9.5751295
302,1747486610560,3.17469665,-0.26358183,-0.15461027,-0.28655612,-0.6530071,-8.592423
303,1747486610570,3.1698155,-0.27871338,-0.183287,-0.6151902,-0.37284255,-8.132762
304,1747486610580,3.1581008,-0.39756927,-0.1952458,-0.90281165,-0.049002163,-8.011854
305,1747486610590,2.8796315,-0.59110665,-0.1483868,-1.1590078,0.4032026,-8.0273
306,1747486610600,2.0227466,-1.1453607,0.27407628,-0.95927066,1.2767195,-7.8515315
307,1747486610610,1.509006,-1.3325526,0.4842096,-0.44794372,1.5563514,-7.5213
308,1747486610620,0.9894081,-1.4648316,0.554254,0.19068234,1.6868463,-7.0158315
309,1747486610630,0.65895456,-1.518036,0.4932397,0.80533993,1.627724,-6.4059677
310,1747486610640,0.44320798,-1.5407335,0.328257,1.2996227,1.4929681,-5.7838535
311,1747486610650,0.14472595,-1.6566606,-0.13886857,1.6005598,1.6724652,-4.448012
312,1747486610660,-0.00073217176,-1.7369554,-0.39878955,1.2181299,2.14837205,-3.72576245
313,1747486610670,-0.10006347,-1.8240839,-0.6574902,1.0263823,2.2919164,-3.5137749
314,1747486610680,-0.46187836,-1.94135345,-0.9725681,-0.0508663699999999,2.35237015,-2.6842
315,1747486610690,-0.6972716,-1.9805247,-1.0867869,-0.6215818,2.2897859,-2.209891
316,1747486610700,-0.90642864,-2.02958,-1.1678139,-1.3145363,2.2050974,-1.5579493
317,1747486610710,-1.06762845,-2.1552695,-1.12412765,-2.011752,2.107093,-0.84688526
318,1747486610720,-1.1102165,-2.2101824,-1.0945967,-2.6578348,2.0644825,-0.14966966
319,1747486610730,-1.1604922,-2.3429496,-0.9654905,-3.2234902,2.0399814,0.5289038
320,1747486610740,-1.24640035,-2.57626835,-0.07394935,-3.0365363,1.55794925,2.4338629
321,1747486610750,-1.2781278,-2.5804172,0.11495096,-2.20589635,1.176052,3.30258605
322,1747486610760,-1.2395667499999998,-2.4691272,0.3043393749999999,-1.199221415,0.68123664,4.24880715
323,1747486610770,-1.1722069,-2.4193394,0.29823795,-0.68336713,0.40959418,4.7287087
324,1747486610780,-0.77854264,-2.2463028,0.11177822,0.19760656,-0.18855181,5.5431037
325,1747486610790,-0.33875147,-2.0876658,-0.14789869,0.8021441,-0.72917354,6.100237
326,1747486610800,0.37267542,-1.7674625,-0.6491923,1.0210559,-1.2298478,6.4400563
327,1747486610810,0.52252656,-1.5736811,-0.7844,0.56618804,-1.1030813,6.4230123
328,1747486610820,0.6299118,-1.4094306,-0.827354,0.029827405,-0.87032104,6.408631
329,1747486610830,0.6535853,-1.3022895,-0.7492558,-0.51505536,-0.60080916,6.428871
330,1747486610840,0.6665203,-1.2432276,-0.59916055,-0.93423694,-0.4048005,6.4959826
331,1747486610850,0.6782351,-1.1695224,-0.26529023,-1.1627362,-0.2743056,6.774017
332,1747486610860,0.6884855,-1.1368186,-0.08542004,-1.0189254,-0.41864893,6.983874
333,1747486610870,0.6884855,-1.1368186,-0.08542004,-1.0189254,-0.41864893,6.983874
334,1747486610880,1.0045396,-1.0501783,0.16717921,-0.496413245,-0.778708305,7.2621742
335,1747486610890,1.1922196,-0.92400074,0.22819352,0.7568704,-0.9576728,7.9889507
336,1747486610900,1.5234053,-0.8236932,0.10933765,1.0647318,-0.8591358,8.446482
337,1747486610910,1.9976085,-0.7214332,-0.053204484,1.2016183,-0.73822826,8.754876
338,1747486610920,2.5630891,-0.6487042,-0.19548985,1.1616709,-0.60507023,8.770322
339,1747486610930,3.4963639,-0.39195594,-0.38829508,0.6854977,0.039947417,7.8765655
340,1747486610940,3.4331532,-0.3014107,-0.30604777,0.35473305,0.46498793,7.5766935
341,1747486610950,3.5028317,-0.209279085,-0.023307465,0.101200126,0.9006811,7.7519293
342,1747486610960,3.584713,-0.18597162,0.071020655,-0.006924219,1.2676647,8.215852
343,1747486610970,4.2136483,-0.21306199,0.340948,0.2647182,1.1243867,9.020659
344,1747486610980,4.4862604,-0.21989559,0.22135992,0.23329292,0.9257148,9.374328
345,1747486610990,4.8691864,-0.25381953,-0.04783522,-0.16245283,0.9672601,9.609218
346,1747486611000,5.2994595,-0.30409533,-0.3236199,-0.9416938,1.2841763,9.552226
347,1747486611010,5.829551,-0.38219365,-0.44564855,-1.9664782,1.6650083,9.096293
348,1747486611020,5.8939824,-0.33509058,0.49982923,-3.0919302,1.7752632,7.1857414
349,1747486611030,5.2206283,-0.1552204,1.1578076,-2.5438516,1.2250541,6.4682856
350,1747486611040,4.586812,0.003172744,1.5353642,-1.4780544,0.48469532,6.1007695
351,1747486611050,4.241471,0.16522676,1.6644703,0.2647182,-0.32969934,5.72846
352,1747486611060,3.8172994,0.6152683,1.0416363,1.7172064,-0.7685883,5.265602
353,1747486611070,3.4263198,0.7922098,0.40269446,3.3198967,-1.4199976,3.9153795
354,1747486611080,3.0419295,0.9484064,-0.27480847,2.9976542,-1.6149409,3.1888692
355,1747486611090,2.8784113,1.1265682,-0.780007,2.1145499,-1.5430355,2.3132217
356,1747486611100,2.647045,1.3225462,-1.0411482,0.9598033,-1.0764498,1.3688648
357,1747486611110,1.9505056,1.4611707,-0.83101493,-0.20932446,-0.38083205,0.51931643
358,1747486611120,1.5739251,1.4353007,-0.6286915,-1.8295918,0.98590225,-0.7238472
359,1747486611130,1.2024701,1.4213893,-0.46736962,-2.1949775,1.4769892,-1.242631
360,1747486611140,0.8808026,1.4255384,-0.33509058,-2.214152,1.6074841,-1.5723304
361,1747486611150,0.6807977000000001,1.3509789,-0.20049304,-1.9371834,1.3480922,-2.01920875
362,1747486611160,0.635159,1.2448139500000002,-0.12007617,-1.4871091500000002,0.7981494200000001,-2.4525051500000004
363,1747486611170,0.6228341,1.2075952,-0.08127106,-1.1563445,0.39734364,-2.7398603
364,1747486611180,0.58134437,1.1631769,-0.010982576,-0.7483483,0.018642128,-2.9465215
365,1747486611190,0.5876899,1.1099724,-0.025137896,-0.36911413,-0.29028457,-3.075951
366,1747486611200,0.65163285,1.0645777,-0.08981306,-0.0777643,-0.47670585,-3.1856732
367,1747486611210,0.84468216,1.0030752,-0.3133695,0.07882957,-0.5523396,-3.5159054
368,1747486611220,0.87909423,0.97207995,-0.372553385,-0.0090547475,-0.4796353,-3.5766255
369,1747486611230,0.9628059,0.93681372,-0.460536035,-0.2482066175,-0.29188245,-3.7065877
370,1747486611240,1.4684925,0.95780268,-0.2072046099999999,-0.72171664,-0.0058589545,-3.969708
371,1747486611250,1.7298778,0.9581688,0.01952458,-0.8878979,-0.12250541,-4.8000817
372,1747486611260,1.8516623,0.94035256,0.14643435,-0.80533993,-0.30040458,-5.2320466
373,1747486611270,2.0405626,0.9015475,0.22868164,-0.70680296,-0.41278997,-5.620335
374,1747486611280,2.2057896,0.86103404,0.2809099,-0.5837649,-0.42770368,-5.9995694
375,1747486611290,2.4061604,0.7909895,0.281398,-0.4644553,-0.39787626,-6.342052
376,1747486611300,2.672427,0.5793919,0.2894519,-0.13848437,-0.22370553,-6.681339
377,1747486611310,3.06279645,0.56548065,0.40684342,0.15819177,-0.34567833,-6.7101007
378,1747486611320,3.2491343,0.5845171,0.39195594,0.44421527,-0.46978164,-6.7362
379,1747486611330,3.8631823,0.69507504,0.42563587,0.70680296,-0.8032094,-7.01743
380,1747486611340,4.343731,0.8300387,0.32996538,0.82078624,-1.1435614,-7.4882765
381,1747486611350,4.4750338,0.7585299,0.0302631,0.27164245,-1.0466223,-8.300008
382,1747486611360,4.4127994,0.596964,0.017816179,-0.2130529,-0.59867865,-8.435829
383,1747486611370,4.35007645,0.5076390500000001,0.0521062245,-0.44155212,-0.19441078,-8.454205
384,1747486611380,4.1724024,0.15204766,0.2975058,-0.77125144,0.71479243,-8.5338335
385,1747486611390,3.9798417,-0.10128376,0.5095915,-0.57417756,1.0082728,-8.605739
386,1747486611400,3.1581008,-0.58427304,0.64431113,0.33662358,0.85487473,-8.444884
387,1747486611410,2.7693176,-0.71118283,0.58110034,0.76059884,0.4612595,-8.083759
388,1747486611420,2.59896565,-0.737052885,0.5319228,1.0657971,0.13156016,-7.7737675
389,1747486611430,2.31573725,-0.7853762200000001,0.415385455,1.1536814,0.0572579645,-7.65685475
390,1747486611440,1.9404991,-0.9237567,0.2135501,1.2676647,0.04261058,-7.295996
391,1747486611450,1.1983211,-1.2810564,0.12544543,1.29056785,1.11692982,-6.16388665
392,1747486611460,0.8061211,-1.4143118,0.04807928,1.3187973,1.3225259,-5.891978
393,1747486611470,0.43954712,-1.5229172,-0.017572122,1.3699301,1.5824504,-5.2805157
394,1747486611480,0.0873725,-1.5426859,-0.09445015,1.4125407,1.6809874,-4.6008773
395,1747486611490,-0.41745992,-1.4749599999999998,-0.379020915,1.2594089,1.7158747,-3.1446607
396,1747486611500,-0.428076405,-1.4254164,-0.454190555,1.1190603,1.7267936,-2.4304008
397,1747486611510,-0.40952805,-1.39796,-0.48201308,0.8863,1.7672738,-1.865278
398,1747486611520,-0.3660859,-1.3335288,-0.49031103,0.64555025,1.7960359,-1.4556838
399,1747486611530,-0.3414361,-1.3459758,-0.5108118,0.3153183,1.9084213,-1.1142666
400,1747486611540,-0.33020946,-1.4367651,-0.5789038,-0.008522116,2.1033647,-0.9603359
401,1747486611550,-0.49201941,-1.7142582,-0.7438865,-1.1957594,2.556901,-0.7627293500000001
402,1747486611560,-0.71264714,-1.8572757,-0.76389915,-1.4583471,2.625877,-0.6689861
403,1747486611570,-0.9235126,-1.9749112,-0.7175283,-1.8855181,2.722816,-0.28655612
404,1747486611580,-1.1033828,-2.051057,-0.60989904,-2.1385183,2.7276096,0.27164245
405,1747486611590,-1.2136967,-2.04336925,-0.370845005,-1.88738235,2.18032995,1.75502322
406,1747486611600,-1.18270145,-1.97222655,-0.231610325,-1.6010925,1.7992316,2.5443842
407,1747486611610,-1.1334019,-1.9275641,-0.19915071,-0.98803276,0.99548966,3.4759579
408,1747486611620,-0.8495633,-1.8594722,-0.21916342,-0.49694586,0.34674358,4.0282974
409,1747486611630,-0.385976545,-1.7143802,-0.478108135,-0.1736381,-0.10972224,4.377704
410,1747486611640,-0.164494585,-1.5928396500000002,-0.6369894,-0.45380267,-0.1600559825,4.9633335
411,1747486611650,-0.10543273,-1.5461026,-0.6604189,-0.6146576,-0.075101145,5.075985
412,1747486611660,0.0358764144999999,-1.4730075,-0.603553575,-0.9800433,0.15020229,5.301821
413,1747486611670,0.08322352,-1.4553133,-0.5662128,-1.3097427,0.37923414,5.565474
414,1747486611680,0.25381953,-1.330112,-0.29823795,-1.6245283,0.7105314,6.0714746
415,1747486611690,0.39537275,-1.2847173,-0.136428,-1.536644,0.6514092,6.353237
416,1747486611700,0.5347294,-1.2244352,-0.020988923,-1.3171995,0.45859635,6.533267
417,1747486611710,0.7219213,-1.2036903,0.07687803,-0.9912286,0.18109496,6.699448
418,1747486611720,1.4784988,-1.0474937,0.16473864,-0.2130529,-0.42290998,6.825682
419,1747486611730,1.8775325,-0.86469483,0.19671014,0.1768339,-0.7036072,6.8970547
420,1747486611740,2.0791237,-0.6823841,0.20525214,0.5225122,-0.78989357,7.144196
421,1747486611750,2.2282426,-0.5693855,0.22794947,0.79202414,-0.51984906,7.6571207
422,1747486611760,2.4456975,-0.49543622,0.26211748,1.2644689,0.47990164,8.655807
423,1747486611770,4.036707,-0.32093528,0.3372871,1.6458336,0.6151902,8.329835
424,1747486611780,4.423782,0.011226633,0.37096703,2.1236048,0.5022722,7.852064
425,1747486611790,4.569972,0.20354374,0.2928687,2.4964473,0.2561961,7.5532575
426,1747486611800,4.575341,0.2562601,0.0976229,2.6951191,0.20293288,7.4318175
427,1747486611810,4.5389767,0.21647878,-0.11251039,2.6860642,0.3110572,7.41211
428,1747486611820,4.4127994,0.082247294,-0.3065359,2.2162826,0.86233157,7.6400766
429,1747486611830,4.4242697,0.053204484,-0.311173,1.8828549,0.9896307,7.791344
430,1747486611840,4.455021,0.009518232,-0.260165,1.5654061,0.8873653,7.853662
431,1747486611850,4.6073127,-0.011958805,-0.1786499,1.2399678,0.5784386,7.7093186
432,1747486611860,5.3101974,0.56987363,-0.097134784,1.0695255,0.3637878,7.141533
433,1747486611870,5.22160485,0.734612265,-0.146312317,0.97098855,0.287887715,6.2576297
434,1747486611880,4.8885889,1.0321181,-0.266876605,0.76379463,0.1435443875,4.99289445
435,1747486611890,4.0779524,1.3733101,-0.4795725,0.3009372,-0.12250541,3.994209
436,1747486611900,3.6869729,1.4843562,-0.511788,-0.16990969,-0.3174488,3.406183
437,1747486611910,3.0929375,1.6505592,-0.3226437,-1.2761868,-0.3009372,2.209891
438,1747486611920,2.9621228000000004,1.6654467,-0.229901935,-1.57898825,-0.15313176115,1.813879
439,1747486611930,2.489872,1.7171869,0.122760795,-2.128931,0.2806972,0.7930894
440,1747486611940,2.1049938,1.7298778,0.3145898,-2.120409,0.47351006,0.26205507
441,1747486611950,1.4802072,1.7342708,0.67091334,-1.12997927,0.03701794,-0.7491472299999999
442,1747486611960,1.25957945,1.778079,0.7951385,-0.82078624,-0.12463594,-0.9289106
443,1747486611970,1.2146729,1.7847906,0.7819594,-0.25193503,-0.3850931,-1.2926984
444,1747486611980,1.1712307,1.7999222,0.7492558,0.19707392,-0.55127436,-1.716141
445,1747486611990,1.0904478,1.8516623,0.6552937,0.5363607,-0.55074173,-2.1827269
446,1747486612000,0.9586569,1.8072438,0.2865232,0.65460503,-0.2908172,-3.1734228
447,1747486612010,0.90447617,1.7472057,0.15253578,0.531567,-0.21997711,-3.5808864
448,1747486612020,0.9269294,1.63738,0.13789235,0.39947417,-0.20240025,-3.904727
449,1747486612030,1.0035634,1.547811,0.21794313,0.3371562,-0.19813919,-4.1657166
450,1747486612040,1.564895,1.4222435999999998,0.44613664,0.551274345,-0.182160225,-4.5638592
451,1747486612050,1.940011,1.3730661,0.5320448,0.68336713,-0.18162759,-4.706871
452,1747486612060,2.182848,1.3274274,0.3585201,1.4152038,-0.3190467,-5.6288576
453,1747486612070,2.3568609,1.2466444,0.016107777,1.4429007,-0.49002165,-6.152435
454,1747486612080,2.4915805,1.1734272,-0.2774931,1.1265172,-0.6306366,-6.6371303
455,1747486612090,2.6716948,1.0633575,-0.4566311,0.45007423,-0.5752428,-7.158577
456,1747486612100,3.2010548,0.4183141,0.051252022,-0.20133498,-0.51292485,-7.884555
457,1747486612110,3.315762,0.78757274,-0.6147802,-0.64821345,0.30519825,-8.29628
458,1747486612120,3.4612198,0.56767714,0.03441207,-0.789627275,0.224238155,-8.41718725
459,1747486612130,3.7525022,0.42136483,0.171816295,-0.6791061,0.21252026,-8.938102
460,1747486612140,4.3483677,0.12056428,0.8473667,-0.2711098,0.14647387,-9.284312
461,1747486612150,4.6026754,-0.0014643435,0.8078295,0.9033443,-0.09054748,-9.531986
462,1747486612160,4.6829705,-0.37267542,0.5259434,1.4498249,-0.09161274,-9.783921
463,1747486612170,4.3625236,-0.6062382,0.19304928,1.6218652,0.043675844,-9.753029
464,1747486612180,4.233417,-0.70874226,0.0017084008,1.5701998,0.049002163,-9.611348
465,1747486612190,4.267097,-0.76975656,0.05832968,1.4450313,-0.055926383,-9.530921
466,1747486612200,4.428907,-0.7492558,0.10006347,1.1211908,0.38402784,-9.431851
467,1747486612210,4.2268276,-0.85542065,0.17450093,0.968858,0.81705785,-9.541574
468,1747486612220,3.7745895,-1.0626253,0.2438132,0.92518216,1.2916331,-9.630524
469,1747486612230,3.1790895,-1.2966762,0.32117933,0.95607483,1.6532904,-9.502691
470,1747486612240,2.536487,-1.4943625,0.37218732,1.34676065,2.07406995,-8.700547
471,1747486612250,0.9279056,-1.7289016,0.39927766,1.645301,2.249306,-8.200938
472,1747486612260,0.23136626,-1.7857668,0.345341,1.9904467,2.0687435,-7.4302197
473,1747486612270,-0.311173,-1.8079761,0.17620933,2.1981733,1.7092168,-6.4922543
474,1747486612280,-0.7573096,-1.7550157,-0.058817793,2.1528995,1.32945,-5.484514
475,1747486612290,-1.1646413,-1.6537318,-0.52789587,1.1520835,1.0418286,-3.3364084
476,1747486612300,-1.073852,-1.7171869,-0.6965394,0.28229508,1.4253238,-2.4304008
477,1747486612310,-0.9654905,-1.7642899,-0.7573096,-0.67324716,2.018676,-1.73212
478,1747486612320,-0.9276616,-1.8589841,-0.7577977,-1.7912422,2.9028456,-1.0503508
479,1747486612330,-0.9730563,-1.90206015,-0.7198468499999999,-2.14491,3.1310786,-0.8181231499999999
480,1747486612340,-1.1944162,-2.0354373,-0.5422952,-2.9465215,3.4993937,-0.03195793
481,1747486612350,-1.3947872,-2.21054855,-0.285546975,-3.1989893,2.87142025,1.8671423
482,1747486612360,-1.3833165,-2.2143314,-0.23209843,-3.1611724,2.6354642,2.2983081
483,1747486612370,-1.1712307,-2.1906579,-0.14716652,-3.016829,2.1166804,3.1558459
484,1747486612380,-0.8539563,-2.156246,-0.034900185,-2.8016455,1.7038904,3.9297607
485,1747486612390,-0.5352176,-2.0827847,0.058817793,-2.49698,1.4444987,4.5758433
486,1747486612400,0.06662763,-1.9334215,0.1147069,-1.5675366,1.1004182,5.3747916
487,1747486612410,0.228071495,-1.7773469,-0.0194025539999999,-0.9158611,0.80560625,5.66560885
488,1747486612420,0.24918245,-1.7259729,-0.07858644,-0.7233146,0.6759103,5.765211
489,1747486612430,0.31910486,-1.64580005,-0.23014598,-0.5813681,0.350205691,5.9889165
490,1747486612440,0.55401,-1.4423783,-0.47054234,-0.5075985,-0.25832662,6.348976
491,1747486612450,0.7238738,-1.3054622,-0.49079913,-0.6625945,-0.4362258,6.415555
492,1747486612460,0.81930023,-1.2156491,-0.45516676,-0.86606,-0.4777711,6.4586983
493,1747486612470,0.9054524,-1.027481,-0.31239328,-1.310808,-0.2545982,6.540191
494,1747486612480,0.93986446,-0.9730562,-0.23087814,-1.526524,0.03834952,6.6355324
495,1747486612490,0.9178993,-0.9413288,-0.12935033,-1.6170714,0.35899413,6.7804084
496,1747486612500,0.90398806,-0.91863143,-0.033191785,-1.6000272,0.6775082,6.9886675
497,1747486612510,1.2590914,-0.86298645,0.0102504045,-1.375789,0.78936094,7.151653
498,1747486612520,1.6595892,-0.7753699,0.009274175,-1.1659319,0.4788364,6.829943
499,1747486612530,1.8733834,-0.7192367,0.07028849,-0.8522116,0.06764429,6.363357
500,1747486612540,1.8235958,-0.67530644,0.16449459,-0.42024684,-0.33129725,6.012885
501,1747486612550,1.6803342,-0.7170402,0.1986626,0.04527374,-0.67324716,6.025136
502,1747486612560,1.6046765,-0.8112463,0.20061506,0.57098174,-0.8942895,7.4344807
503,1747486612570,2.152585,-0.86225426,0.16132185,1.180313,-0.5502091,8.166317
504,1747486612580,2.6033587,-0.87348086,0.15717287,1.3997575,-0.26631612,8.6808405
505,1747486612590,3.235467,-0.9303462,0.13911264,1.5472966,-0.04474111,8.7479515
506,1747486612600,3.840485,-0.9178993,0.073217176,1.6484967,0.05486112,8.263256
507,1747486612610,3.7228491,-0.86615914,-0.056133166,1.6447684,-0.014913702,7.21983
508,1747486612620,3.500513,-0.97208,-0.08712844,1.4988271,-0.06551377,7.3407373
509,1747486612630,3.5439553000000004,-1.0394398,-0.05869577,1.45062385,-0.125434895,7.54739865
510,1747486612640,4.173867100000001,-1.0012448,0.25662619,1.6594157,-0.423975245,8.3516735
511,1747486612650,4.3759465,-0.8710403,0.38048524,1.7875137,-0.49055427,8.466722
512,1747486612660,4.99634,-0.73583263,0.42002252,2.5134914,-0.73609775,8.29628
513,1747486612670,5.3231325,-0.6142921,0.39634898,2.8911278,-0.97951066,7.8648477
514,1747486612680,5.699469,-0.33142975,0.22209209,3.2463934,-1.196292,6.987602
515,1747486612690,5.2220928,0.3382633535,-0.4488212729999999,3.2860745,-1.41786705,5.0914316
516,1747486612700,4.7303176,0.64089435,-0.8151512,3.1755533,-1.4769892,4.4426856
517,1747486612710,4.20291,0.85175985,-1.0789771,1.0748519,-0.9102685,2.4367924
518,1747486612720,3.8024118,1.0313859,-1.1885588,-0.30786142,-0.31798145,1.7816548
519,1747486612730,3.589838,1.1114367,-1.0550594,-1.6405072,0.29667616,1.0748519
520,1747486612740,3.388491,1.1243718,-0.77244115,-2.666357,0.88470215,0.33662358
521,1747486612750,2.50561365,1.0499343,-0.118367762,-3.5550538,1.70868415,-1.17551935
522,1747486612760,2.299019,1.0582323,-0.014643434,-3.5398738,1.7512947,-1.4141386
523,1747486612770,2.0222585,1.1336459,0.08956901,-3.3161683,1.5947009,-1.7901769
524,1747486612780,1.9012059,1.2151611,0.18011424,-2.9427931,1.2463595,-2.18539
525,1747486612790,1.8921759,1.325475,0.25528386,-2.4522388,0.78776306,-2.740393
526,1747486612800,1.7445213,1.4787428,0.13325526,-1.4620755,0.0,-4.1870217
527,1747486612810,1.7440331,1.4645876,-0.019036464,-1.2937636,-0.06338324,-4.7798414
528,1747486612820,1.7462295,1.4545813,-0.15570852,-1.3113406,0.032490566,-5.3257895
529,1747486612830,1.7492803,1.4196811,-0.21891935,-1.4064154000000002,0.128364368,-5.54230455
530,1747486612840,1.811393,1.2510375,-0.35949633,-1.7955033,0.43356264,-6.085856
531,1747486612850,2.251184,0.95987713,-0.042465962,-2.0586236,0.509729,-6.7148943
532,1747486612860,2.4918244,0.8366282,0.29091623,-1.7731327,0.29188246,-7.1266193
533,1747486612870,2.5447848,0.73339206,0.61038715,-1.2250541,-0.0015978967,-7.481885
534,1747486612880,2.592132,0.605506,0.83028275,-0.38456047,-0.47244477,-7.7892137
535,1747486612890,2.6587596,0.5086153,0.86103404,0.23702134,-0.8245147,-8.009191
536,1747486612900,2.954069,0.36730617,0.58280873,0.89109373,-1.2175972,-8.527974
537,1747486612910,3.0797584,0.25308737,0.4046469,0.9150622,-1.23837,-8.832641
538,1747486612920,3.1554163,0.06345488,0.24869433,0.84235788,-1.18883515,-8.9857725
539,1747486612930,3.1263733,-0.14106509,0.17376876,0.55606806,-0.964597,-9.390839
540,1747486612940,3.0192323,-0.554620085,0.185971625,0.1840244335,-0.621049175,-9.5519605
541,1747486612950,2.9836,-0.7585299,0.2272173,0.033023197,-0.48682585,-9.572467
542,1747486612960,2.9609025,-0.87348086,0.3521746,0.08948222,-0.5187838,-9.487246
543,1747486612970,2.99189785,-0.90508628,0.4106263,0.16112125,-0.5635249,-9.426792
544,1747486612980,3.1373558,-1.0069802,0.5352176,0.4415521,-0.67697555,-9.3610115
545,1747486612990,2.92380575,-1.16537335,0.50666285,0.66845345,-0.7025419,-9.407883
546,1747486613000,2.6439941,-1.30521815,0.448943325,1.0546118,-0.6740461,-9.346364
547,1747486613010,2.5296533,-1.3491484,0.42807645,1.1062771,-0.6428871,-9.310944
548,1747486613020,2.3170795,-1.4230978,0.39195594,1.1797804,-0.509729,-9.221461
549,1747486613030,2.033485,-1.4784988,0.32923323,1.2506205,-0.2892193,-9.10162
550,1747486613040,1.2847173,-1.6193199,0.21428227,1.2895026,-0.0015978967,-8.54715
551,1747486613050,0.91472656,-1.6508032,0.23136626,1.3544837,0.13741912,-8.145012
552,1747486613060,0.48542988,-1.6339632,0.18792409,1.4205302,0.3339604,-7.6246305
553,1747486613070,0.070532545,-1.5961344,0.11275445,1.423726,0.5118596,-7.044594
554,1747486613080,-0.43881494,-1.5392691,0.061014313,1.4226607,0.7952199,-6.4310017
555,1747486613090,-1.496803,-1.3720899,-0.111046046,1.4647386,1.375789,-4.6514773
556,1747486613100,-1.8711869,-1.2712942,-0.32581642,1.2974921,1.4588797,-3.4738274
557,1747486613110,-2.038366,-1.1573195,-0.5427833,0.79042625,1.4162691,-1.9574234
558,1747486613120,-1.9668574,-1.0775127,-0.7302193,0.165116,1.4269217,-0.8404937
559,1747486613130,-1.6976621,-1.0601847,-0.7856203,-0.5629923,1.5542208,0.06924219
560,1747486613140,-1.1539028,-1.0523748,-0.5693855,-1.7385116,1.9579561,1.1936288
561,1747486613150,-1.02003725,-1.08288205,-0.394152465,-2.1315942,2.1092236,1.609082
562,1747486613160,-1.0084445,-1.0967933,-0.33142975,-2.4053671,2.1816616,2.0847225
563,1747486613170,-0.9657345,-1.11875845,-0.245155515,-2.51562205,2.0908478,2.6759443
564,1747486613180,-0.76121455,-1.177088,-0.1415532,-2.6359968,1.7752632,3.8823564
565,1747486613190,-0.39817939,-1.2252894,-0.14826478,-2.763296,1.38084905,4.80381
566,1747486613200,-0.24771811,-1.2498171,-0.13764828,-2.8144288,1.2916331,5.029646
567,1747486613210,0.033435844,-1.3113196,-0.037584815,-2.834136,1.2218584,5.3763895
568,1747486613220,0.4886026,-1.4086984,0.06931226,-2.6029737,1.2191951,5.7716026
569,1747486613230,0.6643238,-1.398692,0.08005078,-2.4176178,1.1366372,5.844041
570,1747486613240,0.8515157,-1.3591548,0.084931925,-2.1875205,0.9108011,5.8435082
571,1747486613250,0.971836,-1.2815446,0.06638357,-1.9169434,0.6354303,5.749765
572,1747486613260,0.95597225,-1.2007617,0.025137896,-1.663943,0.3818973,5.6730657
573,1747486613270,0.8978866249999999,-1.1312053999999998,-0.0004881144999999,-1.46393965,0.15925703,5.7210026
574,1747486613280,0.8102701,-1.0008788,-0.033923957,-1.139833,-0.15233281,5.9068913
575,1747486613290,0.81319875,-0.971836,-0.06369894,-1.0524813,-0.1736381,6.0933127
576,1747486613300,0.88739216,-0.93571544,-0.09493827,-1.0231866,-0.221575,6.272277
577,1747486613310,0.9620737,-0.8571291,-0.07516963,-1.0114686,-0.20772657,6.396913
578,1747486613320,1.1883147,-0.77170897,-0.02318544,-0.9816412,0.09640643,6.5790734
579,1747486613330,1.4600724500000002,-0.6732318850000001,-0.00451506,-0.97578223,0.144875965,6.5244784
580,1747486613340,1.75294115,-0.52094018,0.0185483515,-0.91186637,0.21731395,6.1210093
581,1747486613350,1.5720948,-0.4898228799999999,0.0052472319999999,-0.73183668,0.0604537634999999,5.4285877
582,1747486613360,1.3701375,-0.5125202,-0.012446919,-0.6578008,-0.027164243,5.3172674
583,1747486613370,1.36586645,-0.5272856699999999,0.0054912885,-0.60240704,0.013848438,5.438175
584,1747486613380,1.3906382,-0.5718261,0.1010397,-0.50813115,0.1438107,5.7273946
585,1747486613390,1.4904575,-0.5523015,0.20134723,-0.3371562,0.16884442,6.1268687
586,1747486613400,1.9800364,-0.19256116,0.2672427,0.049002163,0.010652645,7.17935
587,1747486613410,2.91807045,0.1587592299999999,0.251867075,0.2149171,0.107858025,7.4302195
588,1747486613420,3.1986141,0.2801777,0.24625377,0.2647182,0.1768339,7.375891
589,1747486613430,3.7897208,0.3995217,0.18377511,0.34780884,0.2050634,6.7569723
590,1747486613440,3.8160791,0.5771954,0.1718163,0.45486793,0.18429075,6.1359234
591,1747486613450,3.2535273,0.635036945,0.03758481635,0.5113269,0.16937704,5.9532304
592,1747486613460,3.58141815,0.776834225,0.02464978185,0.33768883,0.3254383,6.665892
593,1747486613470,3.824377,0.8844635,0.044662476,0.16458336,0.44048685,6.843259
594,1747486613480,4.2570906,0.99453324,0.06369894,-0.015446335,0.5544701,6.6728168
595,1747486613490,4.547763,1.0899596,0.0370967,-0.21145499,0.6892261,6.2557654
596,1747486613500,4.6961493,1.5016843,0.011470691,-0.33182988,0.4628574,4.7079363
597,1747486613510,4.6780896,1.765022,-0.0014643435,-0.24714136,0.011717909,3.8791604
598,1747486613520,4.6054823,1.9350079,0.02098892325,-0.08948222,-0.55340487,3.009372
599,1747486613530,4.246352,2.3641827,0.013911263,-0.04474111,-0.9917612,2.2343922
600,1747486613540,3.81205205,2.41287195,-0.16229807,-0.6785734,-0.9491506,0.8655274
601,1747486613550,3.7448142,2.3819988,-0.17767367,-1.230913,-0.5651228,0.18908444
602,1747486613560,3.5822723,2.302436,-0.06809197,-1.7374463,-0.1555286,-0.49055427
603,1747486613570,3.3748236,2.1943188,0.1632743,-1.995773,0.12410331,-1.1568772
604,1747486613580,3.1402845,2.0408068,0.35607952,-1.9899141,0.27057716,-1.778459
605,1747486613590,2.7385664,1.6864356,0.5950116,-1.3576796,0.20399815,-3.0589068
606,1747486613600,2.5591843,1.5556209,0.65675807,-1.1116035,0.1206412024999999,-3.3233588000000003
607,1747486613610,2.3614979,1.4482356,0.6384538,-0.3339604,-0.1917476,-4.0517335
608,1747486613620,2.26216665,1.4137015000000002,0.604163715,-0.094808535,-0.32623725,-4.23815475
609,1747486613630,2.1220777,1.3541516,0.510445715,0.323574065,-0.57577545,-4.57824025
610,1747486613640,2.1297655,1.3120518,0.3939084,0.69774824,-0.80107886,-5.090899
611,1747486613650,2.5399036,1.2007617,0.1398448,0.690824,-0.6828345,-6.067746
612,1747486613660,2.728804,1.0374874,0.058573738,0.5267733,-0.55074173,-6.6211514
613,1747486613670,2.886709,0.78610843,0.0353883,0.4213120999999999,-0.492684815,-6.9726887
614,1747486613680,2.9008644,0.672499765,0.0899350999999999,0.29188245,-0.46685215,-7.58628085
615,1747486613690,2.8586426,0.0024405725,0.38512233,0.6087986,-0.8431568,-8.585499
616,1747486613700,2.7739546,-0.28164205,0.42075467,0.8900285,-0.9470201,-8.799617
617,1747486613710,2.6677897,-0.5976962,0.44808912,1.196292,-1.0759171,-8.932242
618,1747486613720,2.54795755,-0.641260425,0.39903361,1.4050838,-1.2506205,-8.858207
619,1747486613730,2.4377657,-0.732781875,0.31629819,1.44503125,-1.3382385,-8.786301250000001
620,1747486613740,2.5854205,-0.91155385,0.201591285,1.3845775,-1.71374425,-8.6038745
621,1747486613750,2.6614444,-0.959145,0.14252943,1.2602079,-1.8418423,-8.557802
622,1747486613760,2.7993367,-1.0426126,0.045638707,0.9731191,-1.8413097,-8.696819
623,1747486613770,2.8357011,-1.09593905,0.0111046055,0.78243675,-1.7960359,-8.8092045
624,1747486613780,2.8359451,-1.2734908,-0.049299564,0.15393071,-1.5350461,-9.135176
625,1747486613790,2.7679752,-1.34756215,-0.03014107,-0.267914,-1.2373047,-9.279519
626,1747486613800,2.2289748,-1.666667,0.24015234,-0.7451525,-0.6498113,-9.328521
627,1747486613810,1.9529461,-1.734759,0.39268813,-0.73769563,-0.38935417,-9.227854
628,1747486613820,1.6637384,-1.7635576,0.53985465,-0.5400891,-0.19281286,-9.028116
629,1747486613830,1.3381659,-1.7742962,0.6716455,-0.07456851,-0.10439592,-8.671252
630,1747486613840,0.9938011,-1.7369554,0.78806084,0.406931,-0.2034655,-8.317052
631,1747486613850,0.4288086,-1.6815544,0.66237134,1.1941614,-0.39361522,-7.3375416
632,1747486613860,0.0956704352499999,-1.611754,0.47249485,1.3859091,-0.37816888,-6.805442
633,1747486613870,-0.19573390475,-1.5658712,0.32776889,1.5566177,0.06631271,-5.75242805
634,1747486613880,-0.37804466,-1.5495194,0.24674188,1.6508936,0.45513423,-4.997954399999999
635,1747486613890,-0.6016011,-1.5187683,0.11324256,1.6719326,0.55287224,-4.7670584
636,1747486613900,-0.8520039,-1.4970472,-0.07004443,1.6170714,0.6514092,-4.287689
637,1747486613910,-1.1121689,-1.461903,-0.29652956,1.3310479,0.6737798,-3.6208339
638,1747486613920,-1.7091328,-1.3730661,-0.7241178,0.3584615,0.92092115,-2.3915186
639,1747486613930,-2.1108513,-1.3515891,-0.86933196,-0.35899413,1.200553,-1.4881744
640,1747486613940,-2.4537516,-1.3266952,-0.92863786,-1.1105382,1.5275892,-0.3717773
641,1747486613950,-2.6448483,-1.3186413,-0.8607899,-1.7555559,1.8136127,0.84848315
642,1747486613960,-2.5862746,-1.3179091,-0.74242216,-2.189651,1.9366508,2.0708742
643,1747486613970,-2.050325,-1.3066825,-0.56596875,-2.4106934,1.5211977,4.2051315
644,1747486613980,-1.7025435,-1.3140042,-0.54815257,-2.3020365,1.0956244,5.3348446
645,1747486613990,-1.2861817,-1.3098553,-0.52423495,-2.1805964,0.71532506,6.1668158
646,1747486614000,-0.79440635,-1.3115636,-0.51398456,-2.0612867,0.304133,6.866162
647,1747486614010,-0.23819989,-1.2932593,-0.524479,-1.9675435,-0.101200126,7.359912
648,1747486614020,0.58988637,-1.2500613,-0.56694496,-2.036253,-0.6423545,8.013985
649,1747486614030,0.738273135,-1.2456682,-0.553399805,-2.1278658,-0.67910612,8.1681815
650,1747486614040,0.99502135,-1.240787,-0.5176454349999999,-2.34464715,-0.70334087,8.4773745
651,1747486614050,1.295944,-1.2898425,-0.38975942,-2.6956518,-0.5970807,8.922122
652,1747486614060,1.8604484,-1.3518330500000002,0.014887495,-2.6541064,-0.5118596,9.592174
653,1747486614070,2.33989885,-1.28178855,0.173768755,-2.3249397,-0.6711166,9.596968
654,1747486614080,2.5596724,-1.2256554,0.23429495,-1.8492991,-0.77444726,9.303487
655,1747486614090,2.8957393,-1.044565,0.294089,-1.3283848,-0.79628515,8.769257
656,1747486614100,2.9438186,-0.8088057,0.3807293,-0.7781757,-0.78296936,8.139686
657,1747486614110,2.575292,-0.43100512,0.39878955,0.27483824,-0.6040049,7.1745563
658,1747486614120,2.2306833,-0.36584184,0.29774985,0.6737798,-0.51771855,6.972156
659,1747486614130,1.8509301,-0.35290676,0.1483868,0.9491506,-0.47191215,7.006777
660,1747486614140,1.6304244,-0.378776845,-0.0644311152,1.0636666,-0.499076395,7.3551185
661,1747486614150,1.9220729,-0.287865525,-0.1834090275,0.87964215,-0.352069905,7.481884949999999
662,1747486614160,2.2516723,-0.19988288,-0.24454537,0.7094661,-0.20293288,7.4898744
663,1747486614170,2.3871238,0.02391761,-0.20403185,0.5091964,0.014913702,7.163903
664,1747486614180,2.5909119,0.18792409,-0.16132185,0.3057309,0.14434333,6.788398
665,1747486614190,2.639723,0.54668826,-0.13496366,0.11984225,0.36218992,6.3947825
666,1747486614200,2.44032835,1.1283987,0.117879647,-0.23222765,0.6018744,5.9127502
667,1747486614210,2.4452095,1.1958805,0.16180995,-0.26391926,0.634098675,5.7479006
668,1747486614220,2.4436232,1.261898,0.196588105,-0.306529835,0.731570395,5.32499065
669,1747486614230,2.3756533,1.4504322,0.42197496,-0.17896444,0.9171927,4.626976
670,1747486614240,2.4076247,1.564651,0.5547421,0.112918034,0.9864349,4.0927463
671,1747486614250,2.2995074,1.842388,0.62014943,0.8900285,0.7584683,2.7478497
672,1747486614260,2.0447116,1.9075515,0.4617563,1.2037488,0.680704,2.1544974
673,1747486614270,1.7728319,1.8963249,0.25284332,1.2037488,0.680704,2.1544974
674,1747486614280,1.5636748,1.8860743,0.06858008,1.5840483,0.63383234,1.3848438
675,1747486614290,1.4257824,1.8982773,-0.127886,1.6889768,0.6018744,1.2740563
676,1747486614300,1.488017,2.1301317,-0.4510178,1.645301,0.39734364,1.1739215
677,1747486614310,1.488017,2.1301317,-0.4510178,1.645301,0.39734364,1.1739215
678,1747486614320,1.8556894,2.37003985,-0.5263094500000001,1.4788534,0.16990968,0.915594835
679,1747486614330,2.4061604,2.5103729,-0.5137405,1.0791129,-0.2412824,0.1304949
680,1747486614340,2.796408,2.388344,-0.39073566,0.79894835,-0.29134983,-0.48203218
681,1747486614350,2.8503447,2.233856,-0.2511349,0.24021713,-0.18908444,-1.3837786
682,1747486614360,3.07219265,2.00981135,0.0599160535,0.09427591,-0.30253512,-1.7241305
683,1747486614370,3.1571245,1.9500173,0.1786499,0.1123854,-0.56459016,-2.0719395
684,1747486614380,3.2789092,1.8453168,0.38170552,0.3174488,-0.90281165,-2.442119
685,1747486614390,3.6828237,1.6695957,0.6211257,0.88283789,-1.24449515,-3.144927
686,1747486614400,3.9034517,1.5851518,0.6428468,0.99442434,-1.257012,-3.3140378
687,1747486614410,4.086251,1.4687365,0.58305275,1.1345067,-1.1984226,-3.713512
688,1747486614420,4.1833854,1.3108315,0.45980385,1.10574445,-1.02371918,-4.4876928
689,1747486614430,4.0267005,1.1070436,0.29701766,1.0551444,-0.95927066,-4.7553406
690,1747486614440,3.3307713000000003,0.60977707,0.16949776,0.6354303,-0.7952199,-5.455752
691,1747486614450,3.0957441,0.441865675,0.223190345,0.45380266,-0.734499835,-5.789712400000001
692,1747486614460,2.988481,0.35705575,0.25894472,0.43089947,-0.71159667,-5.8967714
693,1747486614470,2.7385664,0.20744865,0.3219115,0.5440838,-0.67857345,-5.981726200000001
694,1747486614480,2.5131795500000003,-0.0630888,0.31239327,0.8056062500000001,-0.725178785,-6.05336535
695,1747486614490,2.3165914,-0.20915706,0.21818719,1.08683605,-0.853809485,-6.0752033
696,1747486614500,2.17284165,-0.26272761,0.0823693255,1.1606056,-0.9917612,-6.0448433
697,1747486614510,2.152585,-0.33265,0.025626011,1.1632688,-1.0551444,-6.049637
698,1747486614520,2.076195,-0.39708114,-0.049543623,1.0871024,-1.135572,-6.119944
699,1747486614530,1.96942,-0.51007965,-0.209523145,0.6266418300000001,-1.13956665,-6.35403605
700,1747486614540,1.9087718,-0.5952556,-0.27846932,0.1403486,-1.09882035,-6.537261750000001
701,1747486614550,1.7943089,-0.7189926,-0.27065948,-0.18722023,-1.0128002,-6.5918565000000005
702,1747486614560,1.7550157,-0.7653635,-0.2562601,-0.34301516,-0.9507485,-6.611031
703,1747486614570,1.607117,-0.98891998,-0.012935045,-0.53955644,-0.819721,-6.6381955
704,1747486614580,1.530727,-1.103871,0.11861181,-0.52357745,-0.49534798,-6.5875955
705,1747486614590,1.530727,-1.103871,0.11861181,-0.52357745,-0.49534798,-6.5875955
706,1747486614600,1.2722704,-1.29936075,0.3192268649999999,-0.1257012,-0.10226539,-6.4682856
707,1747486614610,1.198077,-1.317421,0.3338703,0.1635181,-0.05912218,-6.32341
708,1747486614620,0.826499875,-1.3785574,0.284692795,0.8444883999999999,-0.555002765,-5.649896249999999
709,1747486614630,0.7563334,-1.3777032,0.26577836,0.9353022,-0.6631271,-5.4983625
710,1747486614640,0.746449065,-1.3847808499999998,0.13947872,0.99628858,-0.927579,-5.108742
711,1747486614650,0.77366143,-1.3908823,0.08444381,0.91666008,-0.993092775,-4.952148299999999
712,1747486614660,0.6632255499999999,-1.4249282,-0.0400253896,0.85594,-0.99921805,-4.8959556
713,1747486614670,0.5354616,-1.4357888,-0.08175918,0.5289038,-0.8181231,-4.750547
714,1747486614680,0.1635183465,-1.4930202,-0.0656514,0.349140425,-0.598412315,-4.54734775
715,1747486614690,-0.1726704935,-1.5081517999999998,-0.0472250785,0.28682245,-0.424241565,-4.23415995
716,1747486614700,-0.5296042400000001,-1.48472235,-0.0345341005,0.287088775,-0.2993393,-3.74360565
717,1747486614710,-0.69898,-1.466296,-0.032215554,0.3057309,-0.2695119,-3.4716969
718,1747486614720,-1.2464004,-1.40699,-0.16180995,0.33662358,-0.32277513,-1.9105518
719,1747486614730,-1.43700905,-1.33963025,-0.340703905,0.16112124,-0.4487426599999999,-0.48336374835
720,1747486614740,-1.4611707,-1.3108315,-0.41099238,0.06391586,-0.51292485,-0.0015978967
721,1747486614750,-1.24188535,-1.18355565,-0.57621917,-0.6828345149999999,-0.72730928,1.47619027
722,1747486614760,-1.1091182000000002,-1.11619585,-0.616244555,-1.3952301,-0.71532506,2.4240093
723,1747486614770,-1.15256035,-1.1237616,-0.567799185,-1.88338755,-0.59894493,3.10737645
724,1747486614780,-1.2129645,-1.1351103,-0.5205741,-2.0820594,-0.5502091,3.4621096
725,1747486614790,-1.3081468,-1.1829455,-0.36901456,-2.3313313,-0.5320996,4.428837
726,1747486614800,-1.2913069,-1.2134526,-0.18694785,-2.3776703,-0.6034723,5.6448364
727,1747486614810,-0.54717636,-1.258115,0.13374338,-1.9371834,-0.96406436,8.225439
728,1747486614820,0.33069757,-1.2432276,0.20061506,-1.5803198,-1.1116035,9.16447
729,1747486614830,1.2854495,-1.1707426,0.16400647,-1.2516857,-1.2096078,9.633719
730,1747486614840,2.2226293,-1.0304097,0.0622346,-1.0141318,-1.1867046,9.524529
731,1747486614850,2.689999,-0.8334555,-0.09322987,-0.94968325,-0.9997507,9.0669985
732,1747486614860,2.4393523,-0.6028214,-0.3487578,-1.5824504,-0.69508505,8.497615
733,1747486614870,2.33025865,-0.631498125,-0.3209352749999999,-1.8903117,-0.7238472,8.776714
734,1747486614880,2.3715043,-0.6662763,-0.113974735,-2.0064256,-0.83250415,9.082977
735,1747486614890,2.6406994,-0.59013045,0.18231077,-1.8455707,-0.8681905,9.235311
736,1747486614900,3.0892766,-0.4334457,0.70337296,-0.74728304,-0.6151902,9.276855
737,1747486614910,3.0983067,-0.32898918,0.71874857,-0.060720075,-0.406931,9.195895
738,1747486614920,3.2779331,-0.23942018,0.5620638,0.49641323,-0.2428803,9.052617
739,1747486614930,3.5317523,-0.019036464,0.22355644,0.75793564,0.02396845,8.559933
740,1747486614940,3.5737302,0.40293851,-0.21599068,0.4745753,0.20719394,8.00493
741,1747486614950,3.0299706,1.0135698,-0.7826916,-1.3539511,0.5448828,7.1276846
742,1747486614960,2.9106266,1.0279691,-0.5264315,-2.3307986,0.81545997,6.640326
743,1747486614970,2.84558545,1.04249055,-0.189998575,-2.4754083,0.913464285,6.380934
744,1747486614980,2.426173,1.0523748,0.7990434,-2.2525017,1.0684602,5.6693373
745,1747486614990,1.8833898,0.98379475,1.1263242,-0.5219796,0.5278385,5.069061
746,1747486615000,1.8250601,0.99819416,0.87860614,0.29188246,0.11504856,4.7766457
747,1747486615010,1.7518429,1.1124129,0.49738866,0.81066626,-0.1123854,4.315919
748,1747486615020,1.55342435,1.37343215,0.020134723,0.7643272,-0.09853696,3.933489
749,1747486615030,1.4919219,1.4562895,-0.088348724,0.45167214,0.07563378,3.5457327
750,1747486615040,1.398692,1.6649586,-0.037584815,-0.2657835,0.4857606,2.7398603
751,1747486615050,1.3508569,1.7040077,0.12983845,-0.38509309,0.657800795,2.08765205
752,1747486615060,1.2432276,1.7037637,0.25406358,-0.3787015,0.69721556,1.8695391
753,1747486615070,1.2339534,1.69217095,0.27468643,-0.337422515,0.72118403,1.64210515
754,1747486615080,1.2078394,1.683507,0.30287504,-0.12783173,0.7680557,0.9470201
755,1747486615090,1.0760484,1.6447018,0.108117364,0.112918034,0.71106404,0.51505536
756,1747486615100,1.0372432,1.6298143,-0.0034168016,0.6583334,0.2695119,-0.06977482
757,1747486615110,1.1221752,1.6310346,-0.0302631,0.88949585,-0.0063915867,-0.16724652
758,1747486615120,1.325475,1.6356717,-0.031483386,1.144094,-0.18482338,-0.30519825
759,1747486615130,1.5334117,1.6276178,-0.049543623,1.3773869,-0.2828277,-0.49002165
760,1747486615140,1.786743,1.6630061,-0.08859278,1.568602,-0.314253,-0.7174556
761,1747486615150,2.0605752,1.7747843,-0.29897013,1.5994946,-0.26418558,-1.3480922
762,1747486615160,2.2294629,1.7501346,-0.417826,1.3896375,-0.23542345,-1.6511599
763,1747486615170,2.4691272,1.6695957,-0.4419877,1.0764498,-0.30679616,-2.0735373
764,1747486615180,2.7399087,1.3756287,-0.339483615,0.723580895,-0.593884935,-2.7238813
765,1747486615190,2.7607756,1.2312689,-0.260165,0.57417756,-0.7488809,-2.9710226
766,1747486615200,2.8613272,1.09508495,-0.0716308025,0.528903825,-0.89455585,-3.0463901
767,1747486615210,2.920389,1.0631135,-0.007565775,0.5400891,-0.928378,-3.064766
768,1747486615220,3.1127062,1.0389518,0.08981306,0.608266,-1.0098706,-3.1393344
769,1747486615230,3.2850106,1.0389518,0.15033926,0.69987875,-1.128115,-3.266101
770,1747486615240,3.6569538,0.95426387,0.14277348,0.77125144,-1.3725933,-3.7374804
771,1747486615250,3.7787383,0.8742131,0.09322987,0.6045376,-1.3725933,-4.171043
772,1747486615260,3.778006,0.7653635,0.063943,0.35153726,-1.3198626,-4.527374
773,1747486615270,3.6611028,0.6452874,0.10201593,0.07403588,-1.2420983,-4.8192563
774,1747486615280,3.5105195,0.49909708,0.19500175,-0.037017945,-1.1893677500000002,-4.922586900000001
775,1747486615290,3.3574958,0.36096066,0.31678632,-0.26844665,-1.0231866,-5.1809134
776,1747486615300,3.07805,0.14545812,0.5508372,-0.18056233,-0.82877576,-5.4839816
777,1747486615310,2.9411337,0.037828874,0.58939826,-0.026631612,-0.7174556,-5.653891
778,1747486615320,2.7807882,-0.056377225,0.58085626,0.16192019,-0.63702816,-5.7955713
779,1747486615330,2.6267881,-0.16058967,0.54864067,0.36591834,-0.61891866,-5.928197
780,1747486615340,2.21311115,-0.32715874,0.355103305,0.60507023,-0.7030745,-6.037919
781,1747486615350,2.025187,-0.37633628,0.21843125,0.6263755,-0.75101143,-5.980395
782,1747486615360,1.9339097,-0.4373506,0.12861817,0.49747851,-0.70680296,-5.995841
783,1747486615370,1.7430568,-0.5771954,0.022697324,0.10705908,-0.44794372,-5.9729376
784,1747486615380,1.6312786,-0.64772797,0.028798755,-0.10279802,-0.18961707,-5.946839
785,1747486615390,1.5392691,-0.6987359,0.053692598,-0.27643612,0.039947417,-5.925534
786,1747486615400,1.4811834,-0.7490117,0.07443746,-0.406931,0.18162759,-5.929795
787,1747486615410,1.4189488,-0.8156393,0.10177187,-0.5001417,0.2743056,-5.9505672
788,1747486615420,1.338654,-0.88251098,0.15497635,-0.42663842,0.30466563,-5.92287
789,1747486615430,1.22065235,-0.97439853,0.222824275,-0.37577204,0.281229815,-5.882123849999999
790,1747486615440,1.1138773,-1.0382195,0.26748675,-0.19813919,0.18162759,-5.7305903
791,1747486615450,0.981476225,-1.11216885,0.328989165,0.091612747,0.0681769265,-5.52579305
792,1747486615460,0.92278045,-1.1485333,0.35168648,0.20399815,0.036218993,-5.4562845
793,1747486615470,0.8092938249999999,-1.25896925,0.39842345,0.528903825,-0.0103863275,-5.26826525
794,1747486615480,0.63918597,-1.547811,0.39708114,1.2197278,-0.08735169,-4.8948903
795,1747486615490,0.5261874,-1.7066923,0.28213018,1.5893745,-0.017576864,-4.770254
796,1747486615500,0.3048275,-1.8304293,0.07687803,1.7310548,0.1571265,-4.6829023
797,1747486615510,-0.10348027,-1.9126767,-0.27944556,1.7044232,0.27483824,-4.324441
798,1747486615520,-0.34949,-1.8880268,-0.3773125,1.4716629,0.1454086,-4.052266
799,1747486615530,-0.6147802,-1.8487337,-0.4458926,1.4013554,-0.14807177,-3.6794233
800,1747486615540,-0.9637821,-1.7745403,-0.4807928,1.3811153,-0.51292485,-3.1867387
801,1747486615550,-1.5270662,-1.564651,-0.56865335,1.3821807,-0.84688526,-2.525742
802,1747486615560,-1.6720362,-1.4511645,-0.6640798,1.1606057,-1.1792477,-0.721184
803,1747486615570,-1.67459875,-1.38954,-0.71508775,0.96672755,-1.15128455,-0.09560745
804,1747486615580,-1.5553769,-1.2256554,-0.818568,0.34567833,-1.0407634,1.4679344
805,1747486615590,-1.3323085,-1.1136333,-0.8139309,-0.12516858,-0.94542223,2.269546
806,1747486615600,-1.0765365,-1.0035634,-0.7690244,-0.5699165,-0.8708537,2.9044435
807,1747486615610,-0.6272271,-0.8510276,-0.64357895,-1.2713932,-0.82185155,3.7476003
808,1747486615620,-0.58988635,-0.8293065,-0.633206525,-1.5648735,-0.87351686,4.114584
809,1747486615630,-0.592571,-0.80392456,-0.5657247,-1.8104169,-0.99708754,4.622715
810,1747486615640,-0.6667644,-0.83491987,-0.45345837,-1.9664782,-1.1914983,5.3971624
811,1747486615650,-0.23258655,-0.87030816,-0.23356278,-2.0208068,-1.7496969,7.9468727
812,1747486615660,0.37316352,-0.8871481,-0.1718163,-1.9984361,-1.9259981,8.930645
813,1747486615670,1.0821499,-0.8978866,-0.07736614,-1.9686087,-1.97340245,9.267002
814,1747486615680,1.8126132,-0.9117979,-0.008297946,-1.8263959,-1.901497,9.911221
815,1747486615690,3.014107,-0.7563334150000001,-0.0546688205,-1.76381165,-1.13930035,9.256082500000002
816,1747486615700,3.5754385,-0.6399181,-0.08371163,-1.7853832,-0.7717841,8.665926
817,1747486615710,3.627911,-0.4544346,-0.05832968,-1.7496969,-0.6402239,7.773235
818,1747486615720,3.2549915,-0.38902727,-0.008297946,-1.6112125,-0.7302388,7.112238
819,1747486615730,2.6790166,-0.4046469,0.09005712,-1.2719258,-1.1009508,7.1117053
820,1747486615740,2.374433,-0.42954078,0.584029,0.04527374,-1.5403724,8.526909
821,1747486615750,2.6633968,-0.43027294,0.5269196,0.829841,-1.4434333,8.988702
822,1747486615760,2.9299073,-0.41977844,0.29652956,1.3550164,-1.1622036,9.08138
823,1747486615770,3.3653057,-0.36144876,-0.079318605,1.4359765,-0.70627034,8.888034
824,1747486615780,3.4599996,-0.062478654,-0.5942794,0.9853696,-0.10226539,8.502941
825,1747486615790,3.1263733,0.39146784,-1.1812371,-1.3853765,0.8479505,7.8765655
826,1747486615800,3.0575492,0.5599893300000001,-0.63345059,-2.6045716,0.9518138,7.449927
827,1747486615810,3.044614,0.6145361,-0.35510328,-3.422162,0.799481,6.681339
828,1747486615820,3.1005034,0.66139513,0.17938207,-3.44692945,0.7187872,6.275473
829,1747486615830,2.8808517,0.83223516,0.61844105,-3.0812774,0.5203817,5.141499
830,1747486615840,2.1940746,1.3384099,0.95792466,-1.9579561,0.18482338,4.3068643
831,1747486615850,2.1940746,1.3384099,0.95792466,-1.9579561,0.18482338,4.3068643
832,1747486615860,2.0400746,1.5871042,0.9022797,-1.133974,0.14327806,3.4232273
833,1747486615870,1.8946164,1.6393324,0.85908157,-0.92092115,0.28655612,2.8985846
834,1747486615880,1.5941819,1.6451898,0.7804951,-0.48149952,1.0407634,1.824798
835,1747486615890,1.5314592,1.6759411,0.69409883,0.02396845,1.24769095,1.00241385
836,1747486615900,1.4560456,1.7076685,0.5337532,0.20879184,1.2516857,0.7105314
837,1747486615910,1.2612879,1.6971741,0.25040275,0.4607269,1.0263823,0.18216023
838,1747486615920,1.0321181,1.6725243,-0.039781332,0.5123922,0.61412495,-0.19813919
839,1747486615930,0.8829991,1.6342072,-0.29945824,0.34141725,0.25672874,-0.43409526
840,1747486615940,1.0099089,1.470933,-0.5547421,-0.4415521,0.257794,-0.73769563
841,1747486615950,1.25335595,1.42248765,-0.4018402399999999,-0.8090684,0.45060685,-0.92784536
842,1747486615960,1.3152245,1.4040614,-0.33631086,-1.009338,0.66632295,-1.1435614
843,1747486615970,1.4050376,1.3142483,-0.25552794,-1.0940266,0.7707188,-1.4311827
844,1747486615980,1.4938743,1.2312689,-0.19744232,-1.099353,0.65194184,-1.6793894
845,1747486615990,1.7357352,1.24518,0.025137896,-0.8346347,0.23915187,-2.1901836
846,1747486616000,1.85361475,1.23846845,0.0817591729999999,-0.561927,0.0551274349999999,-2.3390543
847,1747486616010,1.9714943,1.2317569,0.13838045,-0.2892193,-0.128897,-2.487925
848,1747486616020,2.48657725,1.2564068000000002,0.141065085,-0.011717909,-0.28495824,-2.5816684
849,1747486616030,2.7983603,1.2539662,0.10201593,0.34248254,-0.22690132,-2.98061
850,1747486616040,3.06157625,1.17159675,-0.0237955815,0.40453419,-0.119309625,-3.40112305
851,1747486616050,3.1310105,1.1485333,-0.06296677,0.4295679,-0.12809805,-3.6525254
852,1747486616060,3.2437649,1.1229074,-0.09225364,0.44528055,-0.15659387,-3.7555897
853,1747486616070,3.4592674,1.0662861,-0.097134784,0.62531024,-0.5571333,-4.243481
854,1747486616080,3.4175334,1.07434,-0.06345488,0.75633776,-0.8633968,-4.4426856
855,1747486616090,3.3809252,1.044321,-0.08517598,0.8383631,-1.0956244,-4.569452
856,1747486616100,3.3901992,0.99404514,-0.11617125,0.8357,-1.2037488,-4.6978164
857,1747486616110,3.359204,0.9554841,-0.15058333,0.5267733,-1.1020161,-4.9779806
858,1747486616120,3.320887,0.8872701,-0.155342445,0.383495215,-1.01066965,-5.090099800000001
859,1747486616130,3.1310105,0.6801876,-0.093717985,0.06178534,-0.8090684,-5.388108
860,1747486616140,2.957974,0.53058046,-0.0017084008,-0.013315806,-0.79202414,-5.549495
861,1747486616150,2.7410069,0.37584817,0.08639627,0.01438107,-0.8900285,-5.676794
862,1747486616160,2.5035393,0.14399378,0.16913168,0.17044231,-1.1632688,-5.7769294
863,1747486616170,2.5035393,0.14399378,0.16913168,0.17044231,-1.1632688,-5.7769294
864,1747486616180,2.1860206,0.0,0.20525214,0.2892193,-1.3113406,-5.845106
865,1747486616190,1.9695419,-0.10006347,0.22453266,0.345944635,-1.3829796,-5.8632156
866,1747486616200,1.6405529,-0.3287451,0.16400647,0.48203218,-1.5504924,-5.72047
867,1747486616210,1.3935668,-0.46810177,0.09518232,0.3898868,-1.4668691,-5.3902383
868,1747486616220,1.3459758,-0.51520485,0.044418417,0.221575,-1.3821807,-5.254417
869,1747486616230,1.3540297,-0.5693855,0.030751213,0.007456851,-1.2389026,-5.1596084
870,1747486616240,1.4052816,-0.6595647,0.0096402611,-0.368847835,-0.923584275,-5.1276505
871,1747486616250,1.4235859,-0.6958072,-0.0017084008,-0.50600064,-0.81705785,-5.1335096
872,1747486616260,1.4094306,-0.82906246,0.065407336,-0.99708754,-0.588026,-5.289038
873,1747486616270,1.3612293000000002,-0.8821448949999999,0.134353513,-1.02931182,-0.5845639,-5.3172675
874,1747486616280,1.189047,-1.0123495,0.3917119,-0.8607337,-0.71479243,-5.2794504
875,1747486616290,1.0540832,-1.0726316,0.54034275,-0.5368933,-0.86606,-5.132977
876,1747486616300,0.869576,-1.1517061,0.72094506,0.3653857,-1.2405005,-4.7063384
877,1747486616310,0.7922098,-1.185142,0.71313524,0.8378305,-1.3704628,-4.466654
878,1747486616320,0.7438865,-1.2332213,0.6277153,1.02105595,-1.39363225,-4.376639
879,1747486616330,0.6782351,-1.2839851,0.42051062,1.4098775,-1.3592775,-4.213121
880,1747486616340,0.5786598,-1.3249868,0.22624107,1.4183996,-1.2825783,-4.155064
881,1747486616350,0.27554062,-1.3511009,-0.07809832,0.9464875,-1.1627362,-3.8962047
882,1747486616360,0.11226633,-1.3332847,-0.13935669,0.5107943,-1.1302456,-3.6458676
883,1747486616370,0.0169619749999999,-1.3162007,-0.138014375,0.35260253,-1.1190603,-3.5260253
884,1747486616380,-0.24552159,-1.2659249,-0.08590815,-0.04261058,-1.0551444,-3.1329427
885,1747486616390,-0.4271002,-1.2215066,-0.0078098318,-0.14966966,-0.9550096,-2.8181572
886,1747486616400,-0.8673795,-1.1177822,0.08102701,-0.084155895,-0.7094661,-1.9760655
887,1747486616410,-1.0677505,-1.0638455,0.08444381,0.009054748,-0.56885123,-1.4189322
888,1747486616420,-1.1535366,-1.0406601,0.0528383954999999,0.046339004,-0.501739565,-1.097755
889,1747486616430,-1.2905747,-0.99929243,-0.0275784675,0.08468852,-0.3520699,-0.11132014
890,1747486616440,-1.3335288,-0.91057765,-0.33435842,-0.27164245,-0.46498793,1.2415657
891,1747486616450,-1.2433497,-0.8428516699999999,-0.44271985,-0.73210302,-0.578971225,1.9489013
892,1747486616460,-1.2322451,-0.8190561,-0.45931572,-0.8905611,-0.59601545,2.1821942
893,1747486616470,-1.2174796,-0.8030703699999999,-0.4446723099999999,-1.0381002499999998,-0.598678625,2.44052085
894,1747486616480,-1.26214205,-0.732659865,-0.342168255,-1.4588797,-0.5784386,3.2565134
895,1747486616490,-1.3501247,-0.71118283,-0.27358818,-1.911617,-0.36485308,4.877313
896,1747486616500,-1.3442672,-0.7048373,-0.183287,-2.0463731,-0.27057716,6.095976
897,1747486616510,-1.0579882,-0.75999427,-0.1466784,-2.15503,-0.21997711,7.397729
898,1747486616520,-0.74657114,-0.798555285,-0.123492965,-2.227468,-0.2082592,8.772985
899,1747486616530,0.6772589,-0.84834296,-0.048567392,-2.1582258,-0.22530343,9.349294
900,1747486616540,2.5333142,-0.49079913,-0.08029483,-1.8056233,-0.44581318,8.765529
901,1747486616550,2.9213653,-0.20964517,-0.13789235,-1.6650083,-0.7094661,8.022507
902,1747486616560,2.805926,-0.017084008,-0.13496366,-1.5451661,-0.95234644,7.4392743
903,1747486616570,2.5604045,0.0057353449999999,-0.0617464845,-1.4471618,-0.98190752,7.3841469
904,1747486616580,2.11036305,0.0004881139999999,0.0950602955,-1.19522675,-0.90946952,7.53381655
905,1747486616590,2.03299695,-0.18133454,0.403914745,0.3549993755,-0.34221621,9.2140045
906,1747486616600,2.2070098,-0.22916976,0.39878955,0.72651035,-0.29987195,9.469135
907,1747486616610,2.959438,-0.20305562,0.26065314,1.2191951,-0.11930962,9.389241
908,1747486616620,3.2412022,-0.1155611015,0.146434347,1.4956313,0.108124346,8.882175
909,1747486616630,3.594231,0.17962612,-0.19060871,1.4514228,0.19547603,8.231298
910,1747486616640,3.2230201,0.60831269,-0.5115439900000001,0.752076685,0.2727077049999999,7.27549
911,1747486616650,2.8664525,0.7311955,-0.73729694,0.12836437,0.16990969,6.891196
912,1747486616660,2.793235,0.8463905,-0.6221019,-0.561927,0.21198763,6.6957197
913,1747486616670,2.78994035,0.916801,-0.540586785,-0.8772452500000001,0.288154045,6.5734806
914,1747486616680,2.7463763,1.0272369,-0.22477673,-1.7038904,0.5933523,6.124738
915,1747486616690,2.3890765,1.1153417,0.55742675,-1.9489013,0.80374205,5.635249
916,1747486616700,2.1882172,1.1021625,0.7743936,-1.2447615,0.7824367,4.8975534
917,1747486616710,2.1430666,1.0855666,0.83223516,-0.6823019,0.65673554,4.4714475
918,1747486616720,2.1901696,1.1402354,0.7180164,-0.20719394,0.5086638,3.8519962
919,1747486616730,2.1250064,1.2485968,0.50593066,0.056459017,0.34621096,3.1004522
920,1747486616740,1.7101091,1.4028411,0.26870704,0.010652645,0.19387813,1.7539579
921,1747486616750,1.30741465,1.35390755,0.33557869,-0.1121190825,0.29667616,1.146490885
922,1747486616760,1.1914874,1.3242546,0.38585448,-0.120907515,0.36432046,0.98430437
923,1747486616770,0.9613415,1.2385906,0.55840296,0.096939065,0.6892261,0.68336713
924,1747486616780,0.62356627,1.1741594,0.643823,0.94808537,1.3358417,0.47670585
925,1747486616790,0.6626154,1.2590914,0.44516042,1.417867,1.5536882,0.40586576
926,1747486616800,0.8427297,1.3830724,0.14887492,1.7401094,1.510545,0.21092236
927,1747486616810,1.1441404,1.5473229,-0.18304294,1.9462382,1.133974,-0.17576863
928,1747486616820,1.4121152,1.8648415,-0.5613316,2.0463731,0.47723848,-1.2149341
929,1747486616830,1.4560456,2.0273836,-0.5989165,1.9393139,-0.99282646,-1.6426378
930,1747486616840,1.4980234,2.105726,-0.71167094,1.5355787,-1.1877699,-2.0485036
931,1747486616850,1.6004054,2.0798558,-0.9310784,0.59441758,-0.7289072000000001,-2.5142904
932,1747486616860,1.6127303,2.0686293,-0.9669548,0.2428803,-0.53476274,-2.6695528
933,1747486616870,1.5583055,1.7996782,-0.75438094,-0.9060074,-0.13315806,-3.1558459
934,1747486616880,1.71499025,1.61907575,-0.379020895,-1.1166635,-0.34967306,-3.3659693500000003
935,1747486616890,1.96295235,1.52572385,-0.129594399,-0.98510335,-0.5917544,-3.48394745
936,1747486616900,2.23385595,1.5384148,0.082003236,-0.6511429,-0.85993475,-3.6133771
937,1747486616910,2.3588133,1.581979,0.17401282,-0.4415521,-1.000816,-3.6826193
938,1747486616920,3.0292385,1.7813739,0.21135357,0.27004454,-1.8109496,-4.3361588
939,1747486616930,3.2508426,1.6937572,0.16058967,0.30200246,-1.9734024,-4.7654605
940,1747486616940,3.1951976,1.5963784,0.19719826,0.22743396,-1.8913771,-5.0520167
941,1747486616950,3.03546205,1.33267465,0.25162302,0.11558119,-1.2554141,-5.2187304
942,1747486616960,2.9806712,1.19344,0.2796896,-0.060720075,-1.0002834,-5.2693305
943,1747486616970,2.9284429000000003,1.06518785,0.3256943949999999,-0.07669904,-0.748081965,-5.274124199999999
944,1747486616980,2.96480735,1.0002686,0.3515644599999999,-0.06977482,-0.68336713,-5.2709284
945,1747486616990,2.9916537,0.9701275,0.3607166,-0.046871636,-0.5832323,-5.345497
946,1747486617000,2.958462,0.9371798,0.39488465,-0.00958738,-0.46552056,-5.4733286
947,1747486617010,2.8996441,0.89715445,0.46932206,0.18162759,-0.17257284,-5.69011
948,1747486617020,2.95614335,0.850539505,0.503002,0.52677327,-0.0087884325,-5.9218052
949,1747486617030,2.9821355,0.81783587,0.5039782,0.67005134,0.02876214,-6.0288644
950,1747486617040,2.9618788,0.70459324,0.42929673,0.9784454,0.004261058,-6.2823973
951,1747486617050,2.613609,0.35095432,0.17401282,1.448227,-0.36751625,-6.6717515
952,1747486617060,2.3573492,0.19378147,0.05198419,1.5318503,-0.63436496,-6.7143617
953,1747486617070,2.1211014,0.04612682,-0.04905551,1.4865766,-0.8676579,-6.6690884
954,1747486617080,1.9034024,-0.09322987,-0.13838045,1.2756542,-0.9917612,-6.5087657
955,1747486617090,1.6961979,-0.22965786,-0.20354374,1.0135992,-0.97258645,-6.336193
956,1747486617100,1.4140676,-0.3909797,-0.1803583,0.45593318,-0.892159,-6.0107546
957,1747486617110,1.3100992,-0.42661208,-0.14082102,0.21092236,-0.8452873,-5.8371167
958,1747486617120,1.257749,-0.426490055,-0.1164153,0.0969390645,-0.8018778,-5.73272085
959,1747486617130,1.1248599,-0.41977844,-0.04271002,-0.23116238,-0.60080916,-5.4126086
960,1747486617140,1.0521308,-0.41538543,0.0039049159,-0.43729106,-0.34461305,-5.2032843
961,1747486617150,0.9093573,-0.44320798,0.174745,-0.7089335,0.3009372,-4.8107343
962,1747486617160,0.8261338,-0.4617563,0.32410803,-0.59867865,0.5363607,-4.577441
963,1747486617170,0.7870846499999999,-0.47505743,0.412822815,-0.28868666,0.5470133,-4.4080644
964,1747486617180,0.694831,-0.5142286,0.647972,-0.0460726799999999,0.460460565,-4.324973849999999
965,1747486617190,0.5693855,-0.6242984,0.70410514,1.383246,-0.12144015,-3.8642468
966,1747486617200,0.49616838,-0.6555378,0.5852493,1.8892465,-0.3222425,-3.652259
967,1747486617210,0.45004156,-0.6716455,0.42319524,2.06128675,-0.4000068,-3.53960735
968,1747486617220,0.42807645,-0.6914142,0.2208718,2.368083,-0.5581986,-3.2160335
969,1747486617230,0.31703037,-0.70215267,-0.11690342,2.0399814,-0.4809669,-2.769155
970,1747486617240,0.24332508,-0.71728426,-0.2020794,2.0399814,-0.4809669,-2.769155
971,1747486617250,0.16547081,-0.74583894,-0.23039004,0.970722275,-0.0673779799999999,-2.0618194
972,1747486617260,0.12715383,-0.79489446,-0.23551524,0.76752305,-0.00479369,-1.9409119
973,1747486617270,0.1239810849999999,-0.81612745,-0.23258655,0.576308075,0.001864213,-1.8434402
974,1747486617280,0.11275445,-0.8754333,-0.21257387,0.22343922,-0.0141147539999999,-1.68285155
975,1747486617290,-0.062478654,-0.9513352,-0.0656514,-0.36911413,-0.10226539,-1.3880396
976,1747486617300,-0.19036464,-1.0003906,0.042465962,-0.43995422,-0.12197278,-1.1851068
977,1747486617310,-0.264314,-1.0092987,0.0878606109999999,-0.42157841,-0.139283325,-1.0556771
978,1747486617320,-0.41636168,-1.02137955,0.15436621,-0.28868666,-0.22104238,-0.509729
979,1747486617330,-0.6557818,-1.0243083,0.17987019,-0.20133498,-0.267914,-0.10013486
980,1747486617340,-0.81930023,-1.0169866,0.13032657,-0.17310548,-0.22956449,0.8346347
981,1747486617350,-0.84053314,-1.0262607,0.122760795,-0.22849922,-0.12942964,1.3374395
982,1747486617360,-0.82027644,-1.01479,0.12666571,-0.29454562,0.013315806,1.8290591
983,1747486617370,-0.7665838,-0.97598493,0.110801995,-0.3584615,0.14274544,2.2817965
984,1747486617380,-0.7304634,-0.93181056,0.05418071,-0.45380265,0.22743396,2.6935213
985,1747486617390,-0.72753465,-0.88690406,-0.11251039,-1.05274763,0.49215217,3.851197500000001
986,1747486617400,-0.7214332,-0.8768977,-0.12373702,-1.2090752,0.535828,4.164119
987,1747486617410,-0.690682,-0.8659151,-0.13057062,-1.4407701,0.5795039,4.6919575
988,1747486617420,-0.68653303,-0.8788501,-0.13105874,-1.6676716,0.5635249,5.264537
989,1747486617430,-0.6958072,-0.90398806,-0.114462845,-1.8855181,0.47351006,5.970807
990,1747486617440,-0.40123013,-0.9679311,-0.08371163,-2.3276029,0.20772657,7.889881
991,1747486617450,0.17547716,-1.0042956,-0.0993313,-2.572081,0.056459017,8.829977
992,1747486617460,0.89764255,-0.9781815,-0.113974735,-2.8346686,-0.11345066,9.514409
993,1747486617470,1.348782375,-0.9492607,-0.0770000625,-2.9433256,-0.2314287049999999,9.6763295
994,1747486617480,3.1703036,-0.5554743,0.41538543,-3.0162964,-0.5470133,9.459548
995,1747486617490,3.3235717,-0.38268176,0.70093244,-2.6397252,-0.4261058,9.2896385
996,1747486617500,3.2576761,-0.25772443,0.94254905,-2.030394,-0.2759035,9.299226
997,1747486617510,3.141505,-0.17084008,1.0845904,-1.25861,-0.22104238,9.491507
998,1747486617520,3.3579838,0.3133695,0.8542004,-0.15339808,-0.28708878,10.521085
999,1747486617530,4.3176168,0.49433793,0.45626502,0.0005326322,0.1107875,10.758638
1000,1747486617540,5.0666285,0.7520623799999999,0.1622980765,-0.15925704,0.76912093,10.318685
1001,1747486617550,5.414898,0.93181056,0.027334413,-0.6013418,1.3283848,9.1133375
