id,timestamp,acc_x,acc_y,acc_z,gyro_x,gyro_y,gyro_z
1,1747486622240,-0.08444381,0.123004854,0.8434618,0.10918961,0.23755397,-1.0823087
2,1747486622250,0.3807293,-1.4699568,-0.036120474,0.28549087,0.66525763,-3.8498657
3,1747486622260,0.2550398,-1.5458585,-0.07541369,0.047404267,0.8175905,-3.6506612
4,1747486622270,0.0983550715,-1.70937695,-0.145092025,-0.28655612,0.94542223,-3.3422673
5,1747486622280,0.039537273,-1.7772248,-0.15936938,-0.5470133,0.99762017,-3.0722227
6,1747486622290,-0.20281157,-1.8567874,-0.13179092,-0.9337043,0.830373645,-2.22320685
7,1747486622300,-0.33533466,-1.96942,-0.09261973,-0.9550096,0.76059884,-2.056493
8,1747486622310,-0.40684342,-2.0183535,-0.0873725,-0.92997587,0.6317018,-1.7225326
9,1747486622320,-0.62063754,-2.0696054,-0.08371163,-0.88044107,0.5438175,-1.2980248
10,1747486622330,-1.0438329,-2.15771,-0.17572121,-0.80747044,0.47297743,-0.11717909
11,1747486622340,-1.2017379,-2.1796753,-0.22599702,-0.83063995,0.388821525,1.1475561
12,1747486622350,-1.2238251,-2.14672755,-0.222946295,-0.801877825,0.301203515,2.08552145
13,1747486622360,-1.1888028,-2.1208575,-0.21940747,-0.77231675,0.25566345,2.5044367
14,1747486622370,-0.99160457,-2.0310445,-0.22697324,-0.67005134,0.12836437,3.2245555
15,1747486622380,-0.35705576,-1.684361,-0.3350906,-0.407463655,-0.35233622,4.4277718
16,1747486622390,-0.21501444,-1.6061407,-0.3687705,-0.38083205,-0.46179214,4.6008773
17,1747486622400,-0.016595893,-1.475082,-0.4253918,-0.39787626,-0.6269081,4.8874335
18,1747486622410,0.17596528,-1.3667207,-0.48103684,-0.5001417,-0.66579026,5.130846
19,1747486622420,0.29164842,-1.2571388,-0.4898229,-0.6332997,-0.5949502,5.3662696
20,1747486622430,0.43320164,-0.9876996,-0.27480847,-0.68336713,-0.6428871,6.3138223
21,1747486622440,0.6721336,-0.80368054,-0.19134088,-0.54807854,-0.69508505,6.8746843
22,1747486622450,1.3785575,-0.4835994249999999,-0.086762352,-0.37230992,-0.7078682,7.3844132
23,1747486622460,1.683263,-0.3841461,-0.05051985,-0.16884442,-0.67005134,7.6448703
24,1747486622470,2.1891935,-0.2294138,-0.020012695,0.08149273,-0.5028048,7.6054554
25,1747486622480,2.5006106,-0.14082102,-0.06760386,0.31318775,-0.2790993,7.466439
26,1747486622490,2.7458881,-0.089813069,-0.243447115,0.854608415,-0.157392825,7.793475
27,1747486622500,2.8676727,-0.053692598,-0.28994003,0.9582054,-0.23435818,8.013985
28,1747486622510,3.73761465,0.399521715,-0.46895599,0.83729785,-0.248206625,9.1444965
29,1747486622520,4.40877215,0.6665203550000001,-0.54119695,0.36565203,0.29055088,9.508817
30,1747486622530,4.5880322,0.6672525300000001,-0.5814664,-0.23489082,1.017860185,9.4225305
31,1747486622540,4.6236644,0.6343048,-0.6023333,-0.5832323,1.4098775,9.348761
32,1747486622550,4.9953637,0.49934113,-0.49616838,-1.3475596,1.9382486,8.990299
33,1747486622560,5.065408,0.5210622,-0.22990192,-1.8732675,2.1848574,8.33889
34,1747486622570,4.298336,0.6186851,0.5933032,-1.4924355,1.7779263,6.9492526
35,1747486622580,3.7496955,0.7319277,0.8937377,-0.41172472,1.1733888,6.5859976
36,1747486622590,3.3628647,0.89398164,0.7934301,1.2298478,0.40533313,6.3218117
37,1747486622600,3.3150296,0.97647303,0.40440285,2.2066953,-0.1587244,5.953763
38,1747486622610,2.83082,1.2254114,-0.63308454,2.5023062,-0.5342301,4.932707
39,1747486622620,2.4364235,1.3213259,-1.0594525,1.7635453,-0.3787015,4.5944858
40,1747486622630,2.1079226,1.347684,-1.3393861,0.62531024,-0.006924219,4.353736
41,1747486622640,1.956607,1.3711137,-1.3440232,-0.664725,0.48043427,4.0714407
42,1747486622650,1.7330506,1.4533609,-0.7038611,-1.8492991,0.91985583,3.6501286
43,1747486622660,1.568556,1.4367651,-0.28042176,-3.365703,1.5856462,2.4101608
44,1747486622670,1.3659884,1.4604386,0.2238005,-3.4099116,1.6160061,1.8082864
45,1747486622680,1.1585398,1.4860646,0.61746484,-3.0482543,1.4413028,1.2458268
46,1747486622690,0.9906283,1.496803,0.8642067,-2.4165523,1.0466223,0.7440872
47,1747486622700,0.87616557,1.509006,1.0770246,-0.77977358,-0.1091896149999999,-0.2295644899999999
48,1747486622710,0.71874857,1.534876,1.0294335,0.07829694,-0.6988135,-0.6892261
49,1747486622720,0.5940353,1.4809394,0.79318607,0.6711166,-0.8990832,-0.902279
50,1747486622730,0.57451075,1.4587301,0.53082454,0.908138,-0.8159926,-0.99229383
51,1747486622740,0.6572462,1.4992436,0.31898284,0.90281165,-0.4362258,-1.0791129
52,1747486622750,0.7992875,1.5319474,0.14301755,0.540621715,0.4372910399999999,-1.699363
53,1747486622760,1.1419438,1.568556,0.10982577,0.38242993,0.6716492,-2.069276
54,1747486622770,1.2844733,1.5629426,0.19134088,0.41225734,0.62317973,-2.5571673
55,1747486622780,1.4274908,1.539025,0.26626647,0.5587312,0.47990164,-3.0983217
56,1747486622790,1.52108675,1.3357253,0.23490511,1.026116,0.071106405,-3.94653865
57,1747486622800,1.5495194,1.27886,0.19500175,1.2458268,-0.17417073,-4.261058
58,1747486622810,1.59820885,1.25616265,0.15375607,1.32066165,-0.273772955,-4.324441
59,1747486622820,1.72902355,1.2101578,0.04868942,1.3954965,-0.37337518,-4.387824
60,1747486622830,2.442525,1.2971642,-0.17913802,1.0572749,-0.49161956,-4.4682517
61,1747486622840,3.0652370500000004,1.27239245,-0.190486685,0.535561695,-0.42823632,-5.007009249999999
62,1747486622850,3.3274767,1.2381024,-0.15912533,0.34940675,-0.42983422,-5.2778525
63,1747486622860,3.6984434,1.1392592,-0.0656514,0.080960095,-0.37550572,-6.04218
64,1747486622870,3.54676195,0.914482525,0.23222047,-0.0258326639999999,-0.539023825,-6.83234
65,1747486622880,3.4604878,0.9061846,0.32581642,-0.015446335,-0.624245,-6.921556
66,1747486622890,3.7269983,0.59867245,0.58158845,0.39148468,-0.6215818,-7.235276
67,1747486622900,3.7953343,0.6445552,0.6772589,0.8005462,-0.6194513,-7.1798825
68,1747486622910,3.913214,0.5989165,0.63064396,1.1515509,-0.4745753,-7.091998
69,1747486622920,3.9898477,0.5256993,0.4419877,1.478587,-0.314253,-7.025952
70,1747486622930,3.649632,0.4566311,-0.22965786,1.5425029,-0.3568636,-6.967895
71,1747486622940,3.394104,0.3077562,-0.32410803,0.6953513649999999,-0.47058057,-6.6863987
72,1747486622950,3.2776887,0.16278619,-0.44394013,0.47297743,-0.44315,-6.6525764
73,1747486622960,3.0294826,0.03734076,-0.40440285,0.023435818,-0.34088463,-6.638728
74,1747486622970,2.6973207,-0.049787678,-0.25479576,-0.30040458,-0.21891184,-6.54605
75,1747486622980,2.523064,-0.1432616,-0.12568948,-0.46871635,-0.11771172,-6.4240775
76,1747486622990,1.80956245,-0.2710255649999999,0.24125059,-0.28975195,-0.15978967,-6.2792015
77,1747486623000,1.6815544,-0.30751213,0.30067852,-0.05219796,-0.30253512,-6.08266
78,1747486623010,1.466296,-0.413677,0.3648656,0.25992453,-0.3637878,-5.7992997
79,1747486623020,1.2771516,-0.5222825,0.36730617,0.59761333,-0.37337518,-5.4706655
80,1747486623030,0.96451426,-0.70874226,0.25211114,1.1030813,-0.56245965,-4.779309
81,1747486623040,0.85444444,-0.7690244,0.16205402,1.196292,-0.6759103,-4.4948835
82,1747486623050,0.7285109,-0.83150303,0.064919226,1.1451592,-0.66632295,-4.2669168
83,1747486623060,0.5847612,-0.9454777,-0.0043930304,0.912399,-0.49428272,-4.0053945
84,1747486623070,0.41343296,-1.0555476,-0.02757847,0.65673554,-0.30360037,-3.7992656
85,1747486623080,0.2111095,-1.1836777,-0.02391761,0.15659387,-0.08948222,-3.3795514
86,1747486623090,0.147410575,-1.27251445,0.0071996887,-0.055926383,-0.066046394,-3.1696944
87,1747486623100,0.1432616,-1.3015573,0.017816179,-0.23915187,-0.08735169,-2.964631
88,1747486623110,0.18743597,-1.3615954,0.03807293,-0.37710363,-0.14061491,-2.7968519
89,1747486623120,0.24552159,-1.4531169,0.04881145,-0.47510794,-0.19228023,-2.7148266
90,1747486623130,-0.023673555,-1.81602995,0.0575975105,-0.539556445,-0.301736155,-2.54331885
91,1747486623140,-0.14472595,-1.8811932,0.070532545,-0.54648066,-0.36005938,-2.3899207
92,1747486623150,-0.50788313,-1.9600239,0.10665302,-0.4910869,-0.43249738,-1.9419771
93,1747486623160,-0.8402891,-1.9575832,0.10836142,-0.4213121,-0.4841627,-1.2740563
94,1747486623170,-1.0867869,-1.9270761,0.08712844,-0.410925775,-0.54861118,0.48256475
95,1747486623180,-0.97683915,-1.80211865,-0.0595499715,-0.476173235,-0.56192698,1.7640779000000002
96,1747486623190,-0.8551766,-1.7559919,-0.08542004,-0.5134575,-0.5571333,2.1337247
97,1747486623200,-0.6718896,-1.6571487,-0.12568948,-0.58429754,-0.5523396,2.7462518
98,1747486623210,-0.55144736,-1.6122422,-0.13825843,-0.61385864,-0.58616175,2.9854036500000003
99,1747486623220,-0.15619664,-1.4616588,-0.13789235,-0.64555025,-0.7206514,3.540939
100,1747486623230,0.13154685,-1.1570754,-0.1552204,-0.572047,-0.8633968,3.6884782
101,1747486623240,0.328989165,-0.91777723,-0.189754515,-0.41518682,-0.956873805,3.64107395
102,1747486623250,0.24820623,-0.84931916,-0.21477039,-0.4101268,-0.92784536,3.7097836
103,1747486623260,0.041733786,-0.77048874,-0.24747404,-0.4245079,-0.78776306,4.111388
104,1747486623270,-0.063210822,-0.707399935,-0.253453445,-0.423975265,-0.689492405,4.4368263500000005
105,1747486623280,0.091033354,-0.37194324,-0.23771177,-0.36591834,-0.40373522,6.507168
106,1747486623290,0.7394935,-0.23697957,-0.23551524,-0.283893,-0.49481535,7.1505876
107,1747486623300,1.6129744,-0.046614934,-0.3031191,-0.16990969,-0.60507023,7.127152
108,1747486623310,1.80529145,0.096036528,-0.3846342149999999,-0.16298546,-0.30626354,6.2413845
109,1747486623320,1.9976085,0.23868799,-0.46614933,-0.43675843,-0.12942964,6.1641526
110,1747486623330,1.6974181499999998,0.07126471395,-0.37023483,-0.501206935,0.0103863275,6.7788103
111,1747486623340,1.66410425,-0.04527262105,-0.29128231,-0.40613207,-0.1573928225,7.537012349999999
112,1747486623350,2.2322695,-0.0799287525,-0.1807243774999999,-0.1725728425,-0.54754595,8.7596697
113,1747486623360,3.11209595,0.00488114,-0.0802948305,0.0407463655,-0.64981135,9.7005645
114,1747486623370,3.4629283,0.077122085,-0.054424766,0.092145376,-0.5086638,9.856892
115,1747486623380,4.19778465,0.27297804,-0.0107385192,-0.0306263539999999,0.6298376,9.578059499999998
116,1747486623390,4.4189005,0.32288775,-0.0043930304,-0.10972224,0.99229383,9.373795
117,1747486623400,4.63135245,0.449797515,0.157905035,0.10785804,1.28657315,7.8677773
118,1747486623410,4.5031004,0.4893348,0.15424417,0.3930826,1.1190603,6.9870696
119,1747486623420,4.0223074,0.5618198,0.107629254,0.9166601,0.61572284,6.331932
120,1747486623430,3.239982,0.75950615,-0.261141265,1.37365855,0.037816885,6.1553645
121,1747486623440,3.1095333,0.8297946,-0.39756927,1.4221281,-0.082558,6.1838603
122,1747486623450,3.2150882000000003,1.29753035,-0.76975655,1.2138689,-0.05912218,6.143913
123,1747486623460,3.176161,1.3925906,-0.7909895,0.07456851,0.36005938,5.1734567
124,1747486623470,2.8657203,1.5209647,-0.7480355,-0.5635249,0.62531024,4.6456184
125,1747486623480,2.5328262,1.5590377,-0.64260274,-1.1744541,0.87351686,4.1705103
126,1747486623490,2.07473065,1.62542125,-0.2940889949999999,-1.6990968,1.0599382,3.6586509
127,1747486623500,1.8750918,1.6683753,-0.07541369,-2.229066,1.1201255,2.1544974
128,1747486623510,1.3901501,1.6466542,0.26187342,-2.0469058,1.0812434,1.4604776
129,1747486623520,0.8775078000000001,1.53023895,0.64992447,-1.24955522,0.8436894699999999,0.82850942
130,1747486623530,0.754625,1.5085179,0.77146494,-0.88843054,0.72917354,0.6625945
131,1747486623540,0.546078075,1.4261485500000002,0.5565725499999999,1.38244695,-0.09001484335,0.10492855
132,1747486623550,0.5379021749999999,1.3935669000000002,0.175843244,1.7310547500000002,-0.1912149699999999,-0.052996905
133,1747486623560,0.5349735,1.3781912,-0.029042812,1.7997643,-0.20879184,-0.13209279
134,1747486623570,0.50593066,1.3723339,-0.37755656,1.5893745,-0.16564862,-0.31265512
135,1747486623580,0.5779276,1.3901501,-0.5632841,1.2016183,-0.16937704,-0.5651228
136,1747486623590,0.6113634,1.4963149,-0.40049794,0.59601545,-0.3291667,-1.2037488
137,1747486623600,0.6399181,1.4748379,-0.23380683,0.49641323,-0.4293016,-1.4567492
138,1747486623610,0.67762495,1.4671501500000002,-0.174012812,0.50546798,-0.4641889999999999,-1.5646072
139,1747486623620,0.95060297,1.4018648,-0.0685800875,0.56459016,-0.53476274,-1.8658108
140,1747486623630,1.0467615,1.372822,-0.06369894,0.6045376,-0.4990764,-2.0996363
141,1747486623640,1.44518495,1.32535285,-0.051740135,0.49295112,-0.6135923,-2.58912525
142,1747486623650,1.5204766,1.3220581,-0.04759116,0.4511395,-0.6812366,-2.6802053
143,1747486623660,1.7025435,1.2937474,-0.026114125,0.34621096,-0.78083885,-2.8607676
144,1747486623670,1.9529461,1.2881342,0.07858644,0.2695119,-0.83250415,-3.047189
145,1747486623680,2.45704645,1.3618394,0.32557237,0.34514569,-0.85993472,-3.58568015
146,1747486623690,2.85437155,1.3844147,0.478718285,0.494282725,-0.94648747,-4.08715325
147,1747486623700,2.9938502,1.372822,0.5181335,0.56725335,-1.0045444,-4.279167
148,1747486623710,3.261581,1.3098553,0.5513253,0.6897587,-1.0130665,-4.5444183
149,1747486623720,3.4531659,1.10191845,0.5570606499999999,0.78776306,-0.99442434,-4.923652
150,1747486623730,3.388979,1.1370627,0.5598673,0.70147663,-1.1728562,-4.9875684
151,1747486623740,3.9108956,0.865549025,0.601845175,0.62184815,-1.027447575,-5.2810486
152,1747486623750,3.99936625,0.805266875,0.6275932200000001,0.56405755,-0.9291769,-5.54869635
153,1747486623760,3.97374,0.797335,0.65065664,0.5219796,-0.91346425,-5.6586847
154,1747486623770,3.9085767,0.7063017,0.63284045,0.4032026,-0.8633968,-5.75083
155,1747486623780,3.837068,0.52423495,0.6967834,0.12037488,-0.5390238,-5.9601545
156,1747486623790,3.692098,0.4412555,0.7568215,0.07084008,-0.34141725,-6.083193
157,1747486623800,3.474887,0.34070393,0.78415596,0.07084008,-0.09267801,-6.176936
158,1747486623810,3.359204,0.27200181,0.799531545,0.11025487,0.027164245,-6.2011708500000005
159,1747486623820,3.0411973,0.053936653,0.89398164,0.3435478,0.30040458,-6.2472434
160,1747486623830,2.6028705,-0.26504618,0.9781815,1.0663297,0.43303,-6.217416
161,1747486623840,2.4142144,-0.43832684,0.916435,1.4817829,0.42077947,-6.162022
162,1747486623850,2.1940746,-0.614048,0.82125264,1.8722023,0.43089947,-6.1023674
163,1747486623860,1.9331775,-0.7804951,0.6972716,2.2136195,0.47990164,-6.050702
164,1747486623870,1.5997953,-0.8947139,0.47444725,2.4517062,0.57790595,-5.9447083
165,1747486623880,1.3225462,-0.9469421,0.234539,2.3845944,0.6556703,-5.791843
166,1747486623890,0.98696747,-0.97537478,-0.16107779,1.39150175,0.98110855,-5.2906358
167,1747486623900,0.97793734,-0.97452056,-0.19573392,1.1222562,1.0759171,-5.20648
168,1747486623910,0.99355704,-0.95060295,-0.18060236,0.6002765,1.3028184,-5.077583
169,1747486623920,1.0452971,-0.98403883,-0.13593988,0.13422333,1.5776566,-5.00408
170,1747486623930,1.03163,-1.1270564,-0.06321083,-0.23702134,1.9973708,-5.0482883
171,1747486623940,0.69214636,-1.5922295,0.07980672,-0.46179214,2.7158918,-5.1734567
172,1747486623950,0.3824377,-1.8765563,0.20915705,-0.15978967,2.5848641,-5.1564126
173,1747486623960,-0.031239327,-2.0159128,0.30922052,0.36272255,2.1949775,-4.9470882
174,1747486623970,-0.49055508,-2.033729,0.28286234,0.9262474,1.6698021,-4.420315
175,1747486623980,-0.8664033,-1.9497733,-0.07687803,1.3853765,0.74302197,-2.8032434
176,1747486623990,-0.562185875,-1.7508666,-0.3350906,1.0215886,0.5981460000000001,-1.83225485
177,1747486624000,-0.447601,-1.6788697,-0.3973252,0.5885586,0.70680297,-1.4183996
178,1747486624010,-0.0993313,-1.4997318,-0.4527262,0.3387541,0.78936094,-1.2532836
179,1747486624020,-0.09640261,-1.4531169,-0.36437747,-0.77444726,1.3869743,-0.9129316
180,1747486624030,-0.27480847,-1.4311516,-0.24869433,-1.0689929,1.6154735,-0.7126619
181,1747486624040,-0.4893348,-1.4497001,-0.136428,-1.2074772,1.7422401,-0.340352
182,1747486624050,-0.87226063,-1.3611072,0.03172744,-0.9736517,1.6772588,0.7930894
183,1747486624060,-0.9864794,-1.2722704,0.035632357,-0.6860303,1.468467,1.4860439
184,1747486624070,-0.987211585,-1.232245,0.0017084015,-0.544350135,1.3542174,1.8652781
185,1747486624080,-0.86103404,-1.1019185,-0.14936304,-0.18961707,1.0572749,2.994991
186,1747486624090,-0.499951265,-0.8943478,-0.38011916,-0.1808286425,0.91373058,4.02669975
187,1747486624100,-0.35437113,-0.8090498,-0.45858356,-0.2428803,0.8815063,4.3457465
188,1747486624110,0.53180075,-0.40684342,-0.58134437,-1.0120013,0.8490158,5.2347097
189,1747486624120,0.9624398,-0.0876165511,-0.57609713,-1.4045511,0.9353022,5.2826467
190,1747486624130,1.0640897,-0.0051252022,-0.54717636,-1.7427727,0.9938917,5.264004
191,1747486624140,1.1463369,0.0656514,-0.37316352,-1.8732675,1.0189254,5.3348446
192,1747486624150,1.0762925,0.055645052,0.14228538,-1.6692694,1.0562097,5.577192
193,1747486624160,1.08361425,0.070532546,0.2250207899999999,-0.954743265,0.9616675,6.139385300000001
194,1747486624170,1.154879,0.15888128,0.28554696,0.7451525,0.6247776,7.5458007
195,1747486624180,1.67179215,0.341436085,-0.25931083,1.5574167,0.38775626,8.836369
196,1747486624190,1.9712504,0.39805737,-0.48689422,1.5960325000000002,0.31425301,9.26247475
197,1747486624200,3.756041,0.5771954,-1.1529264,0.45007423,0.43888897,9.738647
198,1747486624210,4.15202375,0.70020025,-1.17721015,0.028229505,0.515854335,9.222527
199,1747486624220,4.497487,1.0421244,-0.9030118,-0.97258645,0.5432849,7.3593793
200,1747486624230,3.36323105,0.8914191,0.0168399499999999,-0.8162589,0.16511598675,6.107427700000001
201,1747486624240,2.9726174,0.8070973,0.32923323,-0.5763081,0.0127831735,5.8925104
202,1747486624250,1.8570317,0.7890371,0.7084982,1.3086774,-0.17630127,6.6706862
203,1747486624260,1.9624643,0.7890371,0.2604091,1.816276,-0.0058589545,7.3657713
204,1747486624270,2.178699,0.91057765,-0.14814276,1.6735305,0.350472,7.5878787
205,1747486624280,2.4064045,1.0711672,-0.38268176,1.2080098,0.71532506,7.525028
206,1747486624290,3.2757363,1.4777666,-0.42685616,0.25193503,0.9528791,5.888782
207,1747486624300,2.8880514,1.80883025,-0.24051842,0.00958738,0.8522116,4.3990097
208,1747486624310,2.5931082,1.8555672,-0.14960709,-0.056991648,0.5789712,3.1089742
209,1747486624320,1.8677702,1.820667,0.025626011,0.02609898,0.29933932,2.2929816
210,1747486624330,1.2974083,1.7271931,0.15570852,0.21571605,0.099069595,1.8530275
211,1747486624340,0.73131755,1.47996315,0.0771220874999999,0.54435015,-0.06924219,1.4056164
212,1747486624350,0.69898,1.453605,0.024405725,0.40959418,-0.05006743,1.2405005
213,1747486624360,0.7072779,1.4553133,-0.025870068,0.12357068,0.03195793,1.0247844
214,1747486624370,0.7558453,1.4994878,0.029530926,-0.20399815,0.13954964,0.73822826
215,1747486624380,0.86982006,1.5385369,0.28261828,-0.48682585,0.28495824,0.3920173
216,1747486624390,0.82723205,1.5364624,0.4949481,-0.51665325,0.612793355,-0.700944015
217,1747486624400,0.8049008,1.5356082,0.55620646,-0.4111921,0.64075655,-0.9155948
218,1747486624410,0.71826047,1.52609,0.6040417,-0.24820663,0.619451275,-1.09935295
219,1747486624420,0.5690195,1.488139,0.54424768,0.429834225,0.5313006499999999,-1.66181255
220,1747486624430,0.5459561,1.4660518,0.5086153,0.54435015,0.5320996,-1.7390442
221,1747486624440,0.7231416,1.4099188,0.41807005,0.8186557,0.6103965,-2.0026972
222,1747486624450,0.94035256,1.4038173,0.37267542,0.92464954,0.6215818,-2.2280006
223,1747486624460,1.2904527,1.3956414,0.3708449849999999,1.0482203,0.5336975,-2.501241
224,1747486624470,1.75562585,1.45165255,0.380241185,1.2239889,0.37390783,-2.7686224
225,1747486624480,2.0903504,1.5014402,0.379509,1.6556873,-0.1286306875,-3.593137
226,1747486624490,2.4447214500000003,1.5999173,0.34509696,1.6120114499999998,-0.24634241,-3.8924763
227,1747486624500,2.5723634,1.6320108,0.32044718,1.5291871,-0.257794,-4.0080576
228,1747486624510,2.8256948,1.6983943,0.31483385,1.1595404,-0.10173275,-4.260525
229,1747486624520,3.1478503,1.700835,0.3973252,0.7078682,0.25300032,-4.6424227
230,1747486624530,3.8402407,1.7486702,0.75218445,0.41172472,0.8026768,-5.0807786
231,1747486624540,4.049398,1.7257288,0.971836,0.6743124,1.3390374,-6.081595
232,1747486624550,4.076122,1.6450679,1.01942715,1.4351775,0.94089483,-6.6464511
233,1747486624560,3.98399035,1.2487189,0.88592775,2.05196565,0.326503555,-6.81502925
234,1747486624570,3.82035005,1.04822585,0.640406225,2.39258395,-0.079894832,-6.77960925
235,1747486624580,3.7675118,0.9994144,0.53985465,2.3803334,-0.087884314,-6.702644
236,1747486624590,3.6304735,0.95255542,0.28847567,1.995773,0.1278317335,-6.42194665
237,1747486624600,3.5548159,0.82003237,0.1797481699999999,1.63677885,0.397609955,-6.3788035
238,1747486624610,3.5022216,0.7250941,0.1444819,1.4562165,0.55766594,-6.3974457
239,1747486624620,3.317226,0.57524294,0.2523552,1.2133362,0.75420725,-6.446448
240,1747486624630,2.8047059,0.32581642,0.4385709,1.2159994,0.9086706,-6.3947825
241,1747486624640,2.6231272,0.21232979,0.42636803,1.3235911,0.92464954,-6.2568307
242,1747486624650,2.4167769,0.077366144,0.345218985,1.3582122,0.92464954,-6.205698
243,1747486624660,2.3502712,0.017084008,0.3014107,1.383246,0.9321064,-6.1460433
244,1747486624670,2.2148197,-0.11006982,0.2550398,1.3448963,0.91612744,-6.1582937
245,1747486624680,1.6664229,-0.45589895,0.39134579,1.3369069,0.89855057,-6.1657505
246,1747486624690,1.4627571,-0.5922049,0.41050427,1.6197346,0.9094695,-5.944974650000001
247,1747486624700,1.3713577,-0.6643238,0.40611124,1.6921726,0.9060074,-5.875999
248,1747486624710,1.2722704,-0.82003236,0.35754386,1.7949706,0.90174633,-5.7289925
249,1747486624720,0.9922147,-1.1325476499999998,0.30458345,1.8540928,0.9289106,-5.6128783
250,1747486624730,0.7552351749999999,-1.3234004,0.24308101,1.9118834,0.9914949,-5.0687948
251,1747486624740,0.625274675,-1.4444528,0.15973546,1.881257,0.9938917,-4.9380336
252,1747486624750,0.497998825,-1.59625645,0.044052329,1.41227435,1.18910145,-4.35613285
253,1747486624760,0.42807645,-1.6942455,-0.026602242,1.1100056,1.3166668,-4.065582
254,1747486624770,0.36901456,-1.8131012,-0.062478654,0.75101143,1.438107,-3.8083205
255,1747486624780,0.2796896,-1.9451362,-0.09030118,0.3930826,1.4732608,-3.5473306
256,1747486624790,0.15277983,-2.0442235,-0.09664667,0.050600063,1.4104102,-3.266101
257,1747486624800,-0.030751213,-2.0991364,-0.0656514,-0.23755397,1.2287825,-2.9273467
258,1747486624810,-0.38341394,-2.1162202,-0.021965152,-0.7004114,0.5928197,-1.8216022
259,1747486624820,-0.44833317,-2.0913267,-0.002928687,-0.90494215,0.38775626,-1.2612731
260,1747486624830,-0.4471129,-2.0437355,0.016839951,-1.0812434,0.26365295,-0.73982614
261,1747486624840,-0.40196228,-1.9714943,0.053204484,-1.2106731,0.15339808,-0.28176245
262,1747486624850,-0.47273886,-1.8445847,0.06369894,-1.2857742,0.082558,0.598146
263,1747486624860,-0.54436968,-1.80822015,0.052716363,-1.29269845,0.182959165,0.8807073999999999
264,1747486624870,-0.72216535,-1.7415925,0.03099527,-1.3097427,0.35420042,1.8546255
265,1747486624880,-0.80514485,-1.7174308,0.05296042,-1.2660668,0.34408042,2.6322684
266,1747486624890,-0.7307074,-1.5841756,0.06882414,-1.1531488,0.28229508,3.448261
267,1747486624900,-0.4724948,-1.4860646,0.050763905,-0.7888283,0.17417073,5.248558
268,1747486624910,-0.06296677,-1.338654,-0.01952458,-0.6103965,0.11984225,5.8690743
269,1747486624920,0.2633378,-1.0858107,-0.17254847,-0.5075985,0.041012682,6.3021045
270,1747486624930,0.51691324,-0.8095379,-0.33435842,-0.58429754,-0.040480047,6.6621637
271,1747486624940,1.0928884,-0.39366436,-0.51666915,-0.8474179,0.13795175,7.25019
272,1747486624950,1.2854495,-0.31751847,-0.4097721,-1.4966966,0.34780884,7.4616446
273,1747486624960,1.4438426,-0.32801294,-0.20769271,-1.5968314,0.5336975,7.71358
274,1747486624970,1.615415,-0.34265637,0.027822526,-1.3065468,0.6306366,8.200406
275,1747486624980,2.4947531,-0.1746229632499999,0.32117934,-0.33262884,0.258326638,8.905877
276,1747486624990,3.0843954,0.0014643435,0.3521746,0.05752428,0.027696876,9.129316
277,1747486625000,3.6718411,0.23966423,0.2294138,1.5259913,-1.037035,9.4457
278,1747486625010,3.89368935,0.353760975,0.09872115,1.6990968,-1.04928555,9.3490275
279,1747486625020,4.139699,0.5593792,-0.17108414,1.8759307,-0.63010395,8.972722
280,1747486625030,4.020599,0.5440036,-0.22526483,1.6692694,0.087884314,8.778312
281,1747486625040,3.7411535,0.41172457,-0.031483386,1.4125407,1.1616709,8.4246435
282,1747486625050,3.6020408,0.30433938,0.18206671,1.8844528,1.2783173,8.211059
283,1747486625060,3.6564658,0.35022214,0.19671014,2.515622,1.0524813,8.0342245
284,1747486625070,3.7077177,0.65797836,0.04075756,3.0929954,0.7025419,7.933557
285,1747486625080,3.8209605,1.0479817,-0.2716357,3.3055155,0.267914,7.832357
286,1747486625090,4.21840735,1.9671014,-0.882633025,2.0844562,0.08122642,6.526342700000001
287,1747486625100,4.1747211,2.1924883,-0.841265355,1.6799221,0.22264028,6.156696
288,1747486625110,4.118222,2.2816913,-0.78635246,0.8330368,0.72437984,5.345497
289,1747486625120,3.9288335,2.2924297,-0.5462001,0.1587244,1.2548815,4.410195
290,1747486625130,2.9355206,2.2140872,0.13203497,-0.17097494,1.4769892,3.1276164
291,1747486625140,1.9479429,2.0250650500000003,0.35815401,0.3363572449999999,0.95314537,1.2410331
292,1747486625150,1.6393324,1.9824771,0.41514137,0.5225122,0.77604514,1.0040118
293,1747486625160,1.1290088,1.9375705,0.38927132,0.8852348,0.50813115,0.7781757
294,1747486625170,0.8351639,1.9004737,0.23575929,1.2820458,0.87138635,0.356064635
295,1747486625180,0.6977597,1.8858303,-0.22111587,1.4050838,1.2239889,0.07882957
296,1747486625190,0.503978225,1.8102946,-0.635403035,1.58218405,1.4367754,-0.37896783
297,1747486625200,0.4510178,1.7772248,-0.76243484,1.5286545,1.4056164,-0.51452273
298,1747486625210,0.38853914,1.7245085,-0.9308343,1.2335763,0.8452873,-0.89588743
299,1747486625220,0.4373506,1.705228,-0.9964857,0.9305085,0.24980451,-1.2436962
300,1747486625230,0.50934744,1.7118175,-0.97281224,0.18162759,-0.079095883,-1.92839505
301,1747486625240,0.461268185,1.64518985,-0.8539563,-0.36458675,0.090281167,-2.3627566
302,1747486625250,0.45638704,1.5910091,-0.8049008,-0.51665324,0.2130529,-2.4772725
303,1747486625260,0.45297025,1.55976985,-0.73204972,-0.60453757,0.270310865,-2.57021675
304,1747486625270,0.47981656,1.4826478,-0.46370876,-0.70627034,0.31318775,-2.7569044
305,1747486625280,0.84761083,1.3369455,-0.1261776,-0.3920173,0.21997711,-2.9230857
306,1747486625290,1.2611658,1.25884725,0.1549763499999999,-0.016511599,0.18162759,-3.0897996
307,1747486625300,1.3908823,1.24518,0.22672918,0.3637878,0.12516858,-3.2458608
308,1747486625310,1.7501346,1.2700739,0.30336314,0.77604514,-0.024501082,-3.4844801
309,1747486625320,2.1581984,1.3511009,0.29945824,1.1659319,-0.22743396,-3.8748994
310,1747486625330,2.71196415,1.5980868,0.0141553205,1.38537645,-0.53929012,-4.4589307
311,1747486625340,3.08781235,1.5923515,0.0198906655,1.2804479,-0.71798825,-4.87864495
312,1747486625350,3.256456,1.5705084,0.04881145,1.2106731,-0.7366304,-5.0845075
313,1747486625360,3.3782406,1.4484798,0.19719826,1.1041466,-0.7435546,-5.4967647
314,1747486625370,3.3350422,1.3445114,0.38463423,1.0626013,-0.7163904,-5.7151437
315,1747486625380,3.6209555,1.11070455,0.57963595,1.1222562,-0.7254451,-5.713013
316,1747486625390,3.814859,1.0199152,0.68702114,1.2916331,-0.94116116,-5.8834558
317,1747486625400,4.0340223,0.9437694,0.54107493,1.2399678,-0.9619338,-6.125271
318,1747486625410,3.9639778,0.87226063,0.5525456,1.1062771,-0.892159,-6.408098
319,1747486625420,3.63022945,0.7953825999999999,0.37963104,0.85061365,-0.3219761829999999,-6.56708905
320,1747486625430,3.2318060500000003,0.64382302,0.26309371,0.63116917,0.198139197,-6.3670857000000005
321,1747486625440,2.9486997,0.43649637,0.111168073,0.413588915,0.51212588,-6.1814635
322,1747486625450,2.8762147,0.3219115,0.047347106,0.30466563,0.56672066,-6.1795993
323,1747486625460,2.5931082,0.20525214,0.067359805,0.13475595,0.47830373,-6.178534
324,1747486625470,2.3031683,0.10494461,0.084931925,0.0005326322,0.4000068,-6.150837
325,1747486625480,1.4736177,-0.309342565,0.24051841,-0.18109496,0.14753913,-5.902364
326,1747486625490,1.21418485,-0.48774843,0.30043447,-0.18216023,0.11717909,-5.819007
327,1747486625500,1.1163179,-0.5762192,0.32459614,-0.13369069,0.07669904,-5.620335
328,1747486625510,0.88104665,-0.9510911,0.31825066,0.12037488,-0.007989483,-5.119128
329,1747486625520,0.788549,-1.0750722,0.24308102,0.18429075,-0.0314253,-4.764395
330,1747486625530,0.68653303,-1.1478013,0.17767367,0.15233281,0.027696876,-4.486361
331,1747486625540,0.6261289,-1.19771095,0.134719603,0.029294773,0.26205505,-4.1119208
332,1747486625550,0.6282034,-1.2100358,0.119343996,-0.020240024,0.35153726,-4.005927
333,1747486625560,0.5950116,-1.2715383,0.04807928,-0.2790993,0.54914385,-3.797135
334,1747486625570,0.49982923,-1.334261,0.050763905,-0.3717773,0.5906891,-3.746535
335,1747486625580,0.27615078,-1.40113265,0.032825701,-0.4396879099999999,0.5816344,-3.55691805
336,1747486625590,0.139478717,-1.4800852,0.0145214059,-0.458330035,0.5483448799999999,-3.35158825
337,1747486625600,0.073949344,-1.52609,0.0026846298,-0.46339005,0.5273059,-3.2314796
338,1747486625610,-0.0307512179999999,-1.6078491499999998,0.0107385189,-0.3472762,0.14008227,-2.5347967
339,1747486625620,-0.22355644,-1.7423246,0.04344219,-0.11771172,-0.3289004,-1.9837888
340,1747486625630,-0.33948365,-1.820423,0.011958805,-0.0221042371999999,-0.545948025,-1.4942997999999998
341,1747486625640,-0.65553777,-1.84836765,-0.20024898,-0.1411475372,-0.59761335,-0.512924875
342,1747486625650,-0.7941623,-1.83287,-0.3277689,-0.2860235,-0.5752428,0.19600865
343,1747486625660,-0.7890371,-1.8050474,-0.41538543,-0.5906891,-0.48629323,0.9619338
344,1747486625670,-0.5646264400000001,-1.69802835,-0.36828238,-0.86499476,-0.44421527,1.6442357
345,1747486625680,-0.45126185,-1.6569047,-0.3287451,-0.99069595,-0.5209143,2.1528995
346,1747486625690,-0.2362473949999999,-1.39918025,-0.187557995,-0.60320599,-1.01040332,2.8261466
347,1747486625700,-0.21232979,-1.274467,-0.17254847,-0.34194988,-1.2314457,3.1009848
348,1747486625710,-0.27505252,-1.154879,-0.24649782,-0.17736652,-1.2868395,3.5483959
349,1747486625720,-0.29897013,-1.018939,-0.33313814,-0.14753912,-1.2756542,4.134824
350,1747486625730,-0.2630937,-0.8546885,-0.41538543,-0.25406557,-1.1638014,4.822452
351,1747486625740,0.31654225,-0.47725397,-0.36462152,-0.46498793,-0.99442434,5.545767
352,1747486625750,0.49958518,-0.40049794,-0.31605414,-0.9076053,-0.753142,6.6733494
353,1747486625760,0.9081371,-0.23893206,-0.20256752,-0.9358348,-0.63862604,7.0653663
354,1747486625770,1.4570218,-0.07468152,-0.10201593,-0.76592517,-0.6061355,7.1319456
355,1747486625780,1.92707605,0.16412849,-0.081027005,0.0378168899999999,-0.95101485,6.7148945
356,1747486625790,1.90437865,0.234661025,-0.063088799,0.8468852499999999,-1.19842255,6.88294
357,1747486625800,1.842144,0.23405088,-0.054912884,1.1733888,-1.2996227,7.069095
358,1747486625810,1.8567874,0.31239328,-0.13154685,1.7789917,-1.3038837,7.8360853
359,1747486625820,2.2399576,0.4139211,-0.27651685,2.1699438,-1.2618058,8.688829
360,1747486625830,2.83863,0.46663743,-0.44613665,2.3265376,-1.1350393,9.269399
361,1747486625840,4.1272519,0.7635331,-1.01295955,1.04342655,0.063649555,9.387909
362,1747486625850,4.481623,0.818568,-1.0804414,0.6109292,0.2593919,9.188438
363,1747486625860,4.8123207,0.93254274,-1.1114367,-0.29933932,0.6668556,8.329303
364,1747486625870,4.7005424,0.959145,-0.9376679,-1.1009508,0.9267801,7.2858763
365,1747486625880,3.1606635,0.649314325,0.487016215,-0.9270464,0.7552725,6.2626896
366,1747486625890,2.9064777,0.6160005,0.7560893,-0.5454154,0.644485,6.3116918
367,1747486625900,2.6841416,0.5976962,1.0177187,0.5901565,0.48469532,6.578541
368,1747486625910,2.6663256,0.6801876,0.8705522,1.7427727,0.41278997,6.8027787
369,1747486625920,2.7251432,0.8771418,0.45223808,2.5726137,0.48363006,6.8773475
370,1747486625930,2.9787189,1.25469835,-0.8273541,2.2037658,0.4857606,5.93192515
371,1747486625940,3.0656033,1.3662325,-0.9999026,1.8674086,0.43888897,5.5580173
372,1747486625950,3.095134,1.5656272,-1.0843463,1.128115,0.37816888,4.543353
373,1747486625960,2.928809,1.64482385,-1.006980185,0.80480726,0.358994125,4.05759235
374,1747486625970,2.3507595,1.7718556,-0.6157564,0.04261058,0.2790993,2.7728834
375,1747486625980,1.4478697,1.7993120500000002,-0.1365500325,-0.15180019,0.30466563,1.6724652
376,1747486625990,1.3118078,1.7789333,-0.110801995,-0.31372038,0.38029942,1.3305153
377,1747486626000,1.1277885,1.6979064,-0.09152147,-0.49960902,0.55340487,0.94808537
378,1747486626010,1.0308978,1.66983975,-0.0435642198,-0.63649553,0.7286409,0.6498113
379,1747486626020,0.7573096,1.6124862,0.10518867,-0.7073356,0.8815063,0.37124467
380,1747486626030,0.5222825,1.5480552,0.3236199,-0.6876282,0.9353022,0.12250541
381,1747486626040,0.4886026,1.5622104,0.4036707,-0.16990969,0.85327685,-0.34993938
382,1747486626050,0.528628,1.5209647,0.39317623,0.26312032,0.7765778,-0.63649553
383,1747486626060,0.554254,1.4804512,0.31776255,0.6860303,0.6013418,-0.98750013
384,1747486626070,0.5108118,1.4843562,0.21086545,1.0721886,0.40373522,-1.347027
385,1747486626080,0.34558508,1.3791674,-0.14716652,1.4519554,0.14913702,-1.8849854
386,1747486626090,0.30604777,1.3266952,-0.29994637,1.3651364,0.15126756,-2.0112193
387,1747486626100,0.34558508,1.2827649,-0.41416514,1.1408982,0.14487597,-2.1054952
388,1747486626110,0.42392743,1.2664131,-0.43149322,0.86233157,0.16138756,-2.1976407
389,1747486626120,0.56987363,1.261532,-0.33826336,0.6327671,0.16618125,-2.3180156
390,1747486626130,1.0523748,1.3064384,0.033923957,0.5368933,0.14487597,-2.4511735
391,1747486626140,1.53121515,1.27239245,0.257358375,0.90840425,0.16724652,-3.035471
392,1747486626150,1.6688635,1.261776,0.31825066,1.0647318,0.18216023,-3.216566
393,1747486626160,1.8753358,1.2012497,0.3482697,1.504686,0.023435818,-3.695935
394,1747486626170,2.029092,1.147069,0.29604146,1.8034927,-0.26738137,-3.9974048
395,1747486626180,2.2605802,1.2665351,0.11946602,2.1768679,-1.28284475,-4.26957985
396,1747486626190,2.5665059,1.39088225,0.03990336,2.1624868,-1.4524881,-4.2844934
397,1747486626200,2.75443,1.4575099,0.00707766,2.0287962,-1.6207999,-4.3952813
398,1747486626210,3.2579203,1.5107143,-0.05222825,1.7060211,-1.6282567,-4.5726476
399,1747486626220,4.032436000000001,1.56611535,0.3734075799999999,1.1515509000000002,-1.1765846,-5.7074206
400,1747486626230,4.036707,1.5717287,0.46370876,1.14808875,-1.0506171,-6.00223255
401,1747486626240,3.9456735,1.518036,0.57451075,1.1707256,-1.0104034,-6.0922475
402,1747486626250,3.97093345,1.3790454,0.539732605,1.13637085,-1.0277139,-6.1356571
403,1747486626260,3.8258414,1.2256554,0.4217309,0.8831042,-0.9827065,-6.1417823
404,1747486626270,3.7767859,1.1617125,0.34509695,0.5139901,-0.8250473,-6.08266
405,1747486626280,3.57238805,0.95548413,0.44149956,0.02689793,-0.373641515,-6.1513696
406,1747486626290,3.4805005,0.88641596,0.51569295,-0.09321064,-0.22104238,-6.1934476
407,1747486626300,3.0031245,0.5603554,0.86371857,0.029294772,0.16564862,-6.1795993
408,1747486626310,2.804462,0.35925224,0.8988628,0.29188246,0.25246766,-6.1300645
409,1747486626320,2.56675,0.13691612,0.8668914,0.6412892,0.23489082,-6.1034327
410,1747486626330,2.144531,-0.1303265615,0.7806171,0.93450325,0.2498045199999999,-6.0384517
411,1747486626340,1.730976,-0.338019275,0.747181265,1.19282985,0.315051975,-5.86508
412,1747486626350,1.4675162,-0.46370876,0.72777873,1.3677995,0.3584615,-5.72846
413,1747486626360,1.3514669499999998,-0.52813988,0.696661415,1.4303838,0.3848268,-5.6413745
414,1747486626370,1.0811737,-0.690682,0.5930591,1.5648735,0.46019423,-5.395032
415,1747486626380,0.8861718700000001,-0.8097818999999999,0.462244435,1.55635135,0.53423015,-5.18277785
416,1747486626390,0.71984685,-0.9218042,0.34753752,1.35847855,0.731037735,-4.92498395
417,1747486626400,0.6169767,-0.9962417,0.27480847,1.1840415,0.89375687,-4.7366986
418,1747486626410,0.5854933,-1.0584763,0.23868799,0.96566224,1.0306433,-4.577974
419,1747486626420,0.59427942,-1.13511025,0.24369115,0.673513475,1.10787505,-4.3691821
420,1747486626430,0.59989274,-1.1578076,0.23600335,0.5795039,1.1243867,-4.3036685
421,1747486626440,0.562795995,-1.31290595,0.21757703,0.316383545,1.071656,-4.1393515
422,1747486626450,0.50934744,-1.3842927,0.21086545,0.21891184,1.0215886,-4.061321
423,1747486626460,0.38585448,-1.415532,0.15766099,0.14274544,0.96086854,-3.9052596
424,1747486626470,0.326670615,-1.42749075,0.12080834,0.08575379,0.93610114,-3.8024615
425,1747486626480,0.16425052,-1.4982674,-0.016351834,-0.4098604899999999,0.89642005,-3.1558459
426,1747486626490,-0.17999223,-1.5957683,-0.16693516,-0.6348976,0.902279,-2.8815403
427,1747486626500,-0.23966423,-1.6124862,-0.18377511,-0.9155948,0.86233157,-2.4873924
428,1747486626510,-0.33631086,-1.6483628,-0.19475769,-1.1792477,0.8655274,-2.0170782
429,1747486626520,-0.41294485,-1.6661788,-0.19671014,-1.4072144,0.932639,-1.4865766
430,1747486626530,-0.4356422,-1.6681312,-0.18816814,-1.5888419,1.010936,-0.93157375
431,1747486626540,-0.5221605,-1.5683119,-0.187557995,-1.90975285,1.33957005,0.5158543
432,1747486626550,-0.5357057,-1.5409775,-0.17498904,-1.9467708,1.4040185,0.83942837
433,1747486626560,-0.5767073,-1.4775226,-0.12568948,-1.9009644,1.4498249,1.3704628
434,1747486626570,-0.6377216,-1.4079663,-0.08371163,-1.768339,1.4455639,1.9648803
435,1747486626580,-0.5004394000000001,-1.2496952,-0.037584815,-1.5536882,1.3571469,2.6359968
436,1747486626590,-0.3214234,-1.1558552,-0.02318544,-0.8543421,0.8117315,3.845072
437,1747486626600,-0.1181237,-0.9994144,-0.08566409,-0.42397526,0.46552056,4.2690473
438,1747486626610,-0.06272271,-0.89764255,-0.21184167,-0.053795855,0.22210763,4.7244477
439,1747486626620,-0.0524723069999999,-0.867379425,-0.273588165,0.0617853325,0.15100123,5.0235207
440,1747486626630,0.4256358449999999,-0.63955202,-0.481036855,0.4543352899999999,0.217580255,7.42942085
441,1747486626640,0.64089435,-0.59281504,-0.53131264,0.4628574,0.29561087,7.7892137
442,1747486626650,1.1631769,-0.56011134,-0.6411384,0.3653857,0.45486793,8.277104
443,1747486626660,1.7472057,-0.5298483,-0.7170402,0.23808661,0.60240704,8.509865
444,1747486626670,2.1513648,-0.47444725,-0.79660285,0.113983296,0.721184,8.608402
445,1747486626680,2.5482018,-0.44271985,-0.878362,-0.333161445,0.3504720125,9.127985
446,1747486626690,3.0724367,-0.3304535,-0.6837264,-0.58483016,0.051665325,9.488311
447,1747486626700,3.2835462,-0.28432667,-0.5786598,-0.75793564,-0.20399815,9.896307
448,1747486626710,3.6779428,-0.21062139,-0.28115395,-0.76272935,-0.22743396,10.194048
449,1747486626720,4.080515,-0.15790504,0.38182756,0.1635180899999999,0.545681705,10.462229
450,1747486626730,4.480158749999999,-0.114706905,0.6688389,0.8032094,0.9193232,10.499247
451,1747486626740,4.93886445,0.07260704,0.4799386,1.7140105,0.87618,10.039052
452,1747486626750,5.1171484,0.21672285,0.302631,2.4698157,0.6945524,9.081912
453,1747486626760,4.795969,0.61624455,-0.21062139,2.815494,0.4575311,8.121576
454,1747486626770,4.5157914,0.82906246,-0.5183776,2.74784965,0.397609965,6.83713365
455,1747486626780,3.76189855,1.26238615,-0.06467517,3.02055735,0.506533235,6.03951685
456,1747486626790,3.46012165,1.29435765,0.19329334,3.6479982,0.5432848699999999,5.589176350000001
457,1747486626800,3.2728076,1.3152245,0.28579104,4.0021987,0.5384912,5.3897057
458,1747486626810,2.9050133,1.3332847,0.15375607,4.6120625,0.4612595,5.0940948
459,1747486626820,2.1716213,1.47325155,-0.8354079999999999,4.45014215,0.6562029149999999,4.5268415
460,1747486626830,2.1603948,1.64287125,-1.1665937,3.82323405,0.64901238,4.12896525
461,1747486626840,2.246059,1.7374434,-1.3013133,3.4594464,0.6066681,3.8647795
462,1747486626850,2.3178117,2.0198178,-1.3957634,2.6493127,0.40906155,3.045591
463,1747486626860,2.145507,2.2650955,-1.3672087,1.8104169,0.2743056,2.218946
464,1747486626870,1.9422076,2.331235,-1.2554306,0.99442434,0.3552657,1.5217303
465,1747486626880,1.5011961,2.1806517,-0.82100856,-0.25033715,0.8692558,0.2066613
466,1747486626890,1.11326715,1.9456243,-0.54412565,-0.6226470799999999,1.097755,-0.419447865
467,1747486626900,0.971836,1.8743596,-0.44662476,-0.6988135,1.1483551,-0.5970807
468,1747486626910,0.8499294,1.8145656,-0.35522533,-0.7060040249999999,1.15767615,-0.727309285
469,1747486626920,0.44674679,1.55110585,0.0474691348,-0.52837116,1.1563445,-1.186172
470,1747486626930,0.44320798,1.5436621,0.0993313,-0.201867623,1.02265387,-1.5275892
471,1747486626940,0.60721445,1.50912795,0.295675345,-0.061252706,0.90654004,-1.6761936
472,1747486626950,0.67481834,1.5182801,0.38683072,0.4213121,0.46179214,-2.0777984
473,1747486626960,0.66237134,1.4616588,0.47664383,1.9185413,-0.5768407,-2.9342709
474,1747486626970,0.6411384,1.4223657,0.25381953,2.2434468,-0.78083885,-3.1515849
475,1747486626980,0.65382934,1.3401184,-0.07858644,2.1576931,-0.73609775,-3.3268209
476,1747486626990,0.7185045,1.3201057,-0.28383857,1.7390442,-0.59601545,-3.4466631
477,1747486627000,0.92937,1.3286476,-0.38683072,1.135572,-0.350472,-3.5899413
478,1747486627010,1.121077,1.3043639,-0.129838445,0.65433874,-0.177366529,-3.7654436
479,1747486627020,1.4248062,1.2544543,0.5142286,0.17949706,0.012250541,-4.0266995
480,1747486627030,1.7620934,1.2504273499999998,0.932786825,0.8380968,-0.1366201675,-4.263188250000001
481,1747486627040,1.9104803,1.2505494,1.0518868,1.0929613,-0.19813919,-4.3771715
482,1747486627050,2.217016,1.2415192,1.2100358,2.1065605,-0.6854977,-4.999286
483,1747486627060,2.4366676,1.2582372,1.12278535,2.4405209,-0.851146285,-5.2656023
484,1747486627070,2.61519555,1.3008252,1.08581065,2.46235875,-0.8791094749999999,-5.34230135
485,1747486627080,2.7122083,1.3401184,1.0899596,2.4383903,-0.89535475,-5.3518887
486,1747486627090,3.1280818,1.5155954,1.2852055,2.3856597,-1.0018812,-5.324724
487,1747486627100,4.294431,1.889003,1.6220044,2.6407907,-0.912399,-5.5335164
488,1747486627110,4.702251,1.9422076,1.615903,2.8064392,-0.7259777,-5.836584
489,1747486627120,4.9100655,1.7114515,1.5281644,2.88020885,-0.286289815,-6.3329975
490,1747486627130,4.87724,1.602724,1.4911898,2.893791,-0.1257012,-6.488526
491,1747486627140,4.2749068,1.17025445,1.2010057,2.7901939,0.06364955,-6.74365665
492,1747486627150,3.8695276,1.0108851,1.0152781,2.6945865,0.083090626,-6.761766
493,1747486627160,3.636209,0.6643238,0.7316837,2.3718114,0.26205507,-6.7564397
494,1747486627170,3.4204624,0.37658033,0.6123396,2.0373182,0.5422196,-6.9263496
495,1747486627180,2.64387215,0.07004443,0.58390695,1.52359445,0.84555368,-6.8523135
496,1747486627190,2.2528925,-0.08712844,0.5632841,1.20294985,1.0277139,-6.54791435
497,1747486627200,2.072534,-0.21379416,0.5298483,1.1158645,1.1025487,-6.4352627
498,1747486627210,1.9077955,-0.3048275,0.49299565,0.9491506,1.3182647,-6.257896
499,1747486627220,1.6165132,-0.47554554,0.467003525,0.737695625,1.80855275,-5.9654810000000005
500,1747486627230,1.33828795,-0.6561478949999999,0.48713824,0.65247449,2.30949335,-5.5689363
501,1747486627240,1.10106435,-0.84346184,0.5203300399999999,0.65913239,2.7558391,-5.160140999999999
502,1747486627250,1.039928,-0.91375035,0.53302103,0.69508505,2.8836708,-5.0317764
503,1747486627260,0.808683695,-1.15866175,0.607214465,0.87032104,3.0487869,-4.8075385
504,1747486627270,0.609410945,-1.27885995,0.61221762,1.4729944,2.7848677,-4.34761075
505,1747486627280,0.434665935,-1.3951533,0.47286092,1.88525175,2.17500375,-3.92257015
506,1747486627290,0.35315083,-1.47471595,0.27541861,2.0679446500000003,1.6120114,-3.516438
507,1747486627300,0.34582913,-1.4885051,0.19744232,2.0298615,1.4956313,-3.3880737
508,1747486627310,0.36547573,-1.49558285,0.024283697,1.7752632,1.4674017,-3.1494544
509,1747486627320,0.36803834,-1.5225512,-0.068091971,0.98510328,1.7499632,-2.7433222
510,1747486627330,0.36266908,-1.5480552,-0.111046046,0.56459016,1.9254655,-2.5640914
511,1747486627340,0.266632555,-1.6351836,-0.1206863099999999,0.000532635,2.1166805,-2.35396815
512,1747486627350,0.22062775,-1.6695957,-0.11495096,-0.18908444,2.171009,-2.2727418
513,1747486627360,-0.066383567,-1.7240204,-0.0678479115,-0.4801679399999999,2.20776065,-1.8945728
514,1747486627370,-0.16425052,-1.7269491,-0.058573738,-0.5640575,2.191249,-1.7251958
515,1747486627380,-0.44027929,-1.6918049000000002,-0.0973788375,-1.04023072,1.90336125,-0.48549429
516,1747486627390,-0.4262459899999999,-1.66654495,-0.13606191,-1.27645315,1.7872474,0.01225054
517,1747486627400,-0.41001618,-1.6486067,-0.1483868,-1.3970944,1.736381,0.24714136
518,1747486627410,-0.3973252,-1.6005274,-0.16058967,-1.6341157,1.7006947,0.7030745
519,1747486627420,-0.376336275,-1.5406114,-0.106164908,-1.8375812,1.6980315,1.1835088
520,1747486627430,-0.33692103,-1.4838681,-0.0209889245,-1.8956381,1.6948358,2.3062975
521,1747486627440,-0.263337765,-1.43188395,0.0428320485,-1.4562165,1.51800185,3.1158986
522,1747486627450,-0.22111587,-1.4016209,0.06589546,-1.2516857,1.4455639,3.3870084
523,1747486627460,-0.13057062,-1.3586667,0.010738519,-0.7888283,1.2900352,3.953729
524,1747486627470,0.0156196635,-1.3225462,-0.10958171,-0.4133226,1.1068097,4.508199
525,1747486627480,0.23112221,-1.1292529,-0.49177536,-0.14647387,0.74248934,5.6198025
526,1747486627490,0.65346332,-1.0051498,-0.7383951799999999,-0.4799016299999999,0.519316425,6.529538349999999
527,1747486627500,0.873725,-0.9606094,-0.80441266,-0.6498113,0.44528055,6.8033113
528,1747486627510,1.4565337,-0.8812907,-0.80246025,-1.1515509,0.27803403,7.1394024
529,1747486627520,2.31451695,-0.732049715,-0.56059949,-1.54942715,0.16644757,7.1644361
530,1747486627530,2.5711432,-0.65334123,-0.41050428,-1.5033544499999998,0.0918790585,7.39187005
531,1747486627540,2.7140387500000003,-0.5749988500000001,-0.19658812,-1.1938951,-0.0751011465,7.952731699999999
532,1747486627550,3.00495495,-0.46419687,-0.071020659,-1.009338,-0.19014971,8.266452
533,1747486627560,3.1656666,-0.38341394,-0.017084008,-0.48948902,-0.42024684,8.9370365
534,1747486627570,3.71467325,-0.2156245849999999,-0.090057127,0.259391887,-0.124635935,10.100305
535,1747486627580,4.36618405,-0.202689545,-0.16522676,0.4745753,0.22583607,10.67395
536,1747486627590,5.2462545,-0.076756,-0.0833455515,0.5701828,0.5784385999999999,10.8438595
537,1747486627600,5.739006,0.03929322,-0.027334413,0.6380934,0.6269081,10.628143
538,1747486627610,5.980867,0.44052333,0.17230442,0.95447695,0.716923,9.771138
539,1747486627620,5.2957983,0.7336361,0.50324607,2.0154803,0.37603834,8.563661
540,1747486627630,4.83379765,0.96451425,0.7220434,3.43947255,-0.0657800804999999,7.8757663
541,1747486627640,4.59059485,1.13596445,0.47847424,4.21418625,-0.0394147849999999,7.3985278
542,1747486627650,4.259043,1.51230075,-0.18865621,4.2930158,0.5424859200000001,6.4320665
543,1747486627660,3.918827,2.01005545,-0.9207059,3.6527918,1.3185311,5.3095442
544,1747486627670,3.63645295,2.31866575,-1.28935445,3.228284,1.5973641,4.8975534
545,1747486627680,3.4824529,2.4317863,-1.4099188,2.1965754,1.9201392,3.9617186
546,1747486627690,2.7833509000000003,2.6145852,-1.4403038,0.77551249,1.90229605,2.597381
547,1747486627700,2.1002347,2.6427739,-1.17476955,0.34674358,1.8184065,2.1667478
548,1747486627710,1.45995045,2.60457895,-0.842973735,-0.8239820200000001,1.04928552,0.434361575
549,1747486627720,1.103504825,2.4954853,-0.6684727850000001,-1.1070761,0.83756417,-0.036218995
550,1747486627730,0.93937635,2.4325185,-0.5850052,-1.23837,0.7637946,-0.24607609
551,1747486627740,0.431371175,2.07741525,-0.2245326615,-1.6516924999999998,0.85407576,-0.916660075
552,1747486627750,0.1683995,1.8792408,-0.030019043,-1.8152106,0.97471696,-1.216532
553,1747486627760,-0.03465613,1.722556,0.19719826,-1.7188042,1.0215886,-1.3651364
554,1747486627770,-0.15790504,1.5893008000000002,0.504100275,-1.20827615,0.87112,-1.5262576
555,1747486627780,-0.133865405,1.52792035,0.605262,-0.73689668,0.704672435,-1.6407735
556,1747486627790,0.088470755,1.46763825,0.6277152699999999,0.012250545,0.3004045755,-1.94970025
557,1747486627800,0.26870704,1.4484798,0.62503064,0.6969492749999999,-0.1872202345,-2.35982715
558,1747486627810,0.38316986,1.4165082,0.61746484,0.99016335,-0.468450055,-2.6751454
559,1747486627820,0.47078642,1.3452435,0.55962324,1.06659605,-0.48522796,-2.8964541
560,1747486627830,0.691414185,1.20954775,0.495802295,0.98750013,-0.1968076045,-3.03493845
561,1747486627840,0.988309835,1.16598355,0.566700905,0.95421063,0.3235740755,-3.30418395
562,1747486627850,1.3281595,1.1673258,0.633450575,0.9672601,0.6396913,-3.5052526
563,1747486627860,1.5735591,1.176844,0.6249085750000001,1.25248475,0.6740460850000001,-3.97103965
564,1747486627870,1.6988826,1.1741594,0.60184515,1.3576796,0.62584287,-4.1417484
565,1747486627880,2.03494925,1.27007395,0.542783275,1.7251958,-0.11771173,-4.94229435
566,1747486627890,2.2453266,1.35305335,0.65553775,1.84557065,-0.543817515,-5.2245896
567,1747486627900,2.3785819,1.36281565,0.796114725,1.97020655,-0.6612629,-5.37425925
568,1747486627910,2.4710796,1.3303561,0.84248555,2.014415,-0.6087986,-5.403554
569,1747486627920,2.4710796,1.3303561,0.84248555,2.014415,-0.6087986,-5.403554
570,1747486627930,3.3188125,1.3243767,0.9324207,1.7923075,0.008255798,-5.39876035
571,1747486627940,3.5627477,1.3281596,0.94669807,1.77260005,0.24687503,-5.5708005
572,1747486627950,3.7538445,1.35500585,0.940108535,1.7901769,0.37337518,-5.704491
573,1747486627960,4.04805565,1.40845435,0.898374735,1.7901769,0.37337518,-5.704491
574,1747486627970,4.1655693,1.2410312,0.70239675,1.8114822,0.39254996,-6.0134177
575,1747486627980,3.780691,0.907526875,0.756455425,1.5182682,0.2167813165,-6.479471
576,1747486627990,3.4835513,0.79501652,0.711670925,1.50734925,0.62264707,-6.160957
577,1747486628000,3.4507256,0.72558224,0.5845171,1.4460965,0.8479505,-6.070942
578,1747486628010,3.3221072,0.760238325,0.6651780350000001,1.4655376,0.95714012,-5.89623855
579,1747486628020,3.1742085,0.55388794,0.638209705,1.5217303,0.91612744,-5.8728027
580,1747486628030,2.9216092500000004,0.302630985,0.51605906,2.07380355,0.5616607,-5.9516325000000005
581,1747486628040,2.5993317,0.143261595,0.339971745,2.294047,0.392017315,-5.970807
582,1747486628050,2.4003031,0.0741934,0.23112221,2.3734093,0.29134983,-5.968144
583,1747486628060,1.8231077,-0.06845806,-0.0641870579999999,2.0844563000000003,-0.02263687025,-5.733786200000001
584,1747486628070,1.4490899499999998,-0.253575485,-0.187191915,1.5233282,0.1850896975,-5.46800255
585,1747486628080,1.2498171,-0.39415246,-0.21379416,0.9835054,0.5406217,-5.197958
586,1747486628090,1.0311419,-0.5217944,-0.12910628,0.7584683,0.748614575,-4.9960904
587,1747486628100,0.7833017200000001,-0.76133657,0.084321776,0.6769755799999999,0.86872315,-4.77398275
588,1747486628110,0.63003377,-0.91069957,0.1777957,0.6988135,0.903610575,-4.51459075
589,1747486628120,0.4726168349999999,-1.10655555,0.207326625,0.70627034,0.88496845,-4.06504915
590,1747486628130,0.349734035,-1.2687316000000002,0.21550254,0.64075657,0.91825795,-3.593137
591,1747486628140,0.27053747,-1.3225462,0.207692715,0.527838535,1.02904545,-3.2967272000000003
592,1747486628150,0.2272173,-1.3408505,0.19451363,0.46232477,1.0892329,-3.1643682
593,1747486628160,0.174500935,-1.46385535,0.149973175,0.19467708,1.3161343,-2.6924559
594,1747486628170,0.15790504,-1.5373166,0.1552204,0.11345066,1.4082797,-2.4554346
595,1747486628180,0.14082103,-1.5712405500000002,0.161931975,0.069242187,1.40321965,-2.3204123
596,1747486628190,0.12373702,-1.6051645,0.16864355,0.025033714,1.3981596,-2.18539
597,1747486628200,0.0924976949999999,-1.75904265,0.156806785,0.21012342,1.0705908,-1.52013235
598,1747486628210,0.027456441,-1.815908,0.097134787,0.26205507,0.9864349,-1.4045511
599,1747486628220,-0.265778339,-1.84861165,-0.0519841979999999,0.21624869,0.6146576,-0.718787185
600,1747486628230,-0.6333285500000001,-1.83836125,-0.210133295,-0.03781689,0.470846885,0.0026631649999999
601,1747486628240,-0.7494998,-1.8272567,-0.25821257,-0.19014971,0.46711847,0.3270362
602,1747486628250,-0.8361401,-1.8323817,-0.2889638,-0.5635249,0.588026,1.0807108
603,1747486628260,-0.57634119,-1.75391745,-0.199394775,-1.0583402,0.857005235,2.2945797
604,1747486628270,-0.31092892,-1.66422645,-0.1173915399999999,-1.19416145,0.880441085,2.94146155
605,1747486628280,-0.1768194675,-1.6021138,-0.100307525,-1.1728562,0.8309063,3.0913975
606,1747486628290,-0.117147475,-1.5736811,-0.10055158,-1.0572749,0.66206187,3.347061
607,1747486628300,0.03636453,-1.52609,-0.15619664,-0.8974853,0.31851408,3.6171055
608,1747486628310,0.13032657,-1.4848443,-0.2135501,-0.73982614,0.013848438,3.8551922
609,1747486628320,-0.063943,-1.4147999,-0.31483385,-0.5968144,-0.59388493,5.5622785
610,1747486628330,0.0295309299999999,-1.2180897000000002,-0.4466247599999999,-0.793355715,-0.582965985,6.6935892500000005
611,1747486628340,0.497266645,-1.06616405,-0.5914727200000001,-1.231445715,-0.418648945,7.84780325
612,1747486628350,0.82003236,-0.9947773,-0.67091334,-1.5174692,-0.31265512,8.394284
613,1747486628360,2.7873778,-0.7239958049999999,-0.826499875,-3.1894018,-0.03808320335,8.9295795
614,1747486628370,4.04000165,-0.523014675,-0.5062967700000001,-4.11591555,-0.3182477683499999,8.49894625
615,1747486628380,4.2968718,-0.393176225,0.2130619799999999,-3.7510624,-1.072188675,8.03742025
616,1747486628390,4.3010206,-0.33997175,0.6160005,-3.3204293,-1.5142734,7.864315
617,1747486628400,4.3698454,0.08053889,1.6351836,0.84581995,-2.973153,8.400676
618,1747486628410,4.843194,0.495558225,0.869820075,3.5566517,-2.7470507,9.12026175
619,1747486628420,5.137405,0.5862255,0.51569295,3.9707732,-2.5134914,9.1804495
620,1747486628430,5.569386,0.6743302,-0.10372432,4.1193776,-1.6016251,8.835836
621,1747486628440,5.5049553,0.67481834,-0.53228885,3.1228228,0.09161274,7.991081
622,1747486628450,4.672476,0.6792113,-0.69239044,2.4783378,0.5566007,7.837683
623,1747486628460,4.3836343,0.750720085,-0.52960422,1.7305221,0.81679155,7.540208
624,1747486628470,4.2772255,0.8570070249999999,-0.3832919,1.44769435,0.89109375,7.122358
625,1747486628480,3.9556799,0.983062575,-0.305071545,1.3544837,0.9150622,6.864564
626,1747486628490,3.31527365,1.1204668,-0.328379015,1.04182868,1.3081448,6.0773337
627,1747486628500,2.9025729,1.1975889,-0.3521746,0.84688526,1.5313177,5.754026
628,1747486628510,2.8408263,1.23615,-0.29091623,0.7456851,1.5052186,5.3012886
629,1747486628520,2.37980235,1.37843525,-0.0312393285,1.027181275,0.9917612,4.4629254
630,1747486628530,2.1660082,1.4189488,0.023673553,1.1648667,0.7707188,4.2168493
631,1747486628540,1.2937474999999998,1.45775395,-0.340703905,1.1965583,0.48576058,3.968909
632,1747486628550,1.2073512,1.4811834,-0.41611758,0.94542223,0.15819177,3.5111117
633,1747486628560,1.1116807,1.5619664,-0.51788944,0.535828,0.25726137,3.2186966
634,1747486628570,1.0218678,1.6581249,-0.48616204,-0.081226415,0.445546865,2.5971148
635,1747486628580,0.81149037,1.88021705,-0.22392252,-0.22583607,0.47351006,2.4282703
636,1747486628590,0.797212985,2.0513011,-0.051862165,-0.042344255,0.2862898299999999,1.4873755000000002
637,1747486628600,0.83150303,2.1157322,-0.01586372,0.09267801,0.14274544,1.242631
638,1747486628610,0.8454143,2.2643633,-0.007565775,0.6079997,-0.34674359,0.4106594699999999
639,1747486628620,0.74291027,2.3441699,-0.21086545,0.7366304,-0.5086638,0.14114754
640,1747486628630,0.42612398,2.3593016,-0.74510676,0.46924898,-0.76485986,-0.67218184
641,1747486628640,0.3180066,2.3119543,-0.8639627,0.05273059,-0.7685883,-0.96299905
642,1747486628650,0.24747404,2.2316594,-0.7817154,-0.46339005,-0.6045376,-1.2447615
643,1747486628660,0.19548985,2.102065,-0.5691415,-0.7685883,-0.40906155,-1.4205302
644,1747486628670,0.13789235,2.0227466,-0.28213018,-0.87138635,-0.1949434,-1.5792545
645,1747486628680,0.08029483,1.9788162,0.18450728,-0.73822826,0.011185277,-1.6783241
646,1747486628690,0.54302735,1.8924199,0.213428065,-0.1272991,0.082025364,-1.8279938
647,1747486628700,0.7487676,1.8714309,0.18475133,0.1587244,-0.08841695,-2.0335898
648,1747486628710,1.2271198,1.7413484,0.14008886,0.38242993,-0.2892193,-2.4554346
649,1747486628720,1.3964956,1.6447018,0.093473926,0.52624065,-0.48682585,-2.9044435
650,1747486628730,2.11683035,1.43420245,0.0655293664999999,0.7645935850000001,-0.430633155,-3.39872625
651,1747486628740,2.5073219,1.3772151,0.0065895464999999,0.71931985,-0.44767738,-3.64293815
652,1747486628750,2.7156248,1.359887,-0.01415532,0.67271453,-0.5028048,-3.7896783
653,1747486628760,3.1537077,1.3913703,0.0019524579,0.5086638,-0.7621967,-4.261058
654,1747486628770,3.500025,1.4421343,0.08712844,0.24474451,-0.9305085,-5.24695985
655,1747486628780,4.15995575,1.2235809999999998,0.55047111,0.311057225,-0.7315703499999999,-5.76547735
656,1747486628790,4.2941875,1.1207108,0.61941725,0.43888897,-0.5954828,-5.8642807
657,1747486628800,4.535072,0.86884385,0.6660322,0.783502,-0.4628574,-6.0064936
658,1747486628810,4.745693,0.65090066,0.7238738,1.1792477,-0.5832323,-6.268016
659,1747486628820,4.75765205,0.23673552,0.80697532,1.62266405,-0.709998755,-6.6829365
660,1747486628830,4.5721686,0.12727585,0.8587154450000001,1.8152106,-0.65833343,-6.7697556500000005
661,1747486628840,4.5116425,0.16791138,0.89764255,1.8397117,-0.6098639,-6.7340693
662,1747486628850,4.4240258,-0.002196516,0.942671125,1.85089695,-0.29108351,-6.780408
663,1747486628860,4.322742,-0.042465962,0.98330665,1.8636801,-0.13582122,-6.762831
664,1747486628870,3.98765135,-0.283106405,0.64455518,2.2498385,0.6181197199999999,-6.23525915
665,1747486628880,3.79191735,-0.1720603574999999,0.32288774,2.2343922,0.66152924,-6.1082263
666,1747486628890,3.743594,-0.088104665,0.16351835,1.7411747,0.53103435,-5.8632154
667,1747486628900,3.6210773,0.06833603,-0.12032023,1.0807108,0.49375007,-5.877064
668,1747486628910,3.6005766,-0.094206095,-0.2277054,0.3206446,0.62104917,-6.1748056
669,1747486628920,2.76577865,-0.45211603,0.081637155,-0.663659735,0.9504822,-6.49039
670,1747486628930,2.00651665,-0.6365012999999999,0.38536638,-0.978179065,1.09509185,-6.3937173
671,1747486628940,1.7799095,-0.6875093,0.46663743,-0.930242165,1.11400025,-6.1481738
672,1747486628950,1.48435615,-0.8418755,0.523136705,-0.83037363,1.1827098,-5.9255335
673,1747486628960,1.4291992,-0.9266854,0.53912246,-0.77444726,1.2452941,-5.836584
674,1747486628970,0.9283938,-1.29789645,0.74413055,-0.0010652645,1.6676716,-5.7124805
675,1747486628980,0.71508775,-1.3761168499999998,0.687265185,0.5299691,1.4397049,-5.5958343
676,1747486628990,0.531068575,-1.3905162,0.49946314,1.04369285,0.8207862749999999,-5.21500205
677,1747486629000,0.45467865,-1.3828284,0.37926495,1.0394318,0.4218447349999999,-4.8858354
678,1747486629010,0.4915313,-1.342559,0.12666571,0.9550096,0.24501082,-4.7207193
679,1747486629020,0.620027455,-1.52181895,-0.0102504045,0.195742365,0.53502907,-4.66612465
680,1747486629030,0.46968818,-1.72341025,-0.0157416924999999,-0.266582435,0.9784454,-4.74042685
681,1747486629040,0.17425688175,-1.95209185,-0.0541807059999999,-0.43649212,1.1110707999999998,-4.4943507
682,1747486629050,-0.3325279782499999,-2.1601506500000003,-0.115439075,-0.488157435,0.9720538,-3.9760995
683,1747486629060,-0.7691463999999999,-2.2615565,-0.189876535,-0.477238475,0.633299735,-3.3904705
684,1747486629070,-0.919973775,-2.31634735,-0.27383224,-0.50733221,0.233825555,-2.71216335
685,1747486629080,-0.98001185,-2.3325771,-0.357543885,-0.6226470799999999,-0.10918961,-1.9851203
686,1747486629090,-0.99184865,-2.336848,-0.40000984,-0.70680296,-0.24714136,-1.6138756
687,1747486629100,-0.8760435,-2.22262935,-0.433811735,-0.99495703,-0.2647182,-0.8580705
688,1747486629110,-0.8500514,-2.183092,-0.3995217,-1.6112125,0.017044231,0.5368933
689,1747486629120,-0.69849183,-2.0541078,-0.256626185,-1.8077538,0.13741912,1.2144015
690,1747486629130,-0.60867876,-2.0049303,-0.20110317,-1.8631475,0.13102753,1.9339876
691,1747486629140,-0.3141017,-1.8494658,-0.10421244,-1.7028252,0.03568636,2.2860575
692,1747486629150,-0.1461903,-1.5688,-0.05588911,-0.9715212,-0.38615838,2.743056
693,1747486629160,-0.2421048,-1.4987555,-0.16058967,-0.61891866,-0.6460829,3.1627703
694,1747486629170,-0.334358425,-1.48569845,-0.36901456,-0.39361522,-0.91825795,3.758253
695,1747486629180,-0.33411437,-1.4943625,-0.41416514,-0.26205507,-1.2234563,4.4767737
696,1747486629190,-0.19671014,-1.458242,-0.46883395,-0.1965413,-1.442368,5.284777
697,1747486629200,0.4893348,-1.228096,-0.5630401,-0.34887412,-1.3534185,7.215569
698,1747486629210,1.1075318,-0.9825745,-0.6125837,-0.5683186,-1.2303804,7.8925443
699,1747486629220,1.9104803,-0.6440671,-0.65260905,-0.85594,-1.1632688,8.325574
700,1747486629230,2.86010695,-0.00610143,-0.595621715,-1.4109428,-0.67963874,8.713863
701,1747486629240,3.1266174,0.18255483,-0.54156303,-1.4109428,-0.67963874,8.713863
702,1747486629250,3.7584815,0.4588276,-0.032459613,-1.0349044,-0.2759035,8.598815
703,1747486629260,3.5844686,0.40342662,0.28627914,0.35686359,-0.719053515,8.7511475
704,1747486629270,3.3103926,0.27090356,0.43930307,0.912399,-0.9187906,8.905611
705,1747486629280,3.218627,0.06931226,0.35607952,2.0266657,-1.1771172,9.479789
706,1747486629290,4.64050435,0.279689595,-0.71728423,2.63839375,-0.7073356,10.526144
707,1747486629300,4.9812083,0.46785772,-0.91570276,2.346245,-0.5289038,10.494452
708,1747486629310,5.282131,0.88007045,-1.074584,1.3518206,-0.02130529,10.10137
709,1747486629320,5.549618,1.1329137,-1.0431006,0.18695392,0.55127436,9.375925
710,1747486629330,5.1337442,1.2429836,-0.06833603,-1.2596752,1.2602079000000002,6.5660238
711,1747486629340,4.2495246,1.2139407,0.5379022,-1.1744541,1.171791,6.0778666
712,1747486629350,3.3523703,1.142676,0.90691674,-0.55553544,0.72437984,5.5702677
713,1747486629360,2.8698692,1.0965492,0.9354714,0.17576863,0.26365295,5.2943645
714,1747486629370,2.32037435,1.25860325,0.513374425,0.8293084,-0.0348874115,4.83363745
715,1747486629380,2.1977355,1.3291358,0.340948,0.40346893,0.3374225034999999,4.31645165
716,1747486629390,1.73317255,1.5691660500000002,-0.14216335,-0.34807517,0.8964200499999999,3.72496355
717,1747486629400,1.602724,1.5836874,-0.15790504,-0.6508766,1.0982877,3.5175033
718,1747486629410,1.3620834,1.5451264,-0.019768637,-1.1020161,1.4024206,3.1574438
719,1747486629420,1.2813005,1.5417097,0.12080834,-1.2511531,1.504686,2.7659593
720,1747486629430,1.1524384,1.6425053,0.14204131,-0.83996105,1.0066749,1.7859159
721,1747486629440,1.0269929,1.6422611,-0.0014643435,-0.561927,0.42290998,1.1632688
722,1747486629450,0.8088057,1.6527556,-0.10079564,-0.4415521,0.03781689,0.71585774
723,1747486629460,0.53058046,1.6290822,-0.22819352,-0.5086638,-0.10333065,0.38242993
724,1747486629470,0.1309367149999999,1.48435625,-0.34436478,-1.1616709,0.21518342,-0.0053263223
725,1747486629480,0.10384636,1.46763825,-0.25760242,-1.587244,0.4796353,-0.21624868
726,1747486629490,0.10884953,1.4660518,-0.20159128,-1.6767262,0.5411543,-0.2828277
727,1747486629500,0.16498269,1.4828918,-0.1330112,-1.6660736,0.51931643,-0.43249738
728,1747486629510,0.26187342,1.5124228,-0.111290105,-1.5345135,0.30626354,-0.64821345
729,1747486629520,0.37365165,1.5412215,-0.117391534,-1.3747238,0.0053263223,-0.94808537
730,1747486629530,0.53717,1.551716,-0.20183535,-1.2080098,-0.3158509,-1.6080167
731,1747486629540,0.6518769,1.5336558,-0.13667206,-1.1978899,-0.31265512,-1.8796592
732,1747486629550,0.7494998,1.5595258,-0.021477038,-1.1334413,-0.23489082,-2.126268
733,1747486629560,0.81795788,1.55940375,-0.006589546,-1.0785803,-0.043675844,-2.305765
734,1747486629570,1.1002101,1.5077857,-0.043198135,-1.1089402,0.1965413,-2.5284052
735,1747486629580,1.8318937,1.35524985,-0.044296392,-0.8649946799999999,0.54221963,-3.3103093
736,1747486629590,2.1241523,1.30436395,-0.085786122,-0.5315669599999999,0.312122495,-3.576359
737,1747486629600,2.3048768,1.2664131,-0.11836776,-0.34301516,0.13262543,-3.704457
738,1747486629610,2.681213,1.2908187,-0.25308737,0.020772656,-0.5113269,-4.134824
739,1747486629620,2.9230738,1.4018649,-0.34704942,-0.2061286699999999,-1.03623595,-4.88663465
740,1747486629630,3.4290044,1.3630598,-0.41416514,-0.47404268,-1.091896,-5.283712
741,1747486629640,3.6159523,1.2283401,-0.24942651,-0.78563255,-0.7030745,-5.6965017
742,1747486629650,3.6419443,1.1349882,-0.0977449285,-0.8442221,-0.4647216,-5.8506987
743,1747486629660,3.5274813,0.686411025,0.8512717000000001,-0.33289513,0.2743056,-5.955361
744,1747486629670,3.5844686,0.64089435,0.9855032,-0.33289513,0.2743056,-5.955361
745,1747486629680,3.89417745,0.5264314800000001,1.1406016,1.7100158,-0.380299385,-5.57239815
746,1747486629690,4.127496000000001,0.5269195799999999,1.20832745,2.34251655,-0.8548746999999999,-5.55428885
747,1747486629700,4.2409825,0.53058046,1.2456682,2.8415929,-1.22718465,-5.63897755
748,1747486629710,4.3832679,0.4501636,1.1005762,3.0535805,-1.3667343,-5.6970344
749,1747486629720,4.4415975,0.4036707,0.9130182,2.7822044000000004,-0.96326545,-5.890379899999999
750,1747486629730,4.3356772,0.1558305549999999,0.200615054,2.12333835,-0.323307778,-5.95083365
751,1747486629740,4.2002254,0.08322352,-0.017572122,1.22798358,0.478037422,-5.9311262
752,1747486629750,3.7880125,0.016107777,-0.30165476,0.74089146,0.8974853,-5.8925104
753,1747486629760,3.385318,0.0053692595,-0.35363895,-0.15020229,1.5403724,-5.787582
754,1747486629770,3.035096,-0.041001618,-0.29555333,-0.9869675,1.8764633,-5.7572217
755,1747486629780,2.48133,-0.41196862,0.12471326,-1.3289174,1.8620822,-6.01182
756,1747486629790,1.7649,-0.557792885,0.42234108,-0.8269115499999999,1.5472966,-5.8757325
757,1747486629800,1.5356082,-0.5876899,0.49031103,-0.6061355,1.4189322,-5.762548
758,1747486629810,1.2942356,-0.6627374699999999,0.499829235,0.376571,0.96779275,-5.1830444
759,1747486629820,0.93327487,-0.75486904,0.47273886,0.9981528,0.70627035,-4.87358495
760,1747486629830,0.84883106,-0.8256457,0.41001618,1.180313,0.644485,-4.7963533
761,1747486629840,0.754625,-0.92082804,0.33631086,1.5302523,0.6450176,-4.6738477
762,1747486629850,0.4166057,-1.1529264,0.16083373,1.8524948,0.82877576,-4.377704
763,1747486629860,0.307024,-1.2295604,0.071020655,1.9158782,0.72437984,-4.1278996
764,1747486629870,0.35168648,-1.2983845,-0.082247294,1.8604844,0.4213121,-3.933489
765,1747486629880,0.47164065,-1.39466515,-0.393054215,1.3904364500000002,0.0468716375,-3.903129
766,1747486629890,0.422219055,-1.58027065,-0.5388784,0.6380934075,0.0492684825,-3.9702406
767,1747486629900,0.33948365,-1.7264609,-0.5952556,0.105993815,0.12836437,-3.9947417
768,1747486629910,0.057841565,-1.8172504,-0.56426036,-0.34194988,0.19441076,-3.9020636
769,1747486629920,-0.26284966,-1.888271,-0.5339973,-0.7803062,0.111852765,-3.5132422
770,1747486629930,-0.6275932,-1.9174357,-0.395738825,-1.0836402500000002,-0.119309615,-2.69698335
771,1747486629940,-0.6228341,-1.9060871,-0.253819535,-1.1483551,-0.2066613,-2.394182
772,1747486629950,-0.5503491,-1.8911997,-0.16254212,-1.1377025,-0.6540724,-1.2985574
773,1747486629960,-0.447601,-1.8250601,-0.127886,-1.0157297,-0.7526093,-0.8852348
774,1747486629970,-0.4240494649999999,-1.6935132,-0.213916175,-0.9004148000000001,-0.88443585,-0.326503555
775,1747486629980,-0.42734426,-1.6517794,-0.25845662,-1.00161495,-1.1070761,0.238352925
776,1747486629990,-0.29555333,-1.5329236,-0.3956168,-1.1132014,-1.2793826,0.6146576
777,1747486630000,-0.25992095,-1.4550693,-0.40342662,-1.2373047,-1.4040185,0.9187906
778,1747486630010,-0.250036645,-1.40040055,-0.32276571,-1.3198626,-1.5009576,1.2580773
779,1747486630020,-0.24991462,-1.3945432,-0.28725538,-1.2996227,-1.5574167,1.6559536
780,1747486630030,-0.27895743,-1.3879535,-0.24161668,-1.1622036,-1.5446335,2.1326594
781,1747486630040,-0.38731885,-1.3457316,-0.3145898,-0.6711166,-1.4913702,3.3545177
782,1747486630050,-0.43637437,-1.2954559,-0.4195344,-0.3834952,-1.6021577,4.186489
783,1747486630060,-0.3104408,-1.2376143,-0.52960426,-0.16245283,-1.8588865,5.148423
784,1747486630070,0.1342315,-1.1055794,-0.6450433,-0.03888215,-2.3073628,6.0064936
785,1747486630080,1.4360328,-0.6545615,-0.852492,-0.03355583,-2.974751,6.652044
786,1747486630090,2.08217435,-0.26577835,-0.92961407,-0.6146576,-3.48954005,6.858439
787,1747486630100,2.2414217,-0.14423785,-0.9508471,-0.8127968,-3.4120421,6.873619
788,1747486630110,2.3656468,0.0046370877,-0.9652464,-1.3145363,-3.0141659,7.094661
789,1747486630120,2.53941575,0.08847075,-0.6233222350000001,-2.1462415000000004,-2.31189015,8.26245715
790,1747486630130,2.8714557000000003,0.072851086,-0.119221965,-2.4093618,-2.1875205,9.324526
791,1747486630140,3.286353,-0.004759118,0.29042812,-2.14597525,-2.43466185,9.9050955
792,1747486630150,3.5058825,-0.053692598,0.4886026,-1.9307919,-2.5630262,10.13972
793,1747486630160,4.2151127,-0.12007617,0.71313524,-1.1494204,-2.5294704,10.30164
794,1747486630170,5.072486,0.044418417,0.58891016,-0.846086335,-2.34917435,10.178602
795,1747486630180,5.1989074,0.20525214,0.2806658,-0.099069595,-1.3800501,8.821987
796,1747486630190,4.5401968,0.39744723,-0.053692592,-0.386691,-1.1089402,8.271778
797,1747486630200,4.2570906,0.44857723,-0.10152781,-0.89801794,-0.8127968,8.107728
798,1747486630210,3.9117494,0.47713193,0.008542004,-1.16673092,-0.6095976,8.165518500000001
799,1747486630220,3.7941141,0.4886026249999999,0.409894115,-1.93585185,0.309193012,8.2187815
800,1747486630230,3.7731252,0.49031103,0.6218578,-2.0213394,0.60080916,8.062986
801,1747486630240,3.500513,0.5544981,0.869576,-1.6974989,0.5363607,7.7753654
802,1747486630250,3.4186317500000003,0.5954997,0.8934936,-1.4897723,0.4378237,7.6089177
803,1747486630260,3.3269882,0.77244115,0.83443177,-0.93796533,0.11824436,6.9029136
804,1747486630270,2.8693812,1.0921562,0.520086,-0.7621967,0.01438107,6.2094264
805,1747486630280,2.4693712,1.35244315,0.34460884,-0.8948221,0.15393071,4.808071
806,1747486630290,2.3329432,1.4492118,0.30116665,-0.9933591,0.3797668,4.065049
807,1747486630300,2.021038,1.6112659,0.23844394,-1.0604708,0.55127436,3.3694315
808,1747486630310,1.7406163,1.7059602,0.21208574,-1.0572749,0.60773337,2.7510455
809,1747486630320,1.4221216,1.7652661,0.12690976,-1.000816,0.4958806,2.0991037
810,1747486630330,0.97793734,1.6822866,-0.08932495,-1.222391,0.2695119,1.3070794
811,1747486630340,0.8175918,1.6295702,-0.14082102,-1.4764565,0.3158509,0.98856544
812,1747486630350,0.6936107,1.5585496,-0.16229807,-1.7704695,0.4676511,0.7025419
813,1747486630360,0.6404062500000001,1.5267001,-0.12935034,-1.88099075,0.54195328,0.56831858
814,1747486630370,0.50495446,1.4601945,-0.003172744,-2.0703416,0.68176925,0.17630127
815,1747486630380,0.46541715,1.4033291,0.18768002,-1.7917749,0.48682585,-0.40533313
816,1747486630390,0.39708114,1.4318839,0.35412705,-1.2112057,0.1965413,-0.7488809
817,1747486630400,0.3277689,1.4731296,0.3448529,-0.6593987,-0.053795855,-0.9353022
818,1747486630410,0.33435842,1.4907017,0.119343996,-0.27696875,-0.22903186,-1.1014835
819,1747486630420,0.5256993,1.5636748,-0.4373506,-0.3435478,-0.24980451,-1.4871092
820,1747486630430,0.85298007,1.56745765,-0.6826281000000001,-0.88816425,-0.0782969335,-1.97153825
821,1747486630440,0.97793734,1.5631866,-0.7167961,-1.0759171,-0.018109497,-2.160889
822,1747486630450,1.19038925,1.48069535,-0.72948715,-1.4966965,0.0005326325,-2.690858
823,1747486630460,1.4478696000000002,1.3795336,-0.7242398999999999,-1.6948357,-0.1571265015,-3.1273501
824,1747486630470,1.7756384500000002,1.29801845,-0.74596095,-1.8234664,-0.357928855,-3.50605165
825,1747486630480,2.0860793,1.2914289,-0.7958706499999999,-1.94064555,-0.509995355,-3.73694775
826,1747486630490,2.263875,1.3008251,-0.8190561,-2.011752,-0.58429754,-3.8658447
827,1747486630500,2.6709623,1.2842293,-0.8766537,-2.2301311,-0.65673554,-4.1966095
828,1747486630510,3.31368735,1.12058885,-0.7155758,-2.903911,-0.45966161,-5.178516999999999
829,1747486630520,3.6478016,0.9028898,-0.39061361,-3.2445293,-0.109988557,-5.9649485
830,1747486630530,3.6850203,0.6906820149999999,-0.093229865,-3.1039143,0.193079183,-6.3444488
831,1747486630540,3.6794071,0.58280873,0.05027579,-2.954511,0.32490566,-6.4917216
832,1747486630550,3.7967986,0.236857565,0.4208767249999999,-1.03756755,-0.097738017,-6.66828915
833,1747486630560,3.88648965,0.157416935,0.34058189,-0.405066795,-0.38882152,-6.58919335
834,1747486630570,3.9822822,0.1029921625,0.1807244,-0.0660463985,-0.58616175,-6.4544375
835,1747486630580,4.089179250000001,0.0863962675,0.039781332,-0.0508663785,-0.6330334,-6.3268721
836,1747486630590,4.199737000000001,0.07980672,0.073827322,-0.4378237,-0.27643613,-6.27573945
837,1747486630600,4.251965,0.07175283,0.16132185,-0.75420725,0.06178534,-6.2781363
838,1747486630610,3.9542154,0.0234294965,0.460169925,-0.89269162,0.8855011,-6.299974000000001
839,1747486630620,3.6607367,0.017450093,0.62612885,-0.60267337,1.3219932,-6.23605835
840,1747486630630,3.1908045,-0.0269683235,0.60733645,0.0817590499999999,1.4892397,-6.089051850000001
841,1747486630640,2.8793874,-0.07492557,0.5256993,0.690824,1.4423681,-5.950301
842,1747486630650,2.5601604,-0.10933765,0.40220633,0.8564726,1.3992249,-5.905826
843,1747486630660,2.255577,-0.16205402,0.2757847,1.1057445,1.2831111,-5.7795925
844,1747486630670,2.255577,-0.16205402,0.2757847,1.1057445,1.2831111,-5.7795925
845,1747486630680,2.02396675,-0.25125695,0.1555865,1.2681973,1.13716985,-5.63018925
846,1747486630690,1.7923565,-0.34045988,0.0353883,1.4306501,0.9912286,-5.480786
847,1747486630700,1.10911815,-0.6927565200000001,-0.168643555,1.47326075,0.3155846,-5.00780825
848,1747486630710,1.0091767,-0.7316837,-0.18426323,1.3496901,0.241282405,-4.8791775
849,1747486630720,0.630887975,-0.87201658,-0.262117485,1.1696604000000002,0.2439455549999999,-4.73589935
850,1747486630730,0.3120271675,-0.97378843,-0.253819535,1.0663297,0.25246766,-4.6509447
851,1747486630740,0.113974735,-1.036023,-0.22624107,0.62371236,0.42184472,-4.0645165
852,1747486630750,0.01415532,-1.0616491,-0.18987654,0.45806372,0.43995422,-3.7140446
853,1747486630760,0.032703671,-1.0864208,-0.13484163,0.28336034,0.37310888,-3.22402285
854,1747486630770,0.05588911,-1.1016744,-0.10860548,0.24021713,0.35100463,-3.077549
855,1747486630780,0.1435056579999999,-1.2849614,-0.092619727,0.2753708649999999,0.25353294,-2.7084349
856,1747486630790,0.107263155,-1.4561675,-0.1549763519999999,0.339553045,0.0263652949999999,-2.51828515
857,1747486630800,-0.040025385,-1.50473495,-0.225142825,0.32037828,-0.30999196,-2.3686155
858,1747486630810,-0.171694265,-1.55427855,-0.292258565,0.207726565,-0.65833345,-2.1449100000000003
859,1747486630820,-0.264191965,-1.60345605,-0.33057554,0.0170442269999999,-0.8908274199999999,-1.86154965
860,1747486630830,-0.3586421199999999,-1.6079712000000002,-0.33618885,-0.3368898879999999,-0.97551592,-1.36327215
861,1747486630840,-0.453336345,-1.572949,-0.334236375,-0.7057377,-0.95527588,-0.8346346499999999
862,1747486630850,-0.49250755,-1.5522041,-0.3360668,-0.96140115,-0.88044108,-0.438888945
863,1747486630860,-0.59745215,-1.48716285,-0.3408259449999999,-1.0929613,-0.8357,-0.22796659
864,1747486630870,-0.622346,-1.4633673,-0.33240595,-1.4247912500000002,-0.71931985,0.76352829
865,1747486630880,-0.390735655,-1.3270613,-0.1149509599999999,-1.35528275,-0.7696536,1.33291215
866,1747486630890,-0.31703037,-1.2949678,-0.08346757,-1.2506205,-0.8229168,1.4887071
867,1747486630900,-0.15546446,-1.2200422,-0.09054524,-0.98377174,-1.0295781,1.7193369
868,1747486630910,0.0303851292,-1.0781228500000002,-0.23685756,-0.657001855,-1.32705315,1.95822245
869,1747486630920,0.06418706,-1.0238202,-0.31727442,-0.58269966,-1.406149,2.0458405
870,1747486630930,0.11226633,-0.8515157449999999,-0.5486406749999999,-0.8333031150000001,-1.6927052,2.7646276
871,1747486630940,0.07614586,-0.79660285,-0.56865335,-0.9108011,-1.6996294,2.9518478
872,1747486630950,0.0439303039999999,-0.763411075,-0.5872017249999999,-1.03410545,-1.6695357,3.2916671
873,1747486630960,0.220871805,-0.5630400799999999,-0.486650125,-1.2540825999999998,-1.6583505,4.54175525
874,1747486630970,0.7560893,-0.32715875,-0.342778395,-0.99042965,-1.7307885,5.3201971
875,1747486630980,1.40564765,-0.035754385,-0.28871972,-0.62238075,-1.86447915,5.8874502
876,1747486630990,1.72914555,0.1957339149999999,-0.385732465,-0.416252075,-2.0077572000000004,6.026201
877,1747486631000,1.820667,0.2928687,-0.45809543,-0.34461305,-2.0804615,6.0810623
878,1747486631010,1.944404,0.3829258,-0.6191732,-0.41705105,-2.1646173,6.3116918
879,1747486631020,2.1159763,0.44442827,-0.7228975,-0.64075655,-2.088451,6.6030416
880,1747486631030,2.3121984,0.498242885,-0.67420812,-1.035170725,-1.7726001,7.0523168
881,1747486631040,2.5948167,0.6469958,-0.41929033,-1.4295849,-1.4567492,7.501592
882,1747486631050,2.6926837,0.70874226,-0.17498904,-1.4753913,-1.4610102,7.94634
883,1747486631060,3.0559628,0.66041895,0.178771935,-1.28177945,-1.3470269,8.406801
884,1747486631070,3.6397477,0.722653515,0.32386397,-0.906273735,-1.0953582,8.238223
885,1747486631080,4.014863699999999,0.955362115,0.26968326,-0.603472335,-0.84315682,7.729559
886,1747486631090,3.9661744,1.103871,0.17742962,-0.567786,-0.77125144,7.480287
887,1747486631100,3.5986242,1.2808125,-0.117635585,-0.89375687,-0.63702816,7.1814804
888,1747486631110,3.2325382,1.3401184,-0.3372871,-1.804558,-0.20399815,7.086672
889,1747486631120,3.19385515,1.17440345,0.41697182,-2.53799265,0.48256481,6.66749025
890,1747486631130,3.1571245,1.1099724,0.94572186,-2.18006365,0.641022885,6.15935925
891,1747486631140,2.8713336,1.1304731,1.4062579,-1.80296,0.5704491,5.9809275
892,1747486631150,2.5889592,1.1560992,1.5507398,-0.7952199,0.27004454,5.6608152
893,1747486631160,2.3202522,1.1587838,1.3491484,0.12357068,-0.022370555,5.3087454
894,1747486631170,1.97088435,1.24774265,0.4770099049999999,0.816791515,-0.2889529799999999,3.98941525
895,1747486631180,1.8178605,1.3247427,0.164128505,0.486825855,-0.117445409,3.24825765
896,1747486631190,1.615537,1.39942425,-0.0358764149999999,-0.0101200099999999,0.096406431,2.57847265
897,1747486631200,1.4980234,1.4392056,-0.08688438,-0.2790993,0.19707392,2.2514365
898,1747486631210,0.93815607,1.4082103,-0.0237955795,-1.03836653,0.292947725,1.4176007
899,1747486631220,0.60916687,1.32852565,0.055523023,-1.3896375,0.270044535,1.06792762
900,1747486631230,0.5474204,1.3013133,0.08151512,-1.454086,0.26312032,0.99708754
901,1747486631240,0.5358277,1.29106275,0.0601601104999999,-1.5385082,0.3603256999999999,0.707868225
902,1747486631250,0.53814626,1.2947236,0.019280521,-1.5648735,0.4048005,0.59601545
903,1747486631260,0.5675551,1.3203497,-0.2923805849999999,-2.1390510000000003,0.59415122,-0.32730252
904,1747486631270,0.5701177,1.3186413,-0.32288775,-2.2828617,0.6040049,-0.5134575
905,1747486631280,0.57255828,1.2556745,-0.191340887,-2.5284052,0.53423015,-1.10680977
906,1747486631290,0.4600479,1.17196285,-0.07602383,-2.54465045,0.36192361,-1.5209313
907,1747486631300,0.3756041,1.1026506,-0.034168016,-2.5284052,0.23489082,-1.7528926
908,1747486631310,0.3793870099999999,1.06530985,-0.0676038575,-2.5406557,0.274571915,-1.96567925
909,1747486631320,0.39488465,1.053107,-0.065163285,-2.541721,0.3355583,-2.0287962
910,1747486631330,0.565724725,1.11412135,-0.050031738,-2.2951122,0.5635249,-2.2458438000000003
911,1747486631340,0.6465077,1.147069,-0.07028849,-2.1587584,0.6135923,-2.3393207
912,1747486631350,1.1995413,1.2078394,-0.2506468,-1.9121497,0.43516052,-2.6184201
913,1747486631360,1.3730661,1.1714748,-0.3577879,-1.4397049,-0.30945933,-3.2336102
914,1747486631370,1.5187683,1.1570754,-0.4807928,-1.33957,-0.6317018,-3.3443978
915,1747486631380,1.9681996,1.2605556999999998,-0.597696225,-1.3901701,-0.76752305,-3.3806168000000003
916,1747486631390,2.200664,1.3203497,-0.6299118,-1.438107,-0.7664578,-3.4189663
917,1747486631400,3.056329,1.6595892,-0.74583894,-1.644502,-0.69668295,-3.8330879
918,1747486631410,3.4826968,1.7289016,-0.7392494,-2.21708165,-0.6167881,-5.42752245
919,1747486631420,3.8509796,1.74745,-0.65041256,-2.3110912,-0.6317018,-5.9170113
920,1747486631430,3.955924,1.67106,-0.54083085,-2.380866,-0.75420725,-6.609433
921,1747486631440,3.8192518,1.3120518,-0.20964517,-2.346245,-0.908138,-7.093596
922,1747486631450,3.75067175,1.0989898,0.0536925935,-1.83518435,-0.601075455,-7.17721915
923,1747486631460,3.79814085,1.0626253,0.156806785,-1.54703035,-0.219710793,-7.0720243
924,1747486631470,3.8418271,1.02552855,0.175111075,-1.25967525,0.160854942,-7.0560455
925,1747486631480,3.858545,0.9874556,0.16693515,-1.1206582,0.330232,-7.0786824
926,1747486631490,3.31295515,0.91728918,0.03636452615,-0.7142598,0.62903863,-6.96683
927,1747486631500,3.2679265,0.8600578,-0.0046370877,-0.6311692,0.6050702,-6.92262105
928,1747486631510,3.150535,0.72167724,-0.0605262,-0.6109292,0.6135923,-6.9481874
929,1747486631520,2.4777913,0.47237282,0.04624885138,-0.34647727,0.76059882,-6.78280515
930,1747486631530,1.95953565,0.285058855,0.081271065,-0.063649555,0.9323727,-6.5180869
931,1747486631540,1.7911361,0.21135357,0.06980037,0.03355583,0.9821738,-6.4134245
932,1747486631550,1.5256019,0.07834238,0.06028214,0.19867182,1.0689929,-6.167881
933,1747486631560,1.240787,-0.141065095,0.123614985,0.49375006,1.13024565,-5.7023607
934,1747486631570,1.12717835,-0.44491637,0.20610634,1.0559434,1.09136345,-5.2112739
935,1747486631580,1.0369992,-0.777078275,0.1923171149999999,1.68444945,0.98457065,-4.764129199999999
936,1747486631590,0.930834325,-0.9662226,0.048811454,1.9726035,0.7872304299999999,-4.5398908
937,1747486631600,0.87201655,-1.0465174,-0.038561042,2.0730047,0.65247446,-4.4362936
938,1747486631610,0.7997756,-1.1692783,-0.17254847,2.1166804,0.3110572,-4.271178
939,1747486631620,0.616488605,-1.2883782,-0.353272865,1.7704695,-0.21358553225,-3.86424685
940,1747486631630,0.53106856,-1.334505,-0.4322254,1.4988271,-0.4261058,-3.623497
941,1747486631640,0.50495446,-1.3764828,-0.456143,1.0636666,-0.46924898,-3.329484
942,1747486631650,0.415507465,-1.4490899499999998,-0.4207547,0.345411985,-0.414121555,-2.8229508
943,1747486631660,0.336798995,-1.50314855,-0.371455135,0.0149137,-0.480167935,-2.5033715
944,1747486631670,0.211353575,-1.56965415,-0.266388495,-0.3020024799999999,-0.6836334500000001,-2.0146814
945,1747486631680,0.051984197,-1.6207842,-0.158149095,-0.4870921699999999,-0.88017475,-1.51134395
946,1747486631690,-0.081149033,-1.62481115,-0.113486615,-0.5209143,-1.02931175,-1.109206615
947,1747486631700,-0.13655003,-1.60479845,-0.08041686,-0.5336974800000001,-1.22904885,-0.678839785
948,1747486631710,-0.101527815,-1.5171819,-0.055400995,-0.52411011,-1.5337145,-0.1177117299999999
949,1747486631720,-0.06443111,-1.4477476,-0.04637088,-0.51505536,-1.7273263,0.23116238
950,1747486631730,-0.0791965749999999,-1.3291358,-0.0826133775,-0.5603291,-1.8322549,0.6066681
951,1747486631740,-0.09518232,-1.2954559,-0.09737884,-0.6689861,-1.8130801,0.9305085
952,1747486631750,-0.12373702,-1.2368821,-0.114218794,-0.8064052,-1.7379789,1.2793826
953,1747486631760,-0.1524137549999999,-1.14548275,-0.0532044795,-0.93556848,-1.60641885,1.8413096
954,1747486631770,-0.136183945,-1.0482259,0.077976293,-0.808535725,-1.54969345,2.40989445
955,1747486631780,-0.08920292,-0.9568264,0.191462905,-0.513990125,-1.55342185,2.93799935
956,1747486631790,-0.06296677,-0.9308343,0.20866893,-0.3616573,-1.577124,3.0887344
957,1747486631800,0.041245673,-0.9003272,0.16522676,-0.036218993,-1.6650083,3.3651705
958,1747486631810,0.136183945,-0.782325535,0.0007321699999999,0.381897305,-1.7899106,3.839213
959,1747486631820,0.13935669,-0.72777873,-0.07297312,0.45912898,-1.8168086,4.004329
960,1747486631830,0.16498269,-0.503002,-0.28579104,0.47137952,-1.8817897,4.996623
961,1747486631840,0.26919514,-0.34582913,-0.36901456,0.32277513,-1.865278,5.587312
962,1747486631850,0.6487041649999999,-0.07529166,-0.4515059,-0.087351685,-1.6588831,6.38945615
963,1747486631860,1.26092175,0.135939885,-0.4272222049999999,-0.50972905,-1.3717943,6.89199465
964,1747486631870,1.9201204,0.3482696899999999,-0.3797530799999999,-0.8870990000000001,-1.1275824,7.154049499999999
965,1747486631880,2.1335485,0.44052333,-0.36755022,-0.9960223,-1.0743192,7.15112
966,1747486631890,2.4120178,0.5430274,-0.33997175,-1.220793,-1.1307782,6.99932
967,1747486631900,2.514766,0.56523657,-0.28969595,-1.3417006,-1.2879047,6.9391327
968,1747486631910,2.40054715,0.49043305,-0.068091977,-1.37339225,-1.3896375,7.5338165
969,1747486631920,2.45143305,0.397569255,0.161443868,-1.30628055,-1.1132014,8.255267
970,1747486631930,2.61116835,0.3522966349999999,0.28237424,-1.18484035,-0.698014535,8.76979
971,1747486631940,2.6934156,0.34241232,0.31825066,-1.1163971,-0.48043427,9.017464
972,1747486631950,3.17128,0.32093528,0.3572998,-1.0205233,-0.17576863,9.391372
973,1747486631960,3.9190712,0.4502856,0.28359452,-0.9736517,0.028229509,9.309346
974,1747486631970,4.629766,0.99819416,-0.07590181,-1.77419795,0.2657834799999999,7.030212649999999
975,1747486631980,4.0515943,1.0479817,0.090789296,-1.9494339,0.25246766,6.6973176
976,1747486631990,3.4734228,0.9498709,0.43759465,-1.9813919,0.18375812,6.4720144
977,1747486632000,3.1007473,0.856641,0.84809893,-1.6000272,0.09534117,6.4469805
978,1747486632010,2.800923,0.78378985,1.14584875,0.061252706,-0.11824436,6.3777385
979,1747486632020,2.7395427,0.7873287,1.0711672,0.9214538,-0.22903186,6.1966434
980,1747486632030,2.4890177,0.844194,0.5252112,1.57659145,-0.25992453,5.9047608
981,1747486632040,2.42287825,1.0086886,-0.0084199799999999,1.18510673,-0.143011754,5.16200515
982,1747486632050,2.3949337,1.1456047,-0.33533466,0.71532506,-0.035153728,4.5337653
983,1747486632060,2.02177025,1.26202005,-0.366573985,0.068176925,0.13475595,3.926032
984,1747486632070,1.7663643,1.3190073,-0.282740325,-0.74115775,0.39947415,3.1316111
985,1747486632080,1.6349396,1.347684,-0.22672918,-0.9603359,0.4878911,2.8836708
986,1747486632090,1.1787965,1.389662,0.04807928,-1.3283848,0.75420725,2.1038973
987,1747486632100,1.048714,1.4479916,0.12568948,-1.2293152,0.8681905,1.7571537
988,1747486632110,0.93473923,1.4682485,0.10494461,-1.0285128,0.8745821,1.4114754
989,1747486632120,0.78684052,1.4161422,-0.14191929,-0.9257148,0.6764429,0.9864349
990,1747486632130,0.74230012,1.39710565,-0.281886115,-1.1038803,0.30120352,0.440753155
991,1747486632140,0.7382732,1.3972276,-0.33582276,-1.1957593,0.16937704,0.24074976
992,1747486632150,0.562551935,1.4194369999999998,-0.32581642,-1.7233316,-0.133957005,-0.6580671
993,1747486632160,0.486528085,1.43505665,-0.224288605,-1.8495654,-0.034088465,-0.86366315
994,1747486632170,0.4818910349999999,1.4572658,-0.09091132,-1.8343854,0.13768543,-1.01706125
995,1747486632180,0.62893555,1.49887755,0.010494461,-1.5102787,0.291349825,-1.3270532
996,1747486632190,0.7570656,1.521941,0.048567392,-1.2357068,0.350472,-1.567004
997,1747486632200,0.9230245,1.5500076,-0.036608588,-0.8836369,0.19068234,-1.9899141
998,1747486632210,1.2146729,1.5924735,-0.1786499,-0.72171664,-0.0037284256,-2.450641
999,1747486632220,1.56355275,1.6342073,-0.33521264,-0.705471365,-0.31638354,-3.2245556000000004
1000,1747486632230,1.9473328,1.68594745,-0.350344185,-0.761930415,-0.609331265,-3.92363525
1001,1747486632240,2.2223854,1.7415925,-0.32557237,-0.7909589,-0.8000136,-4.363323
