id,timestamp,acc_x,acc_y,acc_z,gyro_x,gyro_y,gyro_z
1,1747486638780,-0.3338703,0.25284332,0.81295466,0.68176925,0.09374327,-0.27643612
2,1747486638790,-0.80123997,-1.3264512,0.21379416,0.53103435,1.1158645,-0.45007423
3,1747486638800,-0.7155758,-1.3435352,0.122516744,0.48309743,0.91985583,-0.05486112
4,1747486638810,-0.6879974,-1.3701375,0.016107777,0.34461305,0.8357,0.26312032
5,1747486638820,-0.70215267,-1.40699,-0.07370529,0.05273059,0.84209156,0.690824
6,1747486638830,-0.7017865999999999,-1.46007245,-0.224654695,-0.26631612,0.8628642,1.0844392
7,1747486638840,-0.6872652,-1.4684924,-0.22209209,-0.98110855,0.86392945,1.973935
8,1747486638850,-0.6108753,-1.4936304,-0.17230442,-1.2852416,0.8772453,2.4719462
9,1747486638860,-0.54571202,-1.49448455,-0.136183945,-1.39869225,0.885501085,2.69165695
10,1747486638870,-0.2020794,-1.4648316,0.061014313,-1.6426378,0.8815063,3.2959282
11,1747486638880,-0.084687866,-1.4523847,0.15448824,-1.5845809,0.721184,3.8418763
12,1747486638890,0.0046370877,-1.398692,0.23087814,-1.3709954,0.58429754,4.0149817
13,1747486638900,0.05686534,-1.3486603,0.24234885,-1.0162623,0.37550572,4.1747713
14,1747486638910,0.06589546,-1.3140042,0.19719826,-0.73822826,0.22743396,4.3191147
15,1747486638920,0.088836834,-1.2886223,0.09737884,-0.53529537,0.09960223,4.4810348
16,1747486638930,0.076633975,-1.2258996,-0.14082102,-0.4293016,-0.027164243,4.901282
17,1747486638940,0.14911897,-1.1687901,-0.25308737,-0.5278385,-0.12037488,5.1031494
18,1747486638950,0.25162303,-1.1053354,-0.35412705,-0.71958613,-0.20612867,5.2533517
19,1747486638960,0.38268176,-1.0599406,-0.43124917,-0.98803276,-0.29028457,5.3577476
20,1747486638970,0.5679212,-1.0164984,-0.45907167,-1.2815131,-0.4426174,5.391836
21,1747486638980,0.92436683,-0.795138475,-0.369868755,-1.824798,-0.7552725,5.164402
22,1747486638990,0.95377576,-0.76389915,-0.35363895,-2.0415792,-0.6823019,5.063202
23,1747486639000,0.9276616,-0.71142685,-0.27871338,-2.2525017,-0.49534798,5.026983
24,1747486639010,0.8876362,-0.6582224,-0.16473864,-2.4074976,-0.304133,5.0845075
25,1747486639020,0.8993509,-0.51349646,0.18279888,-2.4431841,-0.16990969,5.686382
26,1747486639030,1.279104,-0.44369608,0.29042813,-2.1731396,-0.13262543,6.060822
27,1747486639040,1.8157859,-0.30067852,0.36584184,-1.8860507,-0.27324033,6.220079
28,1747486639050,2.1458733,-0.195855937,0.37047892,-1.5297197,-0.50387007,6.100237
29,1747486639060,2.8208137,0.12007617,0.23942018,-1.1350393,-0.64075655,5.745504
30,1747486639070,2.8064144,0.23893206,0.042465962,-0.96939063,-0.6109292,5.6405754
31,1747486639080,2.5372193,0.14277348,0.18084641,-0.5635249,-0.34514567,6.0810623
32,1747486639090,2.5372193,0.04148973,0.47810817,0.07350325,-0.25566345,6.5007763
33,1747486639100,2.64594675,0.000244056,0.528628035,0.487358475,-0.318780375,6.72900915
34,1747486639110,2.9418661000000004,-0.0491775339999999,0.5397326200000001,1.30974265,-0.5174521999999999,7.1396687
35,1747486639120,4.183629,0.1581491,-0.12398108,2.4948494,-0.97738016,7.2896047
36,1747486639130,4.259287,0.33265,-0.48616204,2.2397184,-0.7952199,6.9726887
37,1747486639140,4.11871,0.38268176,-0.7819594,1.79497055,-0.59335229,6.8509822
38,1747486639150,4.0637972,0.358398065,-0.81356483,0.8886968749999999,-0.2157160484999999,6.687464
39,1747486639160,3.9800854,0.28408262,-0.6365013,-0.3637878,0.2396845,6.526343
40,1747486639170,3.7518923,0.2562601,0.051007964,-1.0727214,0.479369,6.1753383
41,1747486639180,3.43779035,0.303485185,0.364865575,-1.0796455,0.54168695,5.963883
42,1747486639190,3.3233275,0.33094162,0.41807005,-0.96566224,0.5342301,5.717274
43,1747486639200,3.1602974,0.4053791,0.4842096,-0.75154406,0.43782368,5.4269896
44,1747486639210,3.0624304,0.511788,0.48689422,-0.45486793,0.27004454,5.0466905
45,1747486639220,2.8659642,0.7753699,0.27602875,0.13848437,-0.101200126,3.9425437
46,1747486639230,2.6963444,0.94157284,0.0993313,0.21358553,-0.165116,3.3204293
47,1747486639240,2.3990827,1.0924002,-0.0976229,0.06018744,-0.18109496,2.7281423
48,1747486639250,2.0754628,1.2012497,-0.22453266,-0.28708878,-0.11504856,2.2221417
49,1747486639260,1.7791773,1.27886,-0.1969542,-0.6860303,0.041545313,1.7853832
50,1747486639270,1.3335288,1.4396937,0.1342315,-1.1222562,0.44528055,0.9235843
51,1747486639280,1.1931958,1.4475036,0.23527117,-1.1467572,0.71479243,0.49694586
52,1747486639290,1.087519,1.470689,0.3184947,-1.0306433,1.0013486,0.066046394
53,1747486639300,1.0280911,1.479353,0.318128625,-0.7318367,1.28897,-0.45593318
54,1747486639310,0.8500514,1.462147,0.24478942,-0.47510794,1.3800501,-0.8335694
55,1747486639320,0.7246059,1.4045495,0.24747404,0.06338324,0.9060074,-1.5094798
56,1747486639330,0.6616392,1.3723339,0.35656762,0.46818373,0.42184472,-1.7694043
57,1747486639340,0.7048373,1.2983845,0.43320164,0.97471696,-0.11717909,-1.9963056
58,1747486639350,0.79318607,1.249085,0.3738957,1.4993597,-0.5001417,-2.2285333
59,1747486639360,0.9401085,1.2371262,0.17206036,1.8695391,-0.76752305,-2.5236115
60,1747486639370,1.1582958,1.3071706,-0.45785138,1.9563582,-0.9086706,-2.860235
61,1747486639380,1.5063213,1.389662,-0.65895456,1.0120013,-0.7600662,-3.7278929
62,1747486639390,1.8726513,1.4738617,-0.6621273,0.40266997,-0.5917544,-4.3148537
63,1747486639400,2.131108,1.517548,-0.62356627,-0.18801917,-0.3291667,-4.952947
64,1747486639410,2.3685756,1.4670281,-0.52350277,-0.7392935,0.010120012,-5.5308533
65,1747486639420,2.7566266,1.2034464,-0.0156196635,-1.1568772,0.7414241,-6.4874606
66,1747486639430,2.8245965,1.12669035,0.06528531825,-1.0088054,0.9044095,-6.861368
67,1747486639440,3.1483386,0.83736044,0.39073566,-0.37603834,0.45699844,-7.4765587
68,1747486639450,3.2591405,0.78684056,0.46932206,0.01917476,0.060720075,-7.694405
69,1747486639460,3.5790997,0.7577977,0.54961693,0.24341293,-0.12197278,-7.8456726
70,1747486639470,3.9505548,0.81685966,0.6550496,0.42663842,-0.19547603,-8.023039
71,1747486639480,4.4066978,0.89861876,0.8070973,0.64341974,-0.2908172,-8.255799
72,1747486639490,4.8172016,0.9010593,0.8937377,0.88896316,-0.33076462,-8.572183
73,1747486639500,5.1108027,0.60843474,0.8573731,1.3342438,0.113983296,-9.2172
74,1747486639510,5.0214777,0.49690056,0.7153318,1.4269217,0.42290998,-9.398295
75,1747486639520,4.977792,0.3973252,0.60867876,1.417867,0.55074173,-9.550629
76,1747486639530,4.4577055,-0.050763905,0.5994046,1.4146712,0.5917544,-9.875002
77,1747486639540,4.127252,-0.25772443,0.6745742,1.4913702,0.56725335,-9.816412
78,1747486639550,3.96226935,-0.304705455,0.7166741,1.57099875,0.528371185,-9.721071
79,1747486639560,3.4607317,-0.40562314,0.77903074,1.8040254,0.3749731,-9.341837
80,1747486639570,3.1568806,-0.5254553,0.69385475,1.8690065,0.3089267,-9.046759
81,1747486639580,2.7807882,-0.7089863,0.5954997,1.8663434,0.29880667,-8.737299
82,1747486639590,2.0769272,-1.0284572,0.5098356,1.7353158,0.479369,-7.945275
83,1747486639600,1.7071804,-1.1702545,0.528384,1.7092168,0.64821345,-7.509049
84,1747486639610,1.3642801,-1.2854495,0.5183776,1.7571537,0.7882957,-6.903979
85,1747486639620,1.0311419,-1.3801438,0.47151858,1.7869811,0.8245147,-6.3745427
86,1747486639630,0.48323336,-1.4838681,0.37706846,1.8908445,1.0024139,-5.3678675
87,1747486639640,0.20012695,-1.530483,0.2716357,1.9164108,1.1808456,-4.802212
88,1747486639650,-0.082247294,-1.6278619,0.1261776,1.8684739,1.3805827,-4.1982074
89,1747486639660,-0.3116611,-1.7208476,-0.011714748,1.7864485,1.4988271,-3.6117792
90,1747486639670,-0.53961056,-1.7977256,-0.19597797,1.6282567,1.4215955,-3.033873
91,1747486639680,-0.88788027,-1.8982773,-0.48567393,0.9715212,0.9214538,-1.7454358
92,1747486639690,-0.8502955,-1.9707624,-0.5964759,0.36485308,0.6711166,-0.9443569
93,1747486639700,-0.77854264,-2.054962,-0.6718896,0.08362326,0.65247447,-0.68523135
94,1747486639710,-0.77317333,-2.1201253,-0.67530644,-0.7952199,0.67484504,0.054328486
95,1747486639720,-0.8236932,-2.2031047,-0.65895456,-1.3944311,0.773382,0.5752428
96,1747486639730,-1.0055158,-2.3141508,-0.511788,-2.431466,1.010936,1.911617
97,1747486639740,-0.97598493,-2.2792506,-0.3521746,-2.7292075,0.96939063,2.6652918
98,1747486639750,-0.8371163,-2.246547,-0.19304928,-2.8330708,0.84155893,3.3907368
99,1747486639760,-0.6169767,-2.1921222,-0.011714748,-2.7451866,0.6151902,4.053864
100,1747486639770,-0.078830495,-1.8836339,0.24064046,-2.350506,-0.16937704,5.0669303
101,1747486639780,0.16278619,-1.7342708,0.2042759,-1.4301175,-0.5470133,5.2869077
102,1747486639790,0.33265,-1.5827112,0.09542638,-1.1030813,-0.86392945,5.430186
103,1747486639800,0.5095915,-1.4428664,-0.038561042,-0.9534117,-1.0961571,5.5111456
104,1747486639810,0.70215267,-1.308635,-0.16717921,-0.95607483,-1.2128036,5.5042214
105,1747486639820,0.78415596,-1.0941086,-0.32850105,-1.2239889,-1.0503508,5.429653
106,1747486639830,0.7145996,-1.022844,-0.3128814,-1.30388375,-0.99176125,5.473595
107,1747486639840,0.7145996,-1.022844,-0.3128814,-1.3837786,-0.9331717,5.517537
108,1747486639850,0.7552352,-0.920705975,-0.170229935,-1.4199975,-0.862864225,5.9172777
109,1747486639860,0.8217408,-0.878362,-0.09835507,-1.3725933,-0.8591358,6.1588264
110,1747486639870,1.308635,-0.6550496,0.025381953,-0.8942895,-1.3901701,6.124738
111,1747486639880,1.5124228,-0.47859627,-0.0053692595,-0.6130597,-1.7230653,5.9979715
112,1747486639890,1.6844832,-0.31581008,-0.10958171,-0.4394216,-1.9425098,5.9207397
113,1747486639900,1.7325623,-0.22306833,-0.23307467,-0.42184472,-1.9350529,5.9516325
114,1747486639910,1.7037637,-0.29530928,-0.28505886,-0.8127968,-1.1680624,6.4736123
115,1747486639920,1.8440965,-0.3648656,-0.16449459,-0.9779128,-0.53316486,6.9897327
116,1747486639930,2.3202522,-0.26797485,-0.06199054,-0.9528791,-0.35952675,7.246994
117,1747486639940,2.643384,0.0065895454,0.029530926,-0.79415464,-0.50387007,7.487211
118,1747486639950,3.0665793,0.4217309,0.07614586,-0.62584287,-0.8692558,7.918111
119,1747486639960,4.8499055,1.326207,0.14301755,-0.49534798,-1.2362394,8.194547
120,1747486639970,5.58525,1.615415,-0.006833603,-0.25353295,-1.2474247,6.888
121,1747486639980,5.4324703,1.6212723,-0.12520137,-0.41598576,-0.7621967,5.6799903
122,1747486639990,5.4324703,1.6212723,-0.12520137,-0.41598576,-0.7621967,5.6799903
123,1747486640000,4.66515435,1.48313595,0.0045150649999999,-0.54674698,-0.1632517649999999,5.07891465
124,1747486640010,3.158589,1.1155857,0.24698594,-0.624245,0.793622,4.6088667
125,1747486640020,2.579685,0.8061211,0.37706846,-0.24927188,0.63649553,5.27732
126,1747486640030,2.5008545,0.6616392,0.3321619,-0.09374327,0.43888897,5.5676045
127,1747486640040,2.4413047,0.53985465,0.2853029,-0.015978966,0.36591834,5.7689395
128,1747486640050,2.40860105,0.501537655,0.27700497,-0.0138484375,0.407996285,5.84191015
129,1747486640060,2.5550354,0.41611758,0.27139166,-0.0628506,0.5816344,5.894641
130,1747486640070,2.7419832,0.5359497,0.20769271,-0.11611383,0.82557994,4.8597364
131,1747486640080,2.4527755,0.5688974,0.25528386,-0.07882957,0.82824314,4.2701125
132,1747486640090,2.0642362,0.59159476,0.2975058,0.016511599,0.8133294,4.045342
133,1747486640100,1.9207305,0.6007469,0.28810959,0.0636495495,0.814394685,4.003264
134,1747486640110,1.441158,0.6638357,0.28920785,0.2806972,0.809601,3.9468048
135,1747486640120,1.3674527,0.69214636,0.29555333,0.36218992,0.7914915,3.9100533
136,1747486640130,1.4035733,0.76853627,0.30067852,0.4463458,0.72011876,3.7417414
137,1747486640140,1.5648952,0.8861718,0.2865232,0.55606806,0.5432849,3.3374736
138,1747486640150,1.7003469,0.9737884,0.267120655,0.7174556,0.24021713,2.591256
139,1747486640160,1.9883344,1.2603117,0.1696198,0.92092115,-0.12996227,1.5558188
140,1747486640170,1.5944259,1.5451264,-0.011226633,1.2080098,-0.8213189,-0.5342301
141,1747486640180,1.3308442,1.5729489,-0.0605262,1.2697952,-0.8330368,-1.0812434
142,1747486640190,1.159272,1.4885051,-0.107873306,1.2793826,-0.7275756,-1.4737934
143,1747486640200,1.0933765,1.3877095,-0.15497635,1.117995,-0.4165184,-2.171009
144,1747486640210,1.1717188,1.3069266,-0.21257387,0.9555422,-0.29667616,-2.6029737
145,1747486640220,1.2869139,1.2778838,-0.27724904,0.78563255,-0.21252026,-3.1158986
146,1747486640230,1.3337729,1.2676333,-0.400742,0.5965481,-0.12197278,-3.6634445
147,1747486640240,1.4050376,1.2505494,-0.6577343,-0.14327806,-0.12996227,-4.764928
148,1747486640250,1.3718457,1.2598236,-0.5757311,-0.45486793,-0.25406557,-5.1468253
149,1747486640260,1.3550059,1.2256554,-0.38927132,-0.61678815,-0.44048685,-5.384912
150,1747486640270,1.5163277,1.1697664,-0.11226633,-0.5747102,-0.6359629,-5.576659
151,1747486640280,1.8357986,1.2075952,0.15375607,-0.33449304,-0.6924219,-5.8328557
152,1747486640290,2.3859036,1.1883147,0.1637624,0.11771172,-0.40107206,-6.5551047
153,1747486640300,2.6507058,1.1629328,0.00707766,0.09960223,-0.2130529,-6.917295
154,1747486640310,2.78811,1.1377949,-0.10884953,-0.048469532,-0.18801917,-7.2603097
155,1747486640320,2.920389,1.108264,-0.10152781,-0.30146983,-0.43569317,-7.5719
156,1747486640330,3.1583447,1.0748281,0.06589546,-0.42184472,-0.7392935,-7.756723
157,1747486640340,3.7721486,0.99136055,0.4702983,-0.20026971,-1.1153319,-8.196677
158,1747486640350,3.918339,0.984038825,0.52972625,0.06018744,-1.1211908,-8.459265
159,1747486640360,4.129448699999999,0.9401085,0.55998937,0.16831178,-1.046888625,-8.602543
160,1747486640370,4.1933913,0.7919658,0.40440285,0.35633096,-0.79735047,-8.923187
161,1747486640380,4.117978,0.52472305,0.32459614,0.28122982,-0.5656554,-8.896556
162,1747486640390,4.3076105,0.49299565,0.38707477,0.30360037,-0.5523396,-8.913068
163,1747486640400,4.39058995,0.476277725,0.41892426,0.347542525,-0.5443501500000001,-9.039568
164,1747486640410,4.3210335,0.31654227,0.49006698,0.47723848,-0.40586576,-9.384447
165,1747486640420,3.9986339,0.11177822,0.52252656,0.5640575,-0.22210763,-9.4457
166,1747486640430,3.1097775,-0.3287451,0.5767073,0.8064052,0.047404267,-9.145295
167,1747486640440,2.575292,-0.56718904,0.6123396,0.96086854,0.08522116,-8.84063
168,1747486640450,2.118661,-0.77951884,0.6033095,1.1515509,0.12410331,-8.407599
169,1747486640460,1.6971741,-0.9898962,0.56865335,1.3379722,0.14327806,-7.8936095
170,1747486640470,1.2773956,-1.1463369,0.53228885,1.675661,0.007989483,-6.5641594
171,1747486640480,0.40513504,-1.2786158,0.42514774,1.7465011,-0.03355583,-5.8504324
172,1747486640490,0.123004854,-1.3237665,0.3704789,1.7465011,-0.041012682,-5.1031494
173,1747486640500,-0.0046370929999999,-1.33792185,0.34680535,1.73265265,0.009321064,-4.7220512
174,1747486640510,-0.3619369,-1.3716017,0.24137263,1.6223978,0.2790993,-3.5590487
175,1747486640520,-0.69971216,-1.4318839,0.07468152,1.2516857,0.87777793,-2.0980384
176,1747486640530,-0.8236932,-1.453605,0.0102504045,1.0146644,1.0759171,-1.4434333
177,1747486640540,-0.8679896,-1.4676383,-0.01598574975,0.8857674,1.1046792,-1.139300325
178,1747486640550,-0.9823304,-1.5070535,-0.091033354,0.49375007,1.1291803,-0.27324033
179,1747486640560,-1.0201592,-1.5256019,-0.14692247,0.13475595,1.0892329,0.38242993
180,1747486640570,-0.97354436,-1.5419537,-0.21574661,-0.53316486,0.99495703,1.3928332
181,1747486640580,-0.9130182,-1.5202327,-0.21428227,-0.88470215,0.96086854,1.8935076
182,1747486640590,-0.8078295,-1.4758141,-0.18060236,-1.216532,0.9571401,2.3813987
183,1747486640600,-0.65675807,-1.4238299,-0.13740423,-1.36753325,0.98110855,2.61309375
184,1747486640610,-0.30555966,-1.308879,0.032703668,-1.9206718,1.1014835,3.6043222
185,1747486640620,-0.09615856,-1.2671453,0.088104665,-1.9899141,1.1259845,3.8253646
186,1747486640630,0.060770255,-1.2351737,0.11568313,-1.9837888,1.1145329,3.8788942
187,1747486640640,0.1117782225,-1.23004855,0.142285375,-1.8780613,0.9768475,3.9414785
188,1747486640650,0.19548985,-1.2395668,0.208913,-1.6841831,0.77924097,3.9547944
189,1747486640660,0.17132819,-1.2227268,0.29116032,-0.9912286,0.25193503,4.0490704
190,1747486640670,0.118855886,-1.1580516,0.2630937,-0.58056915,-0.037284255,4.192881
191,1747486640680,0.099087246,-1.1241276,0.15424417,-0.24501082,-0.25406557,4.417119
192,1747486640690,0.12495731,-1.090936,0.025870068,-0.048469532,-0.35579833,4.7287087
193,1747486640700,0.20671648,-1.053107,-0.14204131,-0.027164243,-0.33129725,5.0749197
194,1747486640710,0.60892284,-0.9469421,-0.4046469,-0.509729,-0.23062976,5.555354
195,1747486640720,0.8776299,-0.8498074,-0.4829893,-0.85487473,-0.2860235,5.528723
196,1747486640730,1.0765365,-0.7878168,-0.4983649,-1.2389026,-0.40959418,5.3843794
197,1747486640740,1.2793481,-0.7397375,-0.47176263,-1.6064188,-0.5544701,5.147358
198,1747486640750,1.3432911,-0.6992240000000001,-0.4446722899999999,-1.7518273999999998,-0.627174425,4.9912968
199,1747486640760,1.1348661,-0.5598673,-0.16351835,-2.1236048,-0.87564737,4.6770434
200,1747486640770,0.9371798,-0.5435155,-0.032459613,-2.1060278,-0.80587256,5.0797133
201,1747486640780,0.8849516,-0.50934744,0.11617125,-2.0074909,-0.5406217,5.7236657
202,1747486640790,0.93303088,-0.50104952,0.185361475,-1.90602445,-0.3539341099999999,6.12873265
203,1747486640800,1.19124343,-0.460658075,0.326548585,-1.6029567,-0.01304949,6.9609706
204,1747486640810,2.016401,-0.32386398,0.39195594,-0.98803276,-0.0058589545,7.628359
205,1747486640820,3.3008742,-0.009518232,-0.08151512,-0.42663842,-0.7930894,6.604107
206,1747486640830,3.252307,0.13911264,-0.21501444,-0.39894155,-1.1084076,6.0714746
207,1747486640840,3.1019676,0.1283741125,-0.25418562,-0.416518405,-1.12731605,6.0371198
208,1747486640850,2.8524190000000003,0.0822472885,-0.2907942,-0.4655205599999999,-1.06712863,6.1841263
209,1747486640860,2.7724903,0.045882765,-0.16742326,-0.5454154,-0.68656296,6.9407306
210,1747486640870,3.41851,-0.18792409,-0.12837411,-0.64821345,0.08735169,7.9186435
211,1747486640880,3.5166206,-0.2403964,-0.046614934,-0.72651035,0.3568636,8.223842
212,1747486640890,3.6166844,-0.28286234,-0.06467517,-0.9310411,0.41705105,8.568455
213,1747486640900,4.215845,-0.2962855,-0.15229172,-1.2879047,0.3110572,8.591358
214,1747486640910,4.729097,-0.053936653,0.04783522,-2.0442424,0.21784659,7.7103844
215,1747486640920,4.6617374,0.09689073,0.52960426,-1.9909793,0.19813919,7.197992
216,1747486640930,4.535804,0.27773714,1.0821499,-1.3896375,0.10705908,6.592389
217,1747486640940,3.867331,0.59159476,1.4992436,-0.28495824,-0.128897,5.466937
218,1747486640950,3.63596475,0.61343788,1.32498675,0.98217388,-0.49667955,5.2227251
219,1747486640960,3.24254455,0.6672525,0.9341291,2.249306,-0.8644621,4.9785132
220,1747486640970,2.8452194,0.8019721,0.2689511,2.7659593,-1.099353,4.290353
221,1747486640980,2.6948802,0.92912596,-0.0776102,2.4096282,-0.9076053,3.8168426
222,1747486640990,2.3971303,1.2607998,-0.36340126,1.158475,-0.01438107,2.5470474
223,1747486641000,2.089862,1.4135796,-0.3236199,0.5251754,0.5107943,1.8295918
224,1747486641010,1.7608731,1.4902135,-0.21818718,0.020240024,0.8692558,1.171791
225,1747486641020,1.4301754,1.5202327,-0.09030118,-0.29827404,1.0530139,0.6428871
226,1747486641030,1.1504859,1.5539125,0.07272906,-0.47137952,1.0892329,0.11504856
227,1747486641040,0.8092938,1.5695322,0.073461235,-0.48043427,0.70147663,-0.6679208
228,1747486641050,0.7900132799999999,1.55598695,0.0646751725,-0.456465825,0.577373325,-0.8620652499999999
229,1747486641060,0.7819594,1.4885051,0.05735345,-0.39095205,0.20026971,-1.4594123
230,1747486641070,0.77170897,1.4211453,0.07590181,-0.33822146,0.04314321,-1.8173412
231,1747486641080,0.8049008,1.3071706,0.04075756,-0.40266997,-0.024501082,-2.4341292
232,1747486641090,0.81197846,1.2956998,0.07565775,-0.49375007,0.021837922,-2.6855316
233,1747486641100,0.82955058,1.28300885,0.081393095,-0.548611185,0.114249611,-2.7851338
234,1747486641110,0.89471385,1.24969505,0.106042875,-0.6562029,0.3579288499999999,-3.0099046
235,1747486641120,1.0471276,1.2305366,0.210133295,-0.67351345,0.549410135,-3.26157345
236,1747486641130,1.7118175,1.2908187,0.68336034,0.15393071,0.24927188,-4.121508
237,1747486641140,1.89229785,1.3076587,0.74974387,0.471379505,0.02130529,-4.373443
238,1747486641150,2.2808371000000003,1.33389485,0.83125895,1.10015185,-0.489489025,-4.9060755
239,1747486641160,2.8378975,1.3237665,0.6828722,1.62692515,-1.003212825,-5.5066185
240,1747486641170,3.0580373,1.2244352,0.35974038,1.6080167,-1.0679276,-6.9961243
241,1747486641180,3.461708,0.9183875,-0.29701766,1.0956244,-0.40533313,-7.4898744
242,1747486641190,3.4657349,0.80136202,-0.40049793,0.33289513,0.59122175,-7.920774
243,1747486641200,3.5385861,0.65163285,-0.4373506,-0.13102753,1.1046792,-8.081629
244,1747486641210,3.811442,0.64357895,-0.12739788,-0.2396845,1.206412,-8.315987
245,1747486641220,4.3163967,0.44882128,0.35144243,0.360592,0.6146576,-9.087771
246,1747486641230,4.519696,0.34241232,0.46102414,0.7643272,0.15446335,-9.485115
247,1747486641240,4.519940249999999,0.278469325,0.48689422,0.9273127,-0.0580569049999999,-9.6632805
248,1747486641250,4.4779625,0.158637213,0.53228885,1.1981562,-0.4162520799999999,-9.91814475
249,1747486641260,4.41438555,0.065285311,0.5422952,1.3480921499999998,-0.574443865,-9.98499025
250,1747486641270,4.4828434,-0.35754386,0.4949481,1.3017532,-0.099069595,-10.035856
251,1747486641280,4.2834487,-0.47835222,0.6079466,1.3475596,-0.049002163,-9.998039
252,1747486641290,4.132865450000001,-0.5729243900000001,0.6399181,1.39416485,-0.0370179385,-9.949037
253,1747486641300,3.530288,-0.844438,0.7382732,1.5398397,-0.048469532,-9.675264
254,1747486641310,3.0463226,-0.88031447,1.0108851,1.7757958,-0.13262543,-9.282182
255,1747486641320,2.49036,-1.0472497,1.0687267,2.6253443,0.02130529,-8.33889
256,1747486641330,2.1760144,-1.138283,0.90447617,2.9699574,0.16564862,-7.8488684
257,1747486641340,1.7877192,-1.1814811,0.6962953,3.1686292,0.25193503,-7.3577814
258,1747486641350,1.53621825,-1.18550805,0.5615757299999999,3.18354285,0.3257046,-7.0099725500000005
259,1747486641360,0.8495633,-1.1390152,0.15546446,2.9672942,0.5651228,-5.994243
260,1747486641370,0.2403964,-1.0140579,-0.18597162,2.0873857,1.0088054,-4.691425
261,1747486641380,0.00097622897,-1.0072243,-0.33460248,1.5883093,1.4311827,-4.1800976
262,1747486641390,-0.3014107,-1.0697029,-0.5008055,1.0056096,1.8903117,-3.6804886
263,1747486641400,-0.46187835,-1.09581705,-0.5310685500000001,0.709199785,2.08552145,-3.39313355
264,1747486641410,-0.9235126,-1.1600041,-0.5525456,-0.083090626,2.4799356,-2.4602282
265,1747486641420,-1.2730026,-1.1736712,-0.36755022,-0.64182186,1.9552929,-0.8266452
266,1747486641430,-1.2659249,-1.1365746,-0.23942018,-0.65460503,1.4471618,-0.15393071
267,1747486641440,-1.1648853,-1.1263242,-0.17523311,-0.6109292,1.0498182,0.46552056
268,1747486641450,-1.05725602,-1.13645255,-0.126299625,-0.5933523199999999,0.91186642,0.71825458
269,1747486641460,-0.75145227,-1.1060674,-0.033435844,-0.5581986,0.67218184,1.3725933
270,1747486641470,-0.28701133,-1.1622007,0.01952458,-0.62051654,0.6221144,1.8769959
271,1747486641480,-0.12202863,-1.2590914,-0.013179091,-0.69987875,0.6514092,1.9707392
272,1747486641490,-0.08786061,-1.343291,-0.045394648,-0.80800307,0.6508766,2.0357203
273,1747486641500,-0.13569583,-1.4043053,-0.06955632,-0.9321064,0.56459016,2.1369205
274,1747486641510,-0.23258655,-1.4575099,-0.12129646,-1.0988203,0.34567833,2.368083
275,1747486641520,-0.38463423,-1.4357888,-0.2135501,-1.3986923,-0.23648871,2.8852687
276,1747486641530,-0.38463423,-1.4357888,-0.2135501,-1.3986923,-0.23648871,2.8852687
277,1747486641540,-0.4322254,-1.4338363,-0.22843759,-1.5920377,-0.42876893,3.2330775
278,1747486641550,-0.21428227,-1.470689,-0.14277348,-1.9579561,-0.3472762,4.027232
279,1747486641560,-0.11543907,-1.4680043,-0.10982577,-2.1901836,-0.0974717,4.65201
280,1747486641570,-0.039537273,-1.4543371,-0.082491346,-2.2088258,-0.096939065,4.9289784
281,1747486641580,0.08786061,-1.4340804,-0.10128376,-2.1667478,-0.28176245,5.2490907
282,1747486641590,0.3018988,-1.3542737,-0.13618395,-2.1038973,-0.5544701,5.4110107
283,1747486641600,0.42234105,-1.3104654,-0.164616615,-2.0458405,-0.8852348,5.446697
284,1747486641610,0.72021294,-1.0440769,-0.4339338,-2.0501015,-1.2106731,5.3854446
285,1747486641620,0.77073276,-0.9872115,-0.53082454,-2.4714136,-1.419465,5.3705306
286,1747486641630,0.7394935,-0.92156017,-0.5205741,-2.789395,-1.3401027,5.5042214
287,1747486641640,0.7487676,-0.8932495,-0.42124277,-3.029612,-1.23837,5.705024
288,1747486641650,0.7864745,-0.88592782,-0.3342363849999999,-3.0746195,-1.22478785,5.82832825
289,1747486641660,1.142676,-0.8925173,0.24942651,-3.003513,-1.1984226,6.247776
290,1747486641670,1.6073611,-0.8507836,0.45638704,-2.0176108,-1.2751216,6.9929285
291,1747486641680,2.1008449,-0.7180164,0.49860895,-1.4258565,-1.3811153,7.080813
292,1747486641690,2.9892132,-0.4544346,0.2716357,-0.54275227,-1.6223978,6.609966
293,1747486641700,3.0985508,-0.3104408,0.14716652,-0.2428803,-1.6985642,6.3180833
294,1747486641710,3.0585253,-0.25137895,0.056133166,-0.039414786,-1.7230653,6.3718796
295,1747486641720,3.0458343,-0.20549619,0.049299564,0.09853696,-1.6096146,6.7899957
296,1747486641730,3.662811,-0.22233616,0.29140437,0.6125271,-0.90707266,7.797203
297,1747486641740,4.0677023,-0.38609856,0.19793043,0.86020106,-0.572047,7.9735045
298,1747486641750,4.1658134,-0.50715095,0.07858644,0.9805759,-0.4383563,8.120511
299,1747486641760,4.1240797,-0.6203935,-0.0707766,0.9310411,-0.4788364,8.371913
300,1747486641770,4.216821,-0.7311955,-0.15936938,0.73822826,-0.6279734,8.665926
301,1747486641780,4.6029196,-0.80294836,-0.17498904,0.5022722,-0.763262,8.752746
302,1747486641790,5.0834684,-0.70190865,-0.020744866,0.18642128,-0.7089335,8.107195
303,1747486641800,5.01818295,-0.6382097,0.0529604219999999,0.1768339,-0.64528395,7.923703250000001
304,1747486641810,4.794749,-0.39293218,0.29701766,0.30146983,-0.41065946,7.3737607
305,1747486641820,4.608777,-0.1581491,0.39317623,0.70200926,-0.1587244,6.86776
306,1747486641830,4.109924,0.3065359,0.047103047,1.1110709,-0.049002163,5.784386
307,1747486641840,3.8722124,0.52301466,-0.21818718,0.8990832,-0.15020229,4.9987535
308,1747486641850,3.4312007,0.7380291,-0.45345837,0.40746364,-0.21571605,4.172108
309,1747486641860,2.9489436,0.89861876,-0.55645055,-0.2876214,-0.15499598,3.5153728
310,1747486641870,2.5108612,0.99233675,-0.44101146,-0.9805759,0.06231797,3.0360036
311,1747486641880,1.9570951,1.0672623,0.18304294,-1.5488945,0.6791061,2.1342573
312,1747486641890,1.79235645,1.0810515500000002,0.306902005,-1.4655376,0.7752462250000001,1.93478655
313,1747486641900,1.2205303,1.1314493,0.5989165,-0.9108011,0.9347696,1.3363743
314,1747486641910,0.88007045,1.2002735,0.5784157,-0.48309743,0.96406436,1.103614
315,1747486641920,0.6631035,1.2039344,0.17157225,-0.09267801,0.96299905,0.61838603
316,1747486641930,0.6299118,1.2329772,-0.012202863,-0.11611383,0.91452956,0.21252026
317,1747486641940,0.5451018750000001,1.2377363,-0.0850539515,-0.18801918,0.8572715799999999,0.0231695049999999
318,1747486641950,0.2677308,1.2185779,-0.234539,-0.47617322,0.6487461,-0.4165184
319,1747486641960,0.16107778,1.1609803,-0.23649146,-0.69774824,0.4612595,-0.5320996
320,1747486641970,0.23136626,1.0311419,0.00024405724,-0.922519,0.1454086,-0.664725
321,1747486641980,0.38219365,0.9862353,0.17450093,-0.85061365,0.13209279,-0.80747044
322,1747486641990,0.5635282,0.98111016,0.27993366,-0.71798825,0.14061491,-1.0407634
323,1747486642000,0.63186423,1.01149528,0.309708655,-0.62211445,0.154995975,-1.1965583
324,1747486642010,0.7485236,1.0931324,0.30433938,-0.34834146,0.20026971,-1.6506273
325,1747486642020,1.1929518,1.2041785,0.01586372,-0.19813919,0.11504856,-2.444782
326,1747486642030,1.3742863,1.270562,-0.15839316,-0.27643612,0.012250541,-3.0045784
327,1747486642040,1.4985116,1.313028,-0.3099527,-0.4926848,-0.1470065,-3.5760927
328,1747486642050,1.5756336,1.3232784,-0.3441207,-0.81013364,-0.30466563,-4.110323
329,1747486642060,1.701323,1.2559186,-0.18572757,-1.2357068,-0.257794,-4.645086
330,1747486642070,2.2033489,1.1997855,0.34582913,-1.4695324,0.7318367,-5.069061
331,1747486642080,2.5955489,1.1148535,0.39268813,-1.3081448,1.468467,-5.3284526
332,1747486642090,2.8108072,0.96671075,0.33020946,-1.1132014,1.8594191,-5.6799903
333,1747486642100,2.984576,0.8156393,0.28335047,-0.90174633,1.7715348,-6.0981064
334,1747486642110,3.0612102,0.6025773,0.447601,-0.5928197,1.417867,-6.5412564
335,1747486642120,3.031435,0.5374141,0.4751795,0.29561087,0.7254451,-7.052583
336,1747486642130,3.1324747,0.53912246,0.5103237,0.757403,0.5336975,-7.079215
337,1747486642140,3.2865969,0.54327143,0.5178895,0.917459,0.55074175,-7.0704265
338,1747486642150,3.832431,0.51788944,0.48152497,1.20454775,0.56618808,-7.08454115
339,1747486642160,4.400108,0.48518583,0.6074585,1.7912422,0.0777643,-7.5271587
340,1747486642170,4.5309224,0.3214234,0.48494175,1.9153455,-0.0628506,-7.8009315
341,1747486642180,4.5685077,0.2208718,0.37633628,1.7454358,-0.2263687,-7.97457
342,1747486642190,4.65746665,0.1403329135,0.40965009,1.57925455,-0.2692456,-8.054997499999999
343,1747486642200,4.514571,-0.0924977,0.4966565,1.128115,-0.010120012,-8.245147
344,1747486642210,4.1658134,-0.20866893,0.8673795,0.80800307,0.5683186,-7.832357
345,1747486642220,4.0108366,-0.34290043,1.0318741,1.0572749,0.57577544,-7.641142
346,1747486642230,3.782643,-0.5000733,1.0308977,1.2969595,0.54168695,-7.4925375
347,1747486642240,3.59532925,-0.56047745,0.99184863,1.3837785500000002,0.604803875,-7.383880599999999
348,1747486642250,3.1827506,-0.681895935,0.91008953,1.5334482,0.77311568,-7.12582035
349,1747486642260,2.0644803,-0.88739216,0.6042857,1.6852484,1.1126688,-6.6104984
350,1747486642270,1.7406163,-0.9803779,0.49982923,1.7566211,1.2378373,-6.045376
351,1747486642280,1.3774592,-1.0697029,0.44564855,1.8104169,1.1472899,-5.7561564
352,1747486642290,1.2012498,-1.0981355499999998,0.43710655,1.9105518,0.99921805,-5.293299
353,1747486642300,0.7392494,-1.1480453,0.35559142,1.9888487,0.8942895,-4.908206
354,1747486642310,0.55791485,-1.1570754,0.234539,2.0128171,0.77391464,-4.544951
355,1747486642320,0.30800024,-1.1848979,-0.025626011,1.7694043,0.47670585,-3.657053
356,1747486642330,0.25089085,-1.1241276,-0.1044565,1.5068166,0.40746364,-3.2080438
357,1747486642340,0.2967736,-1.0262607,-0.1210524,1.2138689,0.38562572,-2.8399951
358,1747486642350,0.38585448,-0.9964857,-0.15375607,0.892159,0.49534798,-2.6029737
359,1747486642360,0.345341,-1.0711672,-0.1718163,0.23489082,1.0764498,-2.4282703
360,1747486642370,0.19963883,-1.1412116,-0.20769271,-0.13741912,1.4029533,-2.3526366
361,1747486642380,0.017328065,-1.2420074,-0.23722363,-0.396811,1.4977618,-2.2503712
362,1747486642390,-0.13935669,-1.3220581,-0.16791138,-0.53103435,1.355549,-2.0879183
363,1747486642400,-0.44857723,-1.4311516,-0.119099945,-0.49321744,0.7387609,-1.6064188
364,1747486642410,-0.55840296,-1.5187683,-0.1381364,-0.45486793,0.4149205,-1.2325109
365,1747486642420,-0.63381666,-1.5849078,-0.18377511,-0.4426174,0.15126756,-0.8127968
366,1747486642430,-0.6811638,-1.6356717,-0.2523552,-0.49375007,-0.03888215,-0.3797668
367,1747486642440,-0.82711005,-1.6837509,-0.35583547,-0.7957525,-0.092145376,0.5784386
368,1747486642450,-0.9276616,-1.6891203,-0.4300289,-1.1286477,0.08468852,1.3177321
369,1747486642460,-0.9242448,-1.6742326,-0.4183141,-1.4045511,0.24660872,1.9718045
370,1747486642470,-0.75218445,-1.6061407,-0.39756927,-1.6213325,0.3206446,2.5438516
371,1747486642480,-0.23649146,-1.4409139,-0.27383223,-1.7422401,0.2247708,2.9843383
372,1747486642490,0.036852647,-1.3218141,-0.21428227,-1.6202673,-0.3291667,3.4290862
373,1747486642500,0.2020794,-1.2002735,-0.18743597,-1.438107,-0.6711166,3.4839475
374,1747486642510,0.24454537,-1.1055794,-0.21574661,-1.2650015,-0.93849796,3.5499938
375,1747486642520,0.21818718,-1.040172,-0.2779812,-1.2018846,-1.1171961,3.85412685
376,1747486642530,0.2238005,-0.9967298,-0.35510328,-1.2170646,-1.1382351,3.9947417
377,1747486642540,0.32044718,-0.9884319,-0.37487194,-1.2538162,-0.96299905,4.542288
378,1747486642550,0.44003522,-0.9642702,-0.3402158,-1.1728562,-0.9784454,4.825648
379,1747486642560,0.5972081,-0.91204196,-0.29042813,-0.98803276,-1.1590078,5.1031494
380,1747486642570,0.7473033,-0.81685966,-0.24576566,-0.72917354,-1.474326,5.419533
381,1747486642580,1.3921026,-0.49299565,-0.13252309,-0.26365295,-1.9414445,6.1401844
382,1747486642590,1.892664,-0.36510965,-0.20403185,-0.20772657,-1.7358484,6.3894563
383,1747486642600,2.3265977,-0.25723633,-0.27724904,-0.33289513,-1.2277173,6.4528394
384,1747486642610,2.4991462,-0.15375607,-0.32923323,-0.660464,-0.5320996,6.395848
385,1747486642620,2.4791336,-0.14228538,-0.2672427,-0.9821738,-0.23276028,6.4256754
386,1747486642630,2.5047596,-0.16034561,-0.13179092,-1.383246,-0.545948,7.192133
387,1747486642640,2.8708453,-0.15961345,-0.003172744,-1.391768,-0.98856544,7.71358
388,1747486642650,3.4114323,-0.12349297,0.16034561,-1.2697952,-1.3038837,8.030496
389,1747486642660,3.739201,-0.10714114,0.34607318,-1.0423613,-1.3853765,8.148741
390,1747486642670,3.9107735,-0.1598575,0.6047739,-0.18961707,-0.57364494,8.37937
391,1747486642680,3.752624,-0.33313814,0.80514485,0.46658584,-0.06977482,8.75168
392,1747486642690,3.948846,-0.46322066,0.7575537,0.9571401,-0.03355583,8.97432
393,1747486642700,4.5137165,-0.39317621,0.55291168,1.56274295,-0.31798144,8.734103
394,1747486642710,4.655392,-0.32606047,0.46932206,1.7166736,-0.43196473,8.56153
395,1747486642720,4.795481,0.14911897,0.15009521,1.659682,-0.44048685,7.4264913
396,1747486642730,4.523357,0.42368335,0.08639627,1.438107,-0.12942964,6.8826737
397,1747486642740,4.257579,0.6291796,0.093473926,1.2442288,0.2545982,6.3553677
398,1747486642750,3.9395723,0.8175918,0.10396838,1.1611383,0.6098639,5.813148
399,1747486642760,3.576903,0.95792466,0.04344219,1.1121361,0.83942837,5.2858424
400,1747486642770,2.9486997,1.2459122,-0.3141017,0.66206187,0.9129316,4.0037966
401,1747486642780,2.6529024,1.411139,-0.43759465,0.24714136,0.8000136,3.3262882
402,1747486642790,2.2782743,1.547567,-0.42465958,-0.21678132,0.76912093,2.6855316
403,1747486642800,1.9353739,1.6246891,-0.38805103,-0.68336713,0.84848315,2.1102889
404,1747486642810,1.4914337,1.582223,-0.119343996,-1.3448963,1.0423613,1.0045444
405,1747486642820,1.2393227,1.6146828,0.0043930304,-1.3944311,1.1350393,0.4708469
406,1747486642830,0.98428285,1.5717287,0.03636453,-1.3454291,1.1552793,0.018109497
407,1747486642840,0.8953239900000001,1.55171595,0.066017485,-1.25488155,1.05834023,-0.2338255515
408,1747486642850,0.496412455,1.43835145,0.12129645,-0.8926916,0.727043,-0.809601
409,1747486642860,0.40269446,1.3589108,0.06467517,-0.5113269,0.2657835,-1.216532
410,1747486642870,0.38097337,1.2942356,-0.0043930304,-0.4708469,0.16937704,-1.3677995
411,1747486642880,0.43295756,1.2097918,-0.037584815,-0.5134575,0.13156016,-1.5126755
412,1747486642890,0.50580868,1.17037655,-0.02001269375,-0.53929015,0.136087535,-1.58378195
413,1747486642900,0.7316837,1.0994779,0.03441207,-0.5523396,0.22264028,-1.8061559
414,1747486642910,0.93840015,1.0601847,-0.022697324,-0.44368264,0.2609898,-2.3052323
415,1747486642920,0.91106576,1.0945967,-0.05588911,-0.40533313,0.1635181,-2.7095
416,1747486642930,0.9440134,1.0867869,-0.17669745,-0.52144694,0.090014845,-3.0131006
417,1747486642940,1.1480453,1.0809295,-0.26968327,-0.642088145,0.0966727474999999,-3.2024513
418,1747486642950,1.3462198,1.087031,-0.27334413,-0.891093675,0.125434885,-3.6112465
419,1747486642960,1.5951582,0.9076489,-0.15107143,-1.4775218,0.37017938,-4.553473
420,1747486642970,1.7374434,0.8288184,0.036608588,-1.5164039,0.6045376,-4.7963533
421,1747486642980,1.8853422,0.7524285,0.24747404,-1.3289174,0.8245147,-4.98384
422,1747486642990,2.0534978,0.69312257,0.383658,-0.92944324,0.91612744,-5.1649346
423,1747486643000,2.2094502,0.6633476,0.4803047,-0.35100463,0.7616641,-5.3731937
424,1747486643010,2.3492949750000003,0.6604189125000001,0.43924206,0.1483380775,0.3368898999999999,-5.581186625
425,1747486643020,2.48913975,0.6574902250000001,0.3981794199999999,0.6476807849999999,-0.0878843,-5.78917955
426,1747486643030,2.9750578,0.73412424,0.036608588,1.7512947,-1.3981596,-6.401174
427,1747486643040,3.3470013,0.67042524,-0.24088451,1.4152038,-1.6223978,-6.562029
428,1747486643050,4.131401,0.6062382,-0.35437113,0.04314321,-1.1275824,-6.8374
429,1747486643060,4.131401,0.6062382,-0.35437113,0.04314321,-1.1275824,-6.8374
430,1747486643070,4.3918104,0.6279593,0.14399378,-0.8085357,0.0015978967,-7.2129054
431,1747486643080,4.377411,0.48689422,0.3909797,-0.8948221,0.44581318,-7.4014573
432,1747486643090,4.2607515,0.404890985,0.554864135,-0.75687038,0.50360379,-7.45179115
433,1747486643100,3.8268178,0.22209209,0.9003272,-0.3755057249999999,0.5320996,-7.4888092
434,1747486643110,3.1246648,0.035632357,0.8964222,0.3930826,0.37710363,-7.310377
435,1747486643120,3.0612102,-0.042465962,0.9061846,1.2133362,0.0010652645,-6.6493807
436,1747486643130,2.9264903,-0.10933765,0.8712844,1.5472966,-0.16884442,-6.4730797
437,1747486643140,2.565286,-0.11202228,0.80392456,1.9052255,-0.67058396,-5.9558935
438,1747486643150,2.3902967,-0.15863721,0.7353445,1.9355855,-0.7302388,-5.781723
439,1747486643160,2.1176848,-0.2638259,0.6452874,1.8455707,-0.54435015,-5.6320534
440,1747486643170,1.8067559,-0.3956168,0.5684093,1.6793894,-0.24607609,-5.4323163
441,1747486643180,1.4484798,-0.54156303,0.5432714,1.5132082,0.13315806,-5.148423
442,1747486643190,0.8510276,-0.86347455,0.55791485,1.4210628,0.7488809,-4.5348306
443,1747486643200,0.68921765,-0.936081625,0.531556675,1.43943865,0.82424835,-4.37797045
444,1747486643210,0.2723679,-1.0994779,0.4080637,1.4514228,0.9534117,-3.8738341
445,1747486643220,0.057109397,-1.1814811,0.32166746,1.4066817,0.928378,-3.507383
446,1747486643230,-0.22111587,-1.2410312,0.2272173,1.2692626,0.598146,-2.666357
447,1747486643240,-0.25308737,-1.2830089,0.16913168,1.1781825,0.48149952,-2.3473103
448,1747486643250,-0.27432033,-1.3440232,0.111046046,1.0551444,0.46711847,-2.0847225
449,1747486643260,-0.33069757,-1.3901501,0.027334413,0.87831056,0.49002165,-1.8578212
450,1747486643270,-0.48542987,-1.4568998,-0.0497876735,0.7558051299999999,0.5036037600000001,-1.72972315
451,1747486643280,-0.64016217,-1.5236495,-0.12690976,0.03888215,0.773382,-0.8213189
452,1747486643290,-0.66920495,-1.5404893,-0.13154685,-0.24554345,0.88470215,-0.39468047
453,1747486643300,-0.667740625,-1.5465908,-0.135939875,-0.36778255,0.898816875,-0.1861549575
454,1747486643310,-0.6367454,-1.564651,-0.1769415,-0.7259777,0.8825716,0.4213121
455,1747486643320,-0.575487,-1.5558649,-0.25406358,-1.0471549,0.8266452,0.87564737
456,1747486643330,-0.4685899,-1.5097381,-0.34607318,-1.6724652,0.7052051,1.5377092
457,1747486643340,-0.40171823,-1.4606826,-0.30873242,-1.9105518,0.545948,1.834918
458,1747486643350,-0.31703037,-1.428467,-0.25650415,-2.0240026,0.34408042,2.1198764
459,1747486643360,-0.23161033,-1.4133356,-0.18768002,-1.9904467,0.1438107,2.4048345
460,1747486643370,-0.22428861,-1.3467078,-0.16644704,-1.8098843,-0.049534798,2.7126958
461,1747486643380,-0.122760795,-1.2517697,-0.37999713,-1.4173343,-0.6423545,3.410977
462,1747486643390,-0.0541807085,-1.24066505,-0.511299935,-1.5542208,-1.000816,3.83655
463,1747486643400,0.148874924,-1.20442255,-0.7559673499999999,-1.74330525,-1.11266875,3.94067965
464,1747486643410,0.528628,-1.1019185,-0.9130182,-2.4090955,-1.3646038,4.112986
465,1747486643420,0.8947139,-0.9906283,-0.6648119,-3.2479913,-1.3475596,4.069843
466,1747486643430,1.018451,-0.90130347,-0.41416514,-3.3443978,-1.2665994,4.032026
467,1747486643440,0.99502134,-0.72607034,-0.093717985,-3.18301,-1.1978899,4.0256343
468,1747486643450,0.9225364,-0.5544981,0.12739788,-2.8320055,-1.2037488,4.182228
469,1747486643460,0.9066727,-0.42099872,0.26577836,-2.382464,-1.2362394,4.4730453
470,1747486643470,1.2322451,-0.23990828,0.4515059,-1.1163971,-1.1456919,5.050419
471,1747486643480,1.470933,-0.19597797,0.35363895,-0.6295713,-1.0849719,5.192099
472,1747486643490,1.5480552,-0.18768002,0.21306199,-0.2615224,-1.1270498,5.3897057
473,1747486643500,1.6859474,-0.2042759,0.06980037,-0.030360037,-1.3102753,5.7561564
474,1747486643510,1.956607,-0.12861817,-0.0053692595,0.11664646,-1.6426378,6.1849256
475,1747486643520,2.6714506,0.102748096,0.08712844,0.27217507,-2.0559604,7.074954
476,1747486643530,3.1659107,0.06369894,0.31703037,0.40852892,-1.6309199,7.43235
477,1747486643540,3.37897265,0.0799287499999999,0.3830478499999999,0.52490906,-1.2820458,7.527424999999999
478,1747486643550,3.6694007,0.113486615,0.500805465,0.9555422,-0.4426174,7.757788
479,1747486643560,3.8646467,0.0622346,0.53643787,1.3885722,-0.34887412,7.917578
480,1747486643570,4.247084,-0.058085624,0.28676724,1.8301244,-0.5917544,7.758321
481,1747486643580,4.1980286,0.025626011,0.14374973,1.8333201,-0.6130597,7.5314198
482,1747486643590,4.02426,0.059305906,-0.0102504045,1.6138756,-0.42663842,7.4051857
483,1747486643600,3.8961298,0.06638357,-0.11031388,1.2405005,-0.07882957,7.3322153
484,1747486643610,3.7609224,0.11006982,0.004881145,0.53742594,0.6327671,7.0477896
485,1747486643620,3.627667,0.11324256,0.090789296,0.3291667,0.90014845,6.823019
486,1747486643630,3.4521897,0.14545812,0.1986626,0.22956449,1.037035,6.5119615
487,1747486643640,3.414605,0.24283697,0.28432667,0.3110572,0.9667275,6.132195
488,1747486643650,3.4109442,0.43515408,0.27944556,0.52411014,0.7462177,5.5590825
489,1747486643660,2.9496758,0.8988628,0.016595893,0.8586032,0.004261058,4.2674494
490,1747486643670,2.5928643,1.0509106,-0.18865626,0.67324716,-0.28176245,3.7236319
491,1747486643680,2.2904773,1.1880707,-0.4139211,0.19760656,-0.27164245,3.2474587
492,1747486643690,2.1054819,1.2764194,-0.49958518,-0.50333744,-0.011717909,2.7451866
493,1747486643700,2.0099335,1.3020454,-0.44869925,-0.86099997,0.2117213054999999,2.48899045
494,1747486643710,1.6871678,1.3454876,-0.17303659,-2.0458405,1.5238608,1.180313
495,1747486643720,1.1983211,1.3952752,0.35119838,-1.9212044,1.8013622,0.7440872
496,1747486643730,0.9974619,1.4221216,0.4761557,-1.555286,1.8732675,0.31318775
497,1747486643740,0.8908089299999999,1.43822935,0.487504365,-1.30388365,1.80003055,0.09800433
498,1747486643750,0.68860753,1.4571437500000002,0.45711923,-0.78563255,1.55368815,-0.29774141
499,1747486643760,0.383658,1.4067459,0.2208718,0.35473305,0.3057309,-1.0002834
500,1747486643770,0.38463423,1.3547617,0.22209209,0.7238472,-0.06870956,-1.176052
501,1747486643780,0.411724585,1.33365075,0.2050080899999999,1.0391655,-0.22210763,-1.3321131
502,1747486643790,0.4672476049999999,1.2956999,0.1026260775,1.1353056,-0.1504686,-1.4319817
503,1747486643800,0.5442477,1.2551864,-0.20842488,1.2101405,0.14753912,-1.6777915
504,1747486643810,0.71728426,1.3269392,-0.605506,0.81545997,0.32756883,-2.0980384
505,1747486643820,0.84150934,1.3198615,-0.775858,0.4048005,0.2545982,-2.3995082
506,1747486643830,0.90630657,1.3293798,-0.8033144249999999,0.16112125,0.203731825,-2.56222735
507,1747486643840,1.0555476,1.3480502,-0.782203475,-0.31531827,0.10892329,-2.89512255
508,1747486643850,1.27239245,1.3340169,-0.65077865,-0.72730929,0.0386158355,-3.2605082000000003
509,1747486643860,1.7945529,1.2932593,-0.06662763,-1.0711234,-0.20719394,-4.405401
510,1747486643870,1.9356179,1.2183337,0.13960074,-0.91133374,-0.26684874,-4.860269
511,1747486643880,2.1428227,1.0931324,0.38463423,-0.66365975,-0.20240025,-5.1612062
512,1747486643890,2.5399036,0.9776934,0.456143,-0.34887412,-0.07137272,-5.461611
513,1747486643900,2.5399036,0.9776934,0.456143,-0.247407675,-0.02263687,-5.60915
514,1747486643910,3.0807345,0.9364477,0.26162934,-0.1635181,0.094808534,-6.530604
515,1747486643920,3.2244844,0.8993509,0.26553428,-0.24394555,0.00958738,-6.8986526
516,1747486643930,3.4385226,0.86298645,0.3487578,-0.2790993,-0.18642128,-7.186274
517,1747486643940,3.7334658,0.802216175,0.58207652,-0.102265395,-0.43542684,-7.455786
518,1747486643950,4.209255199999999,0.6889736,0.91277407,0.298274055,-0.73929352,-7.8395475
519,1747486643960,4.5293362,0.621735835,1.08959355,0.6745787,-0.79255677,-8.039817
520,1747486643970,4.809025999999999,0.6077025549999999,1.2195540500000002,0.9859022,-0.6727145,-8.277371
521,1747486643980,5.3050723,0.5098356,1.3176651,1.2319783,-0.20612867,-8.59189
522,1747486643990,5.320936,0.28871974,1.304486,1.3491575,0.2428803,-8.786834
523,1747486644000,5.176454,0.030507157,1.2913069,1.5494272,0.6087986,-8.912003
524,1747486644010,4.7095723,-0.20451997,1.2124764,1.7789917,0.7366304,-8.8614025
525,1747486644020,4.1770396,-0.36803833,1.1482893,2.0208068,0.6716492,-8.648882
526,1747486644030,3.0941577,-0.7643873,0.8676235,2.433064,0.6109292,-7.888816
527,1747486644040,2.8756045,-0.814175,0.81319875,2.45463565,0.6261091999999999,-7.6547242
528,1747486644050,2.50720025,-0.923634675,0.71472165,2.48472945,0.69428612,-7.2035847
529,1747486644060,2.0698495,-1.0448091,0.57402265,2.4570324,0.87032104,-6.6238146
530,1747486644070,1.7511108,-1.0596966,0.48640612,2.382464,0.9896307,-6.267483
531,1747486644080,1.1011863,-1.1114367,0.35607952,2.2285333,1.1424961,-5.495167
532,1747486644090,0.8539563,-1.1221752,0.29726174,2.167813,1.2085425,-5.070126
533,1747486644100,0.7593841,-1.146825,0.26590037,2.1427793,1.22159205,-4.85174675
534,1747486644110,0.47981656,-1.2532339,0.13276714,2.0410466,1.252751,-4.0762343
535,1747486644120,0.06467517,-1.3281596,-0.08590815,1.9158782,1.2495552,-3.6128445
536,1747486644130,-0.073949344,-1.3249868,-0.12861817,1.514806,1.113734,-2.692456
537,1747486644140,-0.122760795,-1.3066825,-0.14497001,1.2905679,0.9912286,-2.2684808
538,1747486644150,-0.15400012,-1.3061944,-0.16107778,1.0460896,0.9321064,-1.8881812
539,1747486644160,-0.2169669,-1.3008251,-0.17084008,0.7771104,0.99762017,-1.5201324
540,1747486644170,-0.34949,-1.2981404,-0.15692882,0.4841627,1.1163971,-1.1696603
541,1747486644180,-0.37828874,-1.30924505,-0.153512015,-0.0015978967,1.2293152,-0.5763081
542,1747486644190,-0.48054874,-1.3332847,-0.13593988,-0.11132013835,1.2050804,-0.396278395
543,1747486644200,-0.50593066,-1.3559821,-0.1342315,-0.3637878,1.0934939,0.05539375
544,1747486644210,-0.45004156,-1.394055,-0.19158493,-0.4825648,0.95607483,0.2977414
545,1747486644220,-0.44369608,-1.4182167,-0.26797485,-0.8085357,0.7163904,0.70680296
546,1747486644230,-0.5271637,-1.4392056,-0.3121492,-1.0578076,0.65726817,0.9832391
547,1747486644240,-0.56426037,-1.4527508,-0.309708625,-1.1872372,0.640490265,1.180313
548,1747486644250,-0.626495,-1.4716653,-0.26162934,-1.5446335,0.5752428,1.8216022
549,1747486644260,-0.49446,-1.441158,-0.030751213,-1.6666062,0.49481535,2.263687
550,1747486644270,-0.35193056,-1.3718457,0.007565775,-1.4413028,0.21092236,3.160107
551,1747486644280,-0.1466784,-1.283497,-0.05198419,-1.2591426,-0.07563378,3.439739
552,1747486644290,0.10030753,-1.2000295,-0.17645338,-1.109473,-0.40107206,3.57556
553,1747486644300,0.24820623,-1.1070436,-0.3014107,-1.0668624,-0.5536712,3.5979306
554,1747486644310,0.28213018,-1.0006347,-0.60989904,-1.2681973,-1.0029465,3.8216362
555,1747486644320,0.30555966,-0.9523114,-0.605506,-1.5190672,-1.0199907,4.012851
556,1747486644330,0.3699908,-0.9283937,-0.5210622,-1.717739,-0.93849796,4.1982074
557,1747486644340,0.397935365,-0.92473285,-0.469810175,-1.7760622,-0.864462105,4.2956792
558,1747486644350,0.50788313,-0.9237567,-0.31385764,-1.8546255,-0.7036072,4.688229
559,1747486644360,0.7473033,-0.77756643,-0.23185438,-1.5760587,-1.144094,5.075985
560,1747486644370,1.01479,-0.6572462,-0.25284332,-1.4322481,-1.6021577,5.268798
561,1747486644380,1.2515256,-0.46102414,-0.28505886,-1.3528858,-1.995773,5.407815
562,1747486644390,1.36013105,-0.35790995,-0.24247087,-1.3571469,-2.0791299,5.4690678
563,1747486644400,1.637136,-0.19793043,-0.026114125,-1.3518206,-1.897236,5.7657437
564,1747486644410,1.8013865,-0.23014598,0.11299851,-1.2708606,-1.2516857,6.0981064
565,1747486644420,2.2873044,-0.3031191,0.29189247,-0.69721556,-0.6359629,6.8198233
566,1747486644430,2.7812765,-0.17376876,0.32459614,-0.15233281,-1.0945592,6.967895
567,1747486644440,3.1090453,0.054668825,0.18841219,0.3930826,-1.6468989,7.086672
568,1747486644450,3.372383,0.25479576,-0.07736614,0.65460503,-1.9590213,7.2869415
569,1747486644460,4.1721587,0.7082541,-0.5112999,0.15286545,-1.1052119,7.5809546
570,1747486644470,4.5462985,0.81271064,-0.5100796,-0.3291667,-0.18269286,7.4882765
571,1747486644480,4.530191,0.80368054,-0.36413342,-0.7414241,0.5629923,7.3391395
572,1747486644490,4.42292765,0.77890872,-0.25272128,-0.8426241999999999,0.7432883,7.29093625
573,1747486644500,4.139455,0.67579454,0.022941383,-0.96086854,0.93849796,7.248592
574,1747486644510,4.2134042,0.67969945,0.17755165,-0.723847195,0.554203825,6.628608
575,1747486644520,4.1433597,0.72485006,0.14179726,-0.48682585,0.16990969,6.008624
576,1747486644530,3.8485386,0.7556012,0.031483386,-0.58696073,0.21571605,5.455752
577,1747486644540,3.4172897,0.7909895,0.06931226,-0.7621967,0.33768883,5.065865
578,1747486644550,3.0045888,0.78659654,0.2111095,-0.908138,0.43569317,4.789962
579,1747486644560,2.557476,0.76804817,0.8293065,-0.5070659,0.479369,4.2615905
580,1747486644570,2.2821794,0.82711005,0.9664667,0.092145376,0.45593318,4.021906
581,1747486644580,2.0217702,0.878362,0.861278,0.6743124,0.386691,3.814712
582,1747486644590,1.83287,0.95426387,0.63406074,1.1893678,0.22903186,3.5137749
583,1747486644600,1.7711234,1.0804414,0.43808278,1.4498249,0.011185277,3.1462586
584,1747486644610,1.4233419,1.3625716,0.117147475,1.6708673,-0.29241508,2.0660803
585,1747486644620,1.138771,1.4589742,-0.1010397,1.5132082,-0.24181503,1.5701998
586,1747486644630,0.8988628,1.445063,-0.24771811,1.2303804,-0.12037488,1.1462245
587,1747486644640,0.60184515,1.4658079,-0.34558508,0.7771104,0.18642128,0.47191215
588,1747486644650,0.5112999,1.4997318,-0.48957884,0.51452273,0.28549087,0.16564862
589,1747486644660,0.45077375,1.4948506,-0.6460195,0.017576864,0.30679616,-0.21358553
590,1747486644670,0.3738957,1.4682485,-0.69312257,-0.45912898,0.20612867,-0.51718587
591,1747486644680,0.353883,1.4016209,-0.5198419,-0.8202536,0.036218993,-0.78936094
592,1747486644690,0.38792898,1.3412167,-0.26065312175,-0.84688523,-0.1621865035,-1.04129597
593,1747486644700,0.4471129,1.2507933,0.20671648,-0.62051654,-0.51931643,-1.530785
594,1747486644710,0.49812084,1.2346857,0.25479576,-0.32650355,-0.5608617,-1.7278589
595,1747486644720,0.5806122,1.227364,0.12202863,-0.15978967,-0.4777711,-1.9190739
596,1747486644730,0.83760446,1.2991167,-0.08175918,-0.16724652,-0.18588865,-2.3675501
597,1747486644740,1.0924002,1.3318204,-0.16693515,-0.23329292,-0.08575379,-2.7611654
598,1747486644750,1.376971,1.3615954,-0.21965154,-0.29933932,-0.09960223,-3.1766186
599,1747486644760,1.6149268,1.3823403,-0.25259924,-0.3387541,-0.120907515,-3.653857
600,1747486644770,1.7855228,1.3352373,-0.32117933,-0.4165184,-0.17736652,-4.1039314
601,1747486644780,2.0964518,1.1482893,-0.23868799,-0.6061355,-0.38935417,-4.788364
602,1747486644790,2.2140872,1.0335824,-0.10836142,-0.56725335,-0.39148468,-5.0056777
603,1747486644800,2.3885884,0.95328766,-0.03099527,-0.513990125,-0.362189905,-5.082376699999999
604,1747486644810,2.8998883,0.9930689,-0.03807293,-0.350472,-0.3637878,-5.383314
605,1747486644820,2.8998883,0.9930689,-0.03807293,-0.24820662,-0.5411543,-5.781723
606,1747486644830,3.4351056,0.946454,-0.34265637,-0.48149952,-0.9193232,-6.491189
607,1747486644840,3.6589062,0.84004503,-0.36901456,-0.76752305,-0.99495703,-6.755907
608,1747486644850,3.7462788,0.75194037,-0.31434575,-0.98430437,-0.94808537,-6.893859
609,1747486644860,4.196564,0.609655,-0.0873725,-1.0407634,-0.8900285,-7.1362066
610,1747486644870,4.4093823,0.63162017,0.2806658,-0.89855057,-0.85594,-7.3173018
611,1747486644880,4.437205,0.3995217,0.50715095,-0.5486112,-0.34621096,-7.6390114
612,1747486644890,4.35300525,0.342046225,0.5311906049999999,-0.25885928,-0.14008227,-7.7103844
613,1747486644900,4.0906434,0.19329333,0.5271637,0.076166406,0.080960095,-7.6246305
614,1747486644910,3.9864311,0.07687803,0.5186216,0.33289513,0.10013486,-7.5260935
615,1747486644920,3.6039932,0.0017084008,0.36803833,0.6556703,0.022903185,-7.1702952
616,1747486644930,3.3516383,-0.07541369,0.30507156,0.6812366,0.112918034,-6.9886675
617,1747486644940,3.1864115,-0.10470056,0.301410705,0.67218185,0.189883387,-6.87441775
618,1747486644950,2.89146835,-0.16949776,0.323985995,0.66685553,0.3139866999999999,-6.6357985
619,1747486644960,2.4781573,-0.3526627,0.43881494,0.8831042,0.561927,-5.925534
620,1747486644970,1.9104803,-0.44491637,0.4327135,1.000816,0.74781567,-5.5777245
621,1747486644980,1.6039442,-0.5764632,0.4876264,1.2303804,0.9422264,-5.2448297
622,1747486644990,1.2886223,-0.67506236,0.48176903,1.490305,0.9960223,-5.0141997
623,1747486645000,0.9772052,-0.7987994,0.38170552,1.685781,0.9917612,-4.7500143
624,1747486645010,0.4131889,-1.0113733,0.088836834,1.6809874,1.1249193,-4.093279
625,1747486645020,0.15204766,-1.0628693,-0.11006982,1.4524881,1.2271847,-3.7033918
626,1747486645030,-0.013179091,-1.0682385,-0.24771811,1.0796455,1.2665994,-3.2538502
627,1747486645040,-0.0993313,-1.0333383,-0.31825066,0.6215818,1.2863069,-2.7856665
628,1747486645050,-0.07858644,-0.9942892,-0.3109289,0.14807177,1.3187973,-2.3819313
629,1747486645060,0.056133166,-1.0679946,-0.054668825,-0.5837649,1.5749935,-1.8269285
630,1747486645070,0.034900185,-1.1607363,0.12129646,-0.62104917,1.7353158,-1.6698021
631,1747486645080,-0.07028849,-1.2932593,0.25821257,-0.4745753,1.8237327,-1.5153387
632,1747486645090,-0.14570218,-1.35134495,0.30592576,-0.32011196,1.7662084500000002,-1.42718805
633,1747486645100,-0.43832684,-1.5068095,0.3572998,0.25033715,1.4370418,-1.1041466
634,1747486645110,-0.6238103,-1.5829554,0.2545517,0.6460829,1.109473,-0.77231675
635,1747486645120,-0.8563969,-1.63481745,-0.25198911,1.0306433,0.6801714,0.16831179
636,1747486645130,-0.8534682,-1.632987,-0.35827604,0.9347696,0.6109292,0.67058396
637,1747486645140,-0.82125265,-1.6222485,-0.4527262,0.77071885,0.6061354999999999,0.95048218
638,1747486645150,-0.7438865,-1.5939379,-0.6823841,0.21944448,0.5837649,1.6197346
639,1747486645160,-0.66993713,-1.5529363,-0.77073276,-0.70627034,0.34621096,2.3467777
640,1747486645170,-0.6191732,-1.5029045,-0.73558855,-1.1568772,0.15659387,2.6695528
641,1747486645180,-0.5332651,-1.4655638,-0.6440671,-1.572863,0.007456851,2.9928606
642,1747486645190,-0.41611758,-1.4548253,-0.5125202,-1.9110844,-0.08841695,3.3225598
643,1747486645200,-0.24820623,-1.4306636,-0.336799,-2.086853,-0.21092236,3.6112466
644,1747486645210,0.062478654,-1.3279155,-0.054668825,-1.6996294,-0.624245,4.036287
645,1747486645220,0.100063467,-1.30192345,-0.0384390165,-1.5289208,-0.76539252,4.1310955
646,1747486645230,0.2037878,-1.2241911,-0.059549972,-1.0274476,-1.2623384,4.47198
647,1747486645240,0.25259924,-1.1297411,-0.15058333,-0.77125144,-1.5622103,4.7569385
648,1747486645250,0.3133695,-1.0269929,-0.28237423,-0.67697555,-1.7443706,5.088236
649,1747486645260,0.6450433,-0.7268025,-0.4166057,-0.8900285,-1.8498317,5.8749332
650,1747486645270,1.2282180500000002,-0.51984191,-0.39671505,-1.0950918,-1.8370485,6.2893214
651,1747486645280,1.5038807,-0.47127452,-0.3785328,-1.3448963,-1.7656758,6.5833344
652,1747486645290,1.82017885,-0.3860985449999999,-0.325572375,-1.4269217,-1.70708625,6.567888
653,1747486645300,2.3236691,-0.18792407,-0.157783013,-1.4935007,-1.3693974,6.1673484
654,1747486645310,2.4230003,0.010982576,0.29213652,-1.0327739,-0.65034395,5.978797
655,1747486645320,2.3100019,0.030751213,0.33069757,-0.7419567,-0.37444046,6.31542
656,1747486645330,2.4164107,-0.020256752,0.3243521,-0.44687843,-0.26365295,6.780941
657,1747486645340,2.7639482,-0.038561042,0.2613853,-0.1304949,-0.257794,7.1798825
658,1747486645350,3.3460248,-0.0053692595,0.10982577,0.43516052,-0.17470337,7.5404744
659,1747486645360,3.5310202,-0.016351834,0.03636453,0.5795039,0.076166406,7.5559206
660,1747486645370,3.5583546,-0.021965152,0.0043930304,0.6625945,0.5475459,7.6384788
661,1747486645380,3.6911218,-0.09127741,0.010494461,0.6743124,0.7275756,7.708786
662,1747486645390,3.8792899,-0.05296042,0.14692247,0.8127968,0.608266,7.6459355
663,1747486645400,3.8617177,-0.044418417,0.16815543,0.8740495,0.5832323,7.639544
664,1747486645410,3.8463423,-0.034900185,0.18011424,0.86606,0.6828345,7.6544576
665,1747486645420,3.8922248,0.05515694,0.2328306,0.84368944,0.7803062,7.6576533
666,1747486645430,4.007176,0.19548985,0.2613853,0.93636745,0.9166601,7.5287566
667,1747486645440,4.013766,0.4471129,0.16229807,1.532383,0.783502,6.774017
668,1747486645450,3.93481325,0.5181335499999999,0.0744374602499999,1.7014937,0.60320599,6.4131585
669,1747486645460,3.5610392,0.75438094,-0.21477039,1.9286613,0.255130835,5.74577025
670,1747486645470,3.3265002,0.90447617,-0.4075756,1.9004318,-0.1768339,4.819789
671,1747486645480,2.7505252,1.21028,-0.72338563,1.005077,-0.120907515,3.5563853
672,1747486645490,2.60043,1.2841073,-0.732293765,0.33502567,0.19547603,2.9774141
673,1747486645500,2.3252555,1.4097967,-0.705325465,0.007456855,0.386158365,2.69218955
674,1747486645510,1.9544104,1.5246257,-0.52472305,-0.8580705,0.89322424,1.8381138
675,1747486645520,1.6996148,1.5609902,-0.37072295,-1.2452941,1.1366372,1.2857742
676,1747486645530,1.1460928,1.581735,0.12568948,-1.2825783,1.2692626,0.1736381
677,1747486645540,1.03321635,1.57905035,0.215136455,-1.092162315,1.21706465,-0.02157161
678,1747486645550,0.7856203,1.5453705,0.39830142,-0.38296258,0.9321064,-0.56245965
679,1747486645560,0.72655845,1.5177921,0.42417148,0.21784659,0.52624065,-0.90920323
680,1747486645570,0.6987359,1.4079663,0.0959145,0.799481,0.05539375,-1.2602079
681,1747486645580,0.6958072,1.3564702,-0.1615659,1.2996227,-0.58909124,-1.8684739
682,1747486645590,0.7108167299999999,1.3244987,-0.26675457,1.23117945,-0.60560282,-1.99044665
683,1747486645600,0.746937215,1.2677554,-0.42966278,1.0229202000000002,-0.5621932999999999,-2.2370553
684,1747486645610,0.7997756,1.1768441,-0.536926,0.4596616,-0.27856666,-2.6509106
685,1747486645620,0.8854397,1.006004,-0.46883395,-0.11984225,-0.11771172,-3.0812774
686,1747486645630,0.9153367,0.96268385,-0.428686545,-0.2695119,-0.18482338,-3.2591765
687,1747486645640,1.0014889,0.89324955,-0.336554945,-0.276436115,-0.27084349,-3.3654367
688,1747486645650,1.1713527,0.86225425,-0.2213599249999999,-0.22956448,-0.53476275,-3.61044755
689,1747486645660,1.4489679,0.8571291,-0.065407336,0.02130529,-1.1435614,-4.0762343
690,1747486645670,1.6864356,0.6723777,-0.1261776,0.3121225,-1.6064188,-4.6615973
691,1747486645680,1.8043152,0.6020892,-0.21525851,0.3009372,-1.623463,-4.9034123
692,1747486645690,1.9312251,0.48494175,-0.42368335,0.10066749,-1.4375744,-5.215002
693,1747486645700,2.0051744,0.3699908,-0.62014943,-0.23329292,-1.1829761,-5.4040866
694,1747486645710,2.1989558,0.25992095,-0.4795725,-0.8335694,-0.8772453,-5.590508
695,1747486645720,2.293406,0.22965786,-0.27261195,-0.8580705,-0.7552725,-5.594769
696,1747486645730,2.4744964,0.23893206,-0.06833603,-0.7222493,-0.6625945,-5.5462995
697,1747486645740,2.6181242,0.271269645,0.0129350324999999,-0.595216515,-0.67511135,-5.55588675
698,1747486645750,2.92124325,0.328745115,0.1558305525,-0.290817195,-0.765925135,-5.64776585
699,1747486645760,3.3013625,0.28261828,0.15155955,0.5587312,-1.1446266,-6.2025023
700,1747486645770,3.2591405,0.25699228,0.11665936,0.6423545,-1.2128036,-6.1891866
701,1747486645780,3.3169823,0.2421048,0.17645338,0.71159667,-1.252751,-6.175871
702,1747486645790,3.3731153,0.2630937,0.19671014,0.7504788,-1.2905679,-6.2019696
703,1747486645800,3.3789728,0.32410803,0.14765464,0.6791061,-1.3134711,-6.1934476
704,1747486645810,3.486358,0.4978768,0.13032657,0.15073492,-1.1632688,-6.1875887
705,1747486645820,3.4136286,0.5503491,0.23331872,-0.15233281,-0.91346425,-6.155098
706,1747486645830,3.3084402,0.5730464,0.39244407,-0.37710363,-0.5768407,-6.0645504
707,1747486645840,3.2620692,0.561453675,0.482257135,-0.418116305,-0.38722363,-6.0147492
708,1747486645850,3.0277743,0.48054874,0.75096416,-0.2908172,0.23702134,-5.83978
709,1747486645860,2.426173,0.34119204,0.83882475,0.3435478,0.6450176,-5.626194
710,1747486645870,2.1052377,0.25674823,0.76853627,0.6609966,0.6562029,-5.4696
711,1747486645880,1.8440965,0.15204766,0.6211257,0.88470215,0.509729,-5.3140717
712,1747486645890,1.71254965,0.0698003705,0.52216047,0.938231675,0.4335626099999999,-5.27492335
713,1747486645900,1.3015573,-0.14960709,0.31873876,0.9997507,0.21571605,-5.181446
714,1747486645910,0.7475473,-0.44027928,0.15717287,0.84688526,0.2130529,-4.889564
715,1747486645920,0.4829893,-0.5217944,0.119343996,0.7238472,0.39254996,-4.6221824
716,1747486645930,0.19744232,-0.5964759,0.0690682,0.6450176,0.561927,-4.334561
717,1747486645940,0.0917655285,-0.63674535,0.070532545,0.58429754,0.6785734,-3.983024
718,1747486645950,-0.19109683,-0.7167961,0.06980037,0.5470133,0.77444726,-3.593137
719,1747486645960,-0.4170938,-0.7917217,-0.009518232,0.39840892,0.91612744,-2.7824707
720,1747486645970,-0.485918,-0.8288184,-0.07834238,0.25726137,0.9757822,-2.360626
721,1747486645980,-0.46883395,-0.86274236,-0.122272685,0.070307456,0.9917612,-1.959554
722,1747486645990,-0.37926495,-0.91863143,-0.13838045,-0.030626352,0.973119075,-1.7955033
723,1747486646000,-0.344730855,-0.967320915,-0.1416752299999999,-0.23249398,0.953944325,-1.5038871500000002
724,1747486646010,-0.24552159,-1.201982,-0.13374338,-0.773382,0.9443569,-0.96619487
725,1747486646020,-0.23575929,-1.3015573,-0.13667206,-0.9528791,0.90014845,-0.8479505
726,1747486646030,-0.25479576,-1.3921026,-0.15668476,-1.1313108,0.84209156,-0.7669904
727,1747486646040,-0.2843267,-1.42444015,-0.165958935,-1.3092101,0.76059884,-0.70627034
728,1747486646050,-0.4497975,-1.5209647,-0.1889003,-1.4695324,0.6785734,-0.5784386
729,1747486646060,-0.7568215,-1.602724,-0.14789869,-1.6761936,0.55553544,0.056459017
730,1747486646070,-0.8991069,-1.6193199,-0.11251039,-1.7038904,0.5320996,0.58429754
731,1747486646080,-0.94865054,-1.6276178,-0.08078295,-1.6698021,0.5390238,1.3986923
732,1747486646090,-0.85542065,-1.6188318,-0.06613952,-1.6322515000000002,0.54967645,1.7190705
733,1747486646100,-0.49885303,-1.4992436,-0.11861181,-1.3683321,0.39574575,3.0099046
734,1747486646110,-0.2135501,-1.4233419,-0.19426957,-1.2495552,0.112918034,3.2740903
735,1747486646120,0.021477038,-1.3508569,-0.2716357,-1.1185277,-0.24873926,3.4072483
736,1747486646130,0.23527117,-1.1919756,-0.41587353,-0.96299905,-0.9044095,3.6288233
737,1747486646140,0.268463,-1.1024066,-0.4656612,-0.9619338,-1.1371698,3.769971
738,1747486646150,0.25748038,-1.0694588,-0.5349735,-1.0524813,-1.2591426,3.9910133
739,1747486646160,0.24186075,-1.0987457,-0.5374141,-1.2692626,-1.1781825,4.4554687
740,1747486646170,0.39293218,-1.1187584,-0.4195344,-1.3752564,-1.0657971,4.891162
741,1747486646180,0.63503699,-1.0697029,-0.27749309,-1.241832,-1.12145715,5.2773202
742,1747486646190,1.07311975,-0.9639041,-0.104700562,-0.9970875,-1.29722575,5.814213199999999
743,1747486646200,1.6346955,-0.69214636,-0.07224095,-0.6711166,-1.6357136,6.167881
744,1747486646210,2.19614925,-0.35437113,-0.19024263,-0.55979645,-1.7976338,6.3340626
745,1747486646220,2.50549175,-0.1864597399999999,-0.28749944,-0.6130597,-1.875398,6.449111
746,1747486646230,2.6328895,-0.11006982,-0.328257,-0.79202414,-1.7773937,6.502907
747,1747486646240,2.6328895,-0.11006982,-0.328257,-0.79202414,-1.7773937,6.502907
748,1747486646250,2.7942114,-0.03965930205,0.06931226,-1.012800215,-0.389886788,7.04486
749,1747486646260,3.0121546,-0.14936304,0.40196228,-0.47404268,0.12836437,7.594803
750,1747486646270,3.5869095,-0.16303024,0.5359497,0.99762017,-0.64555025,8.212124
751,1747486646280,4.0018067,-0.065407336,0.45516676,1.6996294,-1.1126688,8.434764
752,1747486646290,4.3569098,0.033679903,0.25137895,1.9236013,-1.1717909,8.482434999999999
753,1747486646300,4.6429453,0.16815543,-0.08639627,2.1758027,-0.9171927,8.459265
754,1747486646310,4.740568,0.30946457,-0.4075756,1.736381,-0.32330775,8.26006
755,1747486646320,4.495046,0.43491003,-0.50031734,-0.07989483,1.0338391,7.6358156
756,1747486646330,4.3491,0.409284,-0.23405088,-0.6940198,1.3544837,7.3476615
757,1747486646340,4.2692932500000005,0.42295121,-0.07809831,-0.8426241999999999,1.4242586,7.1529844
758,1747486646350,3.9195592,0.49421594,0.3275248,-0.99868545,1.49696295,6.74205875
759,1747486646360,3.3745794,0.62356627,0.54888475,-0.8607337,1.4146712,6.111422
760,1747486646370,3.273784,0.7492558,0.6025773,-0.32650355,1.0178602,5.148956
761,1747486646380,3.103432,0.9359596,0.6406503,0.10918961,0.77125144,4.450675
762,1747486646390,2.7336853,1.095573,0.5762192,0.6018744,0.5864281,3.7715688
763,1747486646400,2.51501,1.13803895,0.48457569,0.819721,0.476972175,3.4495926
764,1747486646410,1.5356082,1.2883781,-0.13935669,0.96992326,0.19121496,2.420281
765,1747486646420,1.326207,1.3154685,-0.2809099,0.64768076,0.22743396,2.0932446
766,1747486646430,1.1412116,1.334261,-0.32410803,0.267914,0.37923414,1.7454358
767,1747486646440,0.9376679,1.3457316,-0.27017137,0.0950748499999999,0.48629322,1.582184
768,1747486646450,0.71215904,1.3606192,-0.17962612,-0.330232,0.8213189,1.1329087
769,1747486646460,0.54839665,1.3393861,-0.08615221,-0.43675843,1.099353,0.5656554
770,1747486646470,0.507395,1.308391,-0.056377225,-0.33076462,0.99708754,0.25353295
771,1747486646480,0.4795725,1.2632403,-0.018060237,-0.103863284,0.6892261,-0.12144015
772,1747486646490,0.46956615,1.2504273,0.0012202859999999,0.0130494929999999,0.56645437,-0.253266625
773,1747486646500,0.4356422,1.2176017,0.01952458,0.35633096,0.26738137,-0.5944176
774,1747486646510,0.5779276,1.2088156,-0.24454537,0.44528055,0.09427591,-0.9965549
775,1747486646520,0.6557818,1.2266316,-0.36852646,0.34887412,0.036218993,-1.2442288
776,1747486646530,0.71777236,1.23615,-0.43320164,0.19014971,0.0005326322,-1.4721955
777,1747486646540,0.77671218,1.244814,-0.4250257,0.115581196,-0.0178431804,-1.58804295
778,1747486646550,1.2495731,1.2771516,-0.29506522,-0.00958738,-0.06870956,-2.020274
779,1747486646560,1.3589108,1.3018013,-0.29482117,0.19600865,-0.2514024,-2.932673
780,1747486646570,1.4445748,1.2978964,-0.44686884,0.15765914,-0.3153183,-3.2565134
781,1747486646580,1.5511058,1.26677915,-0.53607177,0.033289513,-0.32197619,-3.41417255
782,1747486646590,1.9490411,1.1582958,-0.6733539,-0.43356264,-0.3073288,-3.955327
783,1747486646600,2.2580175,1.1111927,-0.50324607,-0.6599313,-0.38456047,-4.386226
784,1747486646610,2.7468643,0.96768695,-0.06418706,-0.6199839,-0.7355651,-5.258678
785,1747486646620,2.869625,0.8778739,0.117879644,-0.4032026,-0.8383631,-5.6677394
786,1747486646630,3.0092258,0.78537625,0.22599702,-0.1304949,-0.81066626,-6.0107546
787,1747486646640,3.1168551,0.74339837,0.277005,0.2263687,-0.66632295,-6.3500414
788,1747486646650,3.1346714,0.6489482,0.2633378,0.42344263,-0.42237735,-6.491189
789,1747486646660,3.581296,0.496046365,0.70142048,1.08230865,-0.29481194,-6.658169
790,1747486646670,3.700396,0.4927516,0.83174706,1.2953615,-0.38029942,-6.698383
791,1747486646680,3.93884,0.39830142,0.9628058,1.7789917,-0.59867865,-6.7788105
792,1747486646690,4.047201,0.29433304,0.8937377,2.1827269,-0.7909589,-6.8592377
793,1747486646700,4.0403676,0.19231711,0.74291027,2.3989756,-1.0530139,-6.923154
794,1747486646710,3.9786215,0.18816814,0.3922,2.218413,-1.5222629,-6.990798
795,1747486646720,3.9676387,0.16303024,0.2774931,1.7022926,-1.5595472,-7.032876
796,1747486646730,3.849515,0.22209209,0.35949633,1.2724584,-1.4935007,-6.950318
797,1747486646740,3.8013138,0.26590036,0.4709084799999999,1.10787503,-1.48204915,-6.8360685
798,1747486646750,3.8002152,0.3909797,0.88788027,0.7866978,-1.4535533,-6.486928
799,1747486646760,3.8346276,0.29140437,1.0731196,0.7387609,-1.0242518,-6.494385
800,1747486646770,3.547372,0.119343996,0.9652464,0.6151902,-0.71479243,-6.5694857
801,1747486646780,3.11295,-0.07150877,0.79513854,0.35313517,-0.39840892,-6.568953
802,1747486646790,2.618246,-0.26626647,0.6042857,-0.04580637,-0.090014845,-6.489591
803,1747486646800,2.1416023,-0.47151858,0.4600479,-0.6498113,0.29880667,-6.3021045
804,1747486646810,1.3791674,-0.8473667,0.4463807,-1.4056164,0.86659265,-5.8983693
805,1747486646820,1.1377949,-0.9652464,0.4881145,-1.5851135,1.0173275,-5.7028933
806,1747486646830,0.92863786,-1.0584763,0.5603554,-1.5994946,1.0594054,-5.517537
807,1747486646840,0.54668826,-1.261776,0.6999562,-1.061269725,1.18484035,-4.86532915
808,1747486646850,0.2720017999999999,-1.29447965,0.720457,-0.67883979,1.2998889500000002,-4.5279068
809,1747486646860,0.19304928,-1.2886223,0.7043492,-0.46818373,1.3502227,-4.3542686
810,1747486646870,0.13960074,-1.313028,0.59281504,-0.056991648,1.3443637,-4.034689
811,1747486646880,0.045882765,-1.329868,0.22697324,0.608266,0.9779128,-3.4946
812,1747486646890,0.040757561,-1.32449875,0.122638767,0.6492786749999999,0.8689895000000001,-3.39579675
813,1747486646900,0.02062283665,-1.3176651,-0.103236218,0.62877235,0.7001450499999999,-3.2186966000000004
814,1747486646910,-0.00671157435,-1.3842927,-0.4537024,0.30519825,0.63649553,-3.0242858
815,1747486646920,-0.1683995,-1.56452905,-0.55986732,-0.3302319675,0.85860315,-2.67381385
816,1747486646930,-0.31727442,-1.7025435,-0.60843474,-0.6450176,0.9715212,-2.4309335
817,1747486646940,-0.41892426,-1.7382978,-0.5965979699999999,-0.7520766999999999,0.9712549,-2.2056301
818,1747486646950,-0.66700846,-1.7969936,-0.5530337,-0.99548966,0.8314389,-1.4322481
819,1747486646960,-0.7670719,-1.7967494,-0.48445365,-1.0471549,0.50173956,-0.69987875
820,1747486646970,-0.82906246,-1.7623373,-0.46200037,-1.0434265,0.24927188,-0.084155895
821,1747486646980,-0.7214332,-1.6532438,-0.5696296,-1.2511531,-0.017576864,1.0588728
822,1747486646990,-0.5620638,-1.5570853,-0.6399181,-1.4801849,-0.15020229,1.4556838
823,1747486647000,-0.43466598,-1.449456,-0.60770255,-1.6921726,-0.31691617,1.7811222
824,1747486647010,-0.3829258,-1.3894179,-0.52301466,-1.8024274,-0.4463458,2.1230721
825,1747486647020,-0.33069757,-1.3288918,-0.40318257,-1.780057,-0.5768407,2.503904
826,1747486647030,-0.13154685,-1.2132086,-0.16742326,-1.2458268,-0.8447547,3.2996566
827,1747486647040,-0.0911553775,-1.1867284,-0.143139573,-0.87990844,-0.86872315,3.6208339
828,1747486647050,-0.020256752,-1.1294969,-0.21037734,-0.6040049,-0.81918836,3.9707732
829,1747486647060,0.012690976,-1.0618931,-0.3316738,-0.46179214,-0.86659265,4.363323
830,1747486647070,0.0924977,-0.97500867,-0.39342028,-0.3920173,-1.0812434,4.7872987
831,1747486647080,0.5532778,-0.575487,-0.4978768,-0.5091964,-1.7518274,5.6826534
832,1747486647090,0.692146365,-0.45724126,-0.477986115,-0.6010754700000001,-1.86501175,5.8823905
833,1747486647100,1.2324891,-0.17352471,-0.35754386,-0.87564737,-2.0266657,6.3718796
834,1747486647110,1.6678872,-0.07004443,-0.29091623,-1.0279802,-1.8956381,6.4267406
835,1747486647120,2.041783,-0.04759116,-0.18206671,-1.3081448,-1.2634037,6.094378
836,1747486647130,1.9280523,-0.1164153,-0.11324256,-1.3161342,-1.0258497,6.134858
837,1747486647140,1.8172503,-0.127397875,-0.075901801,-1.2847089,-1.012533875,6.3830647
838,1747486647150,1.9322013,0.007321717,0.058573738,-1.1595404,-1.4109428,7.476026
839,1747486647160,3.6183927,0.48152497,0.41929033,-0.96299905,-2.052232,8.137023
840,1747486647170,4.2219462,0.6936107,0.56694496,-0.18961707,-2.6493127,7.9442096
841,1747486647180,4.3127356,0.8171036,0.6369894,0.19600865,-2.3292007,7.460047
842,1747486647190,4.1889988,0.8080735,0.6207596,0.3520699,-2.0647488,7.275756250000001
843,1747486647200,3.7104023,0.69385475,0.5015376,0.7653925,-1.3401027,6.8789454
844,1747486647210,3.222776,0.3734076,0.29555333,0.9139969,-1.1520835,6.992396
845,1747486647220,3.3418758,0.35095432,0.12544543,0.90281165,-1.1121361,7.0595074
846,1747486647230,3.3718948,0.43588626,0.01513155,0.6711166,-1.0285128,7.0712256
847,1747486647240,3.36835595,0.4689560299999999,-0.0319715,0.47297742,-0.8945558199999999,7.0672307
848,1747486647250,3.337239,0.55767083,0.061746486,-0.15126756,-0.2876214,6.9423285
849,1747486647260,2.993606,0.503002,0.4378387,-0.5139901,0.61838603,6.5918565
850,1747486647270,2.79592,0.44882128,0.54937285,-0.45167214,0.7286409,6.3415194
851,1747486647280,2.7268517,0.4378387,0.58891016,-0.27217507,0.6327671,6.0597568
852,1747486647290,2.7834728,0.59159476,0.54937285,-0.06924219,0.46552056,5.613411
853,1747486647300,2.7004936,0.822717,0.43320164,0.039947417,0.34834146,5.0317764
854,1747486647310,2.2409337,1.1651293,0.23014598,-0.1555286,0.3552657,3.8978026
855,1747486647320,1.9539223,1.3274274,0.30458343,-0.23435818,0.37550572,3.4530547
856,1747486647330,1.8087083,1.4609268,0.40952805,-0.18801917,0.31478566,3.038667
857,1747486647340,1.7203596,1.581979,0.4368625,-0.114515926,0.30599723,2.8133635
858,1747486647350,1.67264635,1.61846565,0.40720953,0.0348874089999999,0.3320962,2.3265375
859,1747486647360,1.1800168,1.6854594,0.11983211,0.21997711,0.63702816,0.8974853
860,1747486647370,1.0201592,1.6310346,-0.033923957,0.113983296,0.7121293,0.46924898
861,1747486647380,0.9025237,1.5849078,-0.11592719,-0.018109497,0.74089146,0.028229509
862,1747486647390,0.82942855,1.551716,-0.127275855,-0.12037488,0.7137272,-0.36751625
863,1747486647400,0.652365,1.4250503,-0.11690342,-0.1667139,0.62903863,-0.6988135
864,1747486647410,0.66749656,1.4021089,0.011714748,-0.0031957934,0.16192019,-1.2170646
865,1747486647420,0.7663397,1.394299,0.019768637,0.18855181,-0.02876214,-1.4466292
866,1747486647430,0.8639627,1.3735542,-0.052716363,0.3435478,-0.055926383,-1.7054884
867,1747486647440,0.94962674,1.3730661,-0.17596528,0.4133226,-0.0005326322,-2.0799289
868,1747486647450,0.97940172,1.3774590999999998,-0.242836955,0.39175099,0.0226368689,-2.2423817
869,1747486647460,1.1648853,1.3496367,-0.6221019,0.06498113,0.075101145,-3.0807447
870,1747486647470,1.2417632,1.3332847,-0.76511943,-0.2545982,-0.016511599,-3.4242926
871,1747486647480,1.4126034,1.2754432,-0.82344913,-0.63702816,-0.17470337,-3.750796
872,1747486647490,1.6500711,1.2366381,-0.71191496,-0.9528791,-0.37603834,-4.139085
873,1747486647500,2.0022457,1.1275444,-0.2608972,-1.1046792,-0.545948,-4.499677
874,1747486647510,2.2236056,1.0684826,-0.071264714,-0.9102685,-0.27696875,-5.006743
875,1747486647520,2.5416121,1.056768,0.06687169,-0.7819041,-0.22876554,-5.1236558
876,1747486647530,2.843267,1.1207108,0.110801995,-0.4063984,-0.25513083,-5.5702677
877,1747486647540,3.0004398,1.1665936,0.0995753595,-0.3304983,-0.335291985,-5.772135349999999
878,1747486647550,3.8011916,1.2766634,0.12202863,-0.31851408,-0.7323693,-6.8405957
879,1747486647560,4.2002254,1.2012497,0.34656128,-0.28708878,-0.7957525,-7.283746
880,1747486647570,4.4916296,1.1375508,0.55742675,-0.113983296,-0.8223842,-7.710917
881,1747486647580,4.651243,1.0645777,0.758774,0.17204021,-0.8159926,-8.088553
882,1747486647590,4.569728,0.81734776,0.7826916,0.8090684,-0.54648066,-8.565259
883,1747486647600,4.5275064,0.68336034,0.7058135,0.9507485,-0.44687843,-8.664861
884,1747486647610,4.441354,0.5964759,0.6467517,1.0279802,-0.37390783,-8.728777
885,1747486647620,4.289184199999999,0.4329575599999999,0.6297897,1.05514445,-0.35926044,-8.7109335
886,1747486647630,3.8846593,0.012690976,0.60013676,1.1249193,-0.3009372,-8.602543
887,1747486647640,3.5420027,-0.16058967,0.6555378,1.212271,-0.2977414,-8.415589
888,1747486647650,3.3750676,-0.2173329749999999,0.7008104,1.29642685,-0.3472762,-8.279501750000001
889,1747486647660,2.9142876,-0.383658,0.75999427,1.6010925,-0.5070659,-7.837683
890,1747486647670,2.6162937,-0.4634647,0.6347929,1.7832527,-0.59601545,-7.556453
891,1747486647680,1.9810127,-0.5940353,0.5605995,1.9052255,-0.6311692,-6.9396653
892,1747486647690,1.6742326,-0.69214636,0.46370876,1.8130801,-0.43888897,-6.672284
893,1747486647700,1.3279155,-0.7822035,0.38146147,1.6468989,-0.13102753,-6.367618
894,1747486647710,0.976229,-0.8336995,0.33460248,1.4413028,0.15978967,-6.01182
895,1747486647720,0.37291947,-0.959145,0.28554696,1.2154667,0.40107206,-5.623531
896,1747486647730,0.13691612,-1.0247964,0.31507793,0.85061365,0.7771104,-4.7766457
897,1747486647740,0.02757847,-1.05957455,0.353028815,0.815992575,0.8279768000000001,-4.54548335
898,1747486647750,-0.26821893,-1.1707426,0.4373506,0.8090684,0.96779275,-3.6852825
899,1747486647760,-0.4551667849999999,-1.25457625,0.4412555099999999,0.99548966,1.0487529,-2.5086977
900,1747486647770,-0.7390053,-1.3881977,0.36266908,1.0338391,0.984837,-1.8615496
901,1747486647780,-0.7394935,-1.4126034,0.24967057,0.9832391,0.84848315,-1.2815131
902,1747486647790,-0.585127265,-1.4800851000000002,0.0610143148,0.8341021,0.7483483,-0.8335694
903,1747486647800,-0.51593703,-1.5119346,-0.0043930304,0.57098174,0.7126619,-0.5022722
904,1747486647810,-0.43613032,-1.5470788,-0.10640897,0.22690132,0.737163,-0.25672874
905,1747486647820,-0.50641876,-1.6078491,-0.23600335,-0.6380934,1.0210559,0.19387813
906,1747486647830,-0.6369894,-1.6444578,-0.22746135,-1.1595404,1.2293152,0.61838603
907,1747486647840,-0.81149036,-1.6820425,-0.18182266,-1.478587,1.3496901,1.0615361
908,1747486647850,-0.9279056,-1.6747209,-0.10518867,-1.6793894,1.4029533,1.593103
909,1747486647860,-0.8500514,-1.6149268,0.05296042,-1.7289242,1.2564794,2.6860642
910,1747486647870,-0.60989904,-1.5800266,0.082247294,-1.6468989,1.0567423,3.125486
911,1747486647880,-0.35876414,-1.5187683,0.102259986,-1.500425,0.80747044,3.407781
912,1747486647890,-0.253697505,-1.49814545,0.081393093,-1.4045512,0.70014507,3.49193685
913,1747486647900,-0.0014643435,-1.4501882,-0.20964517,-1.2460931,0.50653327,3.64773175
914,1747486647910,-0.0014643435,-1.4501882,-0.20964517,-1.1835088,0.42024684,3.7193708
915,1747486647920,0.05418071,-1.394055,-0.33020946,-1.2815131,0.03089267,4.1758366
916,1747486647930,0.34900185,-1.3244987,-0.53863436,-1.7054884,-0.1454086,4.528439
917,1747486647940,0.4729829,-1.2727585,-0.5891542,-2.1896511,-0.1217064625,4.6876962
918,1747486647950,0.55010504,-1.2334653,-0.53082454,-2.3531692,-0.099069595,4.7441554
919,1747486647960,0.64260274,-1.1280326,-0.08346757,-2.5108283,0.077231675,5.0141997
920,1747486647970,0.7089863,-1.0379754,0.08786061,-2.2349248,-0.084155895,5.167065
921,1747486647980,0.8090498,-0.93278676,0.21013328,-1.7837853,-0.5022722,5.328985
922,1747486647990,0.85847137,-0.8751892800000001,0.23612538,-1.43704175,-0.8197209999999999,5.483715
923,1747486648000,1.3025336,-0.5337532,0.088348724,-0.18695392,-1.7395768,6.412892
924,1747486648010,1.5893008,-0.35559142,-0.046614934,0.0053263223,-1.645301,6.8027787
925,1747486648020,1.978328,-0.2633378,-0.19060871,-0.011717909,-1.2942963,7.0520506
926,1747486648030,2.3473425,-0.21989559,-0.2889638,-0.16937704,-0.8346347,7.1266193
927,1747486648040,2.8371654,-0.028798755,-0.2801777,-0.34674358,-0.515588,7.0872045
928,1747486648050,3.1271055,0.2613853,-0.18401916,-0.45380265,-0.4314321,7.1175647
929,1747486648060,3.8168113,0.5835409,0.061502427,-0.34248254,-0.49854377,7.1394024
930,1747486648070,3.9486022,0.66749656,0.19744232,-0.046339005,-0.23329292,6.886402
931,1747486648080,3.8124185,0.6257628,0.30287504,0.26738137,0.046871636,6.838998
932,1747486648090,3.70771775,0.53448539,0.293600855,0.4237089349999999,0.172040218,6.897321
933,1747486648100,3.4297366,0.23722363,0.27041543,0.86499476,0.40426785,7.2139707
934,1747486648110,3.7338316,0.07785426,0.19890666,1.2389026,0.28495824,8.02943
935,1747486648120,4.1199303,0.123614995,0.17230442,1.26367,0.22716764,7.9958747
936,1747486648130,5.0146441500000005,0.58891017,-0.010250404,1.2346416,0.24980451,7.287474
937,1747486648140,4.9404507,0.7309515,-0.08005078,0.9709886,0.5230448,6.4107614
938,1747486648150,3.9110172,0.6879974,-0.20110317,-0.14594123,1.3401027,5.5388427
939,1747486648160,3.6096067,0.6718896,-0.0776102,-0.46498793,1.5025555,5.3423014
940,1747486648170,3.2532831,0.6842145,0.072362974,-0.60293967,1.4327807,5.0898337
941,1747486648180,3.116367,0.7128912,0.11617125,-0.61838603,1.2133362,4.781972
942,1747486648190,2.831064,0.80294836,0.20744865,-0.53316486,1.0375676,4.437892
943,1747486648200,2.1279352,0.95646036,0.21574661,-0.307062485,0.924116925,3.5808864
944,1747486648210,1.8892472,1.0247964,0.15912533,-0.2972088,0.88949585,3.4072483
945,1747486648220,1.7762486,1.0919122,0.123004854,-0.2908172,0.7435546,2.9465215
946,1747486648230,1.5795386,1.1834335,0.08932495,-0.2908172,0.55979645,2.2455776
947,1747486648240,0.94389137,1.25396615,-0.08737249,-0.62770708,0.5472796200000001,1.16832885
948,1747486648250,0.77695622,1.27373475,-0.074559485,-0.7395598299999999,0.52411012,0.8029431
949,1747486648260,0.7048373,1.2805684,-0.0656514,-0.7819041,0.49321744,0.6279734
950,1747486648270,0.61673266,1.2808125,-0.06028214,-0.8133294,0.40746364,0.28495824
951,1747486648280,0.5582809799999999,1.2521357,-0.0715087725,-0.896420035,0.382163625,-0.384560441
952,1747486648290,0.5945235,1.244692,-0.079318605,-0.948618,0.4016047,-0.7281082
953,1747486648300,0.7224094,1.2376143,-0.0622346,-0.96406436,0.38136467,-1.1819109
954,1747486648310,0.80599905,1.2969202000000002,-0.073705293,-0.93423694,0.23062976,-1.8631475
955,1747486648320,0.7687803,1.3042419,-0.0873725,-0.9416938,0.07403588,-2.382464
956,1747486648330,0.43063901,1.2826429,-0.0556450515,-0.9864349,-0.06178534,-2.6306705
957,1747486648340,0.39024755,1.2656809,-0.033679903,-1.1217234,0.04527374,-2.6365294
958,1747486648350,0.76853627,1.283497,0.005857374,-1.1685951,0.38083205,-2.7803402
959,1747486648360,1.0562798,1.3613514,0.0924977,-1.1494204,0.7052051,-3.1004522
960,1747486648370,1.3196175,1.4409139,0.18255483,-1.0641992,0.8159926,-3.522297
961,1747486648380,1.5265781,1.4667841,0.30433938,-0.61678815,0.4527374,-4.5295043
962,1747486648390,1.5695322,1.3723339,0.42075467,-0.35260254,0.18695392,-4.8229847
963,1747486648400,1.6949776,1.2825208,0.4846977,-0.016511599,0.07243799,-5.064267
964,1747486648410,1.876068,1.2293164,0.45809543,0.29454562,0.039947417,-5.3172674
965,1747486648420,2.0932791,1.2544543,0.38341394,0.8250473,0.05752428,-5.7156763
966,1747486648430,2.2482553,1.3052181,0.2884757,0.98856544,0.08042747,-5.806224
967,1747486648440,2.494265,1.3293798,0.20500809,1.0258497,0.18216023,-5.8797274
968,1747486648450,2.8459516,1.3530535,0.21843125,1.0125339,0.34461305,-6.0054283
969,1747486648460,3.3184462,1.3867333,0.36291313,1.0306433,0.34461305,-6.253635
970,1747486648470,4.241471,1.3540297,0.8617661,1.6698021,-0.111852765,-7.226754
971,1747486648480,4.470153,1.3269392,0.9896521,2.102832,-0.3834952,-7.656588
972,1747486648490,4.5853477,1.2363939,0.98574716,2.459163,-0.64341974,-8.0677805
973,1747486648500,4.5770497,1.0648217,0.8085616,2.5933864,-0.7222493,-8.4161215
974,1747486648510,4.386929,0.818568,0.64040625,2.521481,-0.59601545,-8.614261
975,1747486648520,3.963734,0.43881494,0.626739,2.1662152,-0.30040458,-8.502941
976,1747486648530,3.7982628,0.366574,0.763167,2.0847225,-0.18269286,-8.284562
977,1747486648540,3.7501836,0.34729347,0.92082804,2.1694112,-0.15233281,-7.97457
978,1747486648550,3.7284625,0.23551524,1.0111293,2.3132217,-0.2647182,-7.84514
979,1747486648560,3.5012453,0.1147069,0.99550945,2.4522388,-0.36112466,-7.6991987
980,1747486648570,2.9272225,-0.045394648,0.8297946,2.514024,-0.31798145,-7.139935
981,1747486648580,2.6072636,-0.200371,0.6914142,2.4208136,-0.22050974,-6.894924
982,1747486648590,2.3798023,-0.27187978,0.6158784749999999,2.3449135,-0.14247912,-6.748184
983,1747486648600,1.7755165,-0.46224442,0.43588626,2.076733,0.14753912,-6.250439
984,1747486648610,0.9396204,-0.6386978,0.18645974,1.8226675,0.44847634,-5.460013
985,1747486648620,0.79404025,-0.67811305,0.12495731,1.50308815,0.7827030700000001,-5.1494885
986,1747486648630,0.38658667,-0.8097819,0.00097622897,0.88683265,1.3081448,-4.3990097
987,1747486648640,0.14057697,-0.86982006,0.059305906,0.7057377,1.3704628,-3.9707732
988,1747486648650,-0.053692598,-0.91472656,0.07858644,0.6194513,1.335309,-3.5009916
989,1747486648660,-0.35925224,-1.0704352,0.022453265,0.5336975,1.1973573,-2.612561
990,1747486648670,-0.4876264,-1.0697029,0.0039049159,0.505468,1.1004182,-2.1161478
991,1747486648680,-0.5171573,-1.0704352,-0.027090356,0.4724448,1.0495518,-1.85489175
992,1747486648690,-0.4660273,-1.07556035,-0.044906533,0.38402784,0.95660748,-1.3640712000000002
993,1747486648700,-0.2506468,-1.0843463,-0.08175918,0.19547603,0.8202536,-0.80800307
994,1747486648710,0.13569583,-1.1668377,-0.09664667,-0.13475595,0.7414241,-0.59122175
995,1747486648720,0.23771177,-1.2781278,-0.0959145,-0.2396845,0.8021441,-0.7190535
996,1747486648730,0.18914436,-1.3603752,-0.119588055,-0.32170987,0.8644621,-0.85700524
997,1747486648740,0.09152146435,-1.3930788,-0.1406990025,-0.357928855,0.843156825,-0.86898947
998,1747486648750,-0.26626647,-1.5243815,-0.20500809,-0.4745753,0.7089335,-0.7419567
999,1747486648760,-0.8581053,-1.6171232,-0.3133695,-0.5834986,0.552073315,-0.266049805
1000,1747486648770,-1.0452971,-1.560258,-0.336799,-0.871919,0.23542345,0.9997507
1001,1747486648780,-1.0452971,-1.560258,-0.336799,-1.1483551,0.08362326,2.016013
