id,timestamp,acc_x,acc_y,acc_z,gyro_x,gyro_y,gyro_z
1,1747486653140,-0.54754245,-0.8494411500000001,0.2413726299999999,0.483097425,0.366983595,-1.47379337
2,1747486653150,-0.99599767,-2.0705816500000003,-0.498730975,0.74435354,0.74595143,-1.86208227
3,1747486653160,-1.3526873,-2.16625215,-0.757675725,-0.15845811,0.8932241999999999,-0.40906155
4,1747486653170,-1.4389615,-2.212867,-0.8300387,-0.5858955,1.0594054,0.17896444
5,1747486653180,-1.63493945,-2.2699763500000003,-0.88190088,-1.68444945,1.35102165,1.6109462
6,1747486653190,-1.6815544,-2.2831554,-0.8768977,-2.38565985,1.31506895,2.60031055
7,1747486653200,-1.3719678000000002,-2.3250115,-0.66944903,-3.20591345,1.0381002,4.0163132
8,1747486653210,-0.918631515,-2.2942601,-0.45236012,-3.82989205,0.7070693,5.3047507
9,1747486653220,-0.73632073,-2.264851,-0.36974674,-4.0381513,0.47164584,5.98758535
10,1747486653230,-0.14448188,-2.1337925,-0.200371005,-4.1310957,0.2735066499999999,6.52820685
11,1747486653240,0.40245042,-1.99541215,-0.103236215,-4.086088200000001,0.00798949,7.02275585
12,1747486653250,0.862254275,-1.84482875,-0.0206228357,-3.92150475,-0.25566347,7.30638265
13,1747486653260,1.056157725,-1.7382978,0.0340459843,-3.6876792,-0.4527374,7.3090458
14,1747486653270,1.1375508,-1.6852154,0.06443111,-3.32682085,-0.72837458,7.240868799999999
15,1747486653280,1.2830089,-1.5539125,0.21403822,-3.1052458,-0.89162636,7.1916003
16,1747486653290,1.37062545,-1.2257776,0.4490653249999999,-1.6426378,-1.5813850500000002,6.91622935
17,1747486653300,1.37660485,-1.02577267,0.549738945,-0.3994741814999999,-2.02719825,6.7449882
18,1747486653310,1.37343215,-0.94181692,0.53546157,0.4322310685,-2.12733315,6.7322048500000005
19,1747486653320,1.43054155,-0.8816568,0.43857085,1.2295815,-2.01867615,6.809969349999999
20,1747486653330,1.5426858499999998,-0.8095379,0.242836965,1.80881905,-1.7944379499999998,6.89705485
21,1747486653340,1.7711234,-0.65675807,-0.117391525,1.95982025,-1.42292695,6.9138325
22,1747486653350,2.00956735,-0.43076105,-0.410870355,1.746501,-1.003745425,6.9258167
23,1747486653360,2.2117687,-0.1920730525,-0.483111305,1.5659387,-0.83996105,6.9481874
24,1747486653370,2.3388004,-0.070532545,-0.49958518,1.0524813,-0.45540056,6.9971895
25,1747486653380,2.55344895,0.096402615,-0.31105095,0.5209143,0.10439592,6.9551115
26,1747486653390,2.54332055,0.128130055,0.002440575,0.006657907,1.22265725,6.78573465
27,1747486653400,2.4653443,0.135817855,0.268585,-0.0601874405,1.86687595,6.86802615
28,1747486653410,2.4680289,0.1381364,0.314711825,0.0010652645,1.9552929,7.1455275
29,1747486653420,2.5045154,0.13569583,0.30116665,0.017576864,1.901497,7.307714
30,1747486653430,2.7696836,0.1602235799999999,0.266998625,-0.020772656,1.4919028,7.4472637
31,1747486653440,3.662811,0.4046469,0.24552159,-0.027696876,0.9709886,7.152718
32,1747486653450,4.045370800000001,1.01588835,0.734490265,0.7755124499999999,0.24900557,5.4949005
33,1747486653460,3.8767273,1.138283,0.860911965,1.4152038,0.1861549599999999,4.93244085
34,1747486653470,3.7745895,1.1988091,0.9159469,1.784318,0.15339808,4.6823697
35,1747486653480,3.5208918,1.32986795,0.6765267,3.0376016000000003,-0.07643272,4.123905049999999
36,1747486653490,3.4831849,1.4359108,0.06235666,3.46530535,-0.3435477799999999,3.6738307
37,1747486653500,3.6188807,1.5769758,-0.6145361650000001,3.1763524,-0.547279625,3.1342743
38,1747486653510,3.7326114,1.6403086,-0.82711005,2.863431,-0.59867865,2.8724856
39,1747486653520,3.9293215,1.79016,-1.1431642,1.897236,-0.6556703,2.1241374
40,1747486653530,3.8525659,1.9126767,-1.08703097,-0.2708435,-0.342748835,0.5949502249999999
41,1747486653540,3.6964911,1.86447545,-0.8254016200000001,-1.61760405,-0.050333746,-0.4527374
42,1747486653550,3.6313276,1.8416561,-0.6572462,-2.08365725,0.0335558315,-1.099885575
43,1747486653560,3.5097873,1.7433008,-0.28969595,-2.2327943,0.053263225,-1.4141386
44,1747486653570,3.3611565,1.5932057,0.13667206,-2.122007,0.042077947,-2.1624868
45,1747486653580,3.0126426,1.3862451,0.49006698,-1.242631,-0.07350325,-3.2879388
46,1747486653590,2.71647915,1.23993285,0.4394250799999999,-0.7339672,-0.2743056,-3.78595
47,1747486653600,2.6123888,1.19344,0.37267542,-0.3536678,-0.4910869,-4.200338
48,1747486653610,2.4417927,1.1129011,0.15180361,-0.18855181,-0.66579026,-4.5412226
49,1747486653620,2.3854156,0.9776934,-0.05296042,-0.30786142,-0.9539443,-5.168663
50,1747486653630,2.408357,0.94352525,-0.033679903,-0.3850931,-1.0381002,-5.5521584
51,1747486653640,2.4742525,0.91106576,0.007565775,-0.42983422,-1.1307782,-6.06242
52,1747486653650,2.6021385,0.8454143,0.09664667,-0.406931,-1.2090752,-6.508233
53,1747486653660,2.677064,0.74364245,0.15400012,-0.33289513,-1.2399678,-6.964166
54,1747486653670,2.70622885,0.32886716,0.300312445,-0.13022858,-1.24902255,-7.873370149999999
55,1747486653680,2.67096255,0.098111018,0.3342364,-0.07882957,-1.1590077,-8.177236749999999
56,1747486653690,2.60823975,-0.1437497069999999,0.391101735,-0.0159789659999999,-1.0426276,-8.44035675
57,1747486653700,2.49731575,-0.353882995,0.4554108249999999,0.023435818,-0.9864349,-8.560998
58,1747486653710,2.3611319,-0.620515565,0.48262322,0.28016455,-0.94222641,-8.648083499999998
59,1747486653720,2.2813252,-0.8764096,0.45187201,0.4399542199999999,-0.94755273,-8.57964
60,1747486653730,2.27119685,-1.03699925,0.4128228499999999,0.4716458449999999,-0.963265375,-8.50187525
61,1747486653740,2.27266115,-1.180993,0.38890523,0.4609932,-0.9816412,-8.41958375
62,1747486653750,2.20444705,-1.40015645,0.39878954,0.4037352349999999,-0.916393755,-8.2616585
63,1747486653760,2.07961175,-1.5916194,0.451994035,0.37630467,-0.76832198,-8.0528668
64,1747486653770,2.0225024,-1.6351836,0.48396555,0.39041942,-0.6945524,-7.9633846
65,1747486653780,1.8973011,-1.7215798,0.5520575,0.6045375799999999,-0.37950046,-7.763381000000001
66,1747486653790,1.7303659,-1.8057796,0.5891542,0.87591368,-0.1619201975,-7.63981035
67,1747486653800,1.5141312,-1.8865626,0.60184515,1.0471549,-0.060720075,-7.5697694
68,1747486653810,0.733147975,-1.98162275,0.47603366,1.6666062,0.03781689,-7.1394024
69,1747486653820,0.5701177,-1.98687,0.44467232,1.9584887,0.013315806,-6.750048
70,1747486653830,0.23112221,-1.9919952,0.29872608,2.1422467,-0.07989483,-6.270679
71,1747486653840,-0.09835507,-1.9380586,0.14374973,2.1923141,-0.22956449,-5.685849
72,1747486653850,-0.62905754,-1.71950535,-0.1420413194999999,1.8050906,-0.68789452,-4.2775694
73,1747486653860,-0.896056165,-1.5493974,-0.28896378,1.3076121,-0.95154747,-3.1606396
74,1747486653870,-0.9520673,-1.4926541,-0.31873876,1.0956244,-0.99708754,-2.7814054
75,1747486653880,-0.9967298,-1.4160202,-0.3328941,0.5123922,-0.96406436,-1.8333201
76,1747486653890,-0.96451425,-1.2982625,-0.2992141849999999,0.044208474,-0.82398206,-1.0753845
77,1747486653900,-0.782081465,-1.19441615,-0.2815200399999999,-0.90414319,-0.611728105,0.22157501
78,1747486653910,-0.603431515,-1.11643985,-0.267242685,-1.63890935,-0.4655205599999999,1.0325076
79,1747486653920,-0.5625519,-1.1060674,-0.26065314,-1.897236,-0.41598576,1.2719258
80,1747486653930,-0.58000205,-1.11912455,-0.198052455,-2.7047064,-0.192280225,2.1614216
81,1747486653940,-0.52350279,-1.14230995,-0.08505395,-3.3931336,0.0599211299999999,3.31749985
82,1747486653950,-0.37926495,-1.172451,0.056499255,-3.95772385,0.29534457,4.6514772
83,1747486653960,-0.29213652,-1.1885588,0.12007617,-4.1007357,0.36005938,5.1723914
84,1747486653970,0.0623566224999999,-1.2439598,0.338995515,-4.115649,0.41278997,5.9883842
85,1747486653980,0.20403185,-1.2673893,0.41026023,-3.9239016,0.3669836,6.7367325
86,1747486653990,0.9595111,-1.3251088,0.561819775,-2.9515816,-0.1984055049999999,7.7870832
87,1747486654000,1.406502,-1.3401184,0.58305275,-2.3702135,-0.60080916,8.191351
88,1747486654010,1.99821865,-1.22968245,0.446136655,-1.4309165,-1.50308815,8.358064500000001
89,1747486654020,2.1435547,-1.172695,0.40220633,-1.1345067,-1.8056233,8.394816
90,1747486654030,2.3051207,-1.0760484,0.28164205,-0.6460829,-2.18539,8.527442
91,1747486654040,2.4203157,-1.018451,0.15473229,-0.24820662,-2.1816616,8.80015
92,1747486654050,2.7141607,-0.930834365,-0.0226973234,0.150734925,-1.1174624,9.2331795
93,1747486654060,2.817763,-0.911431815,-0.0673597995,0.21624869,-0.8926916,9.296563
94,1747486654070,2.8981798,-0.9088692,-0.097134784,0.3153183,-0.71798825,9.333315
95,1747486654080,2.9782307,-0.86225426,-0.15033926,0.4250405,-0.73290193,9.235843
96,1747486654090,2.9582179,-0.82027644,-0.15375607,0.5422196,-0.86659265,9.091499
97,1747486654100,3.1035539,-0.533021025,-0.16388444,0.6689861,-1.0764498,8.92958
98,1747486654110,3.1620057,-0.447601,-0.16254212,0.5928197,-1.0940266,8.836369
99,1747486654120,3.2156982,-0.268463,-0.21208574,0.28229508,-0.85327685,8.618522
100,1747486654130,3.2266808,-0.13252309,-0.27773714,-0.18429075,-0.4511395,8.407067
101,1747486654140,3.1825066,-0.046858992,-0.25259924,-0.74302197,0.09161274,8.160459
102,1747486654150,2.8759706,0.027822526,0.10079564,-1.603223,1.0934939,7.64274
103,1747486654160,2.7602875,0.13227904,0.4166057,-1.6362462,1.262871,7.343933
104,1747486654170,2.7768834,0.32557237,0.6970275,-1.2490226,1.1792477,6.9162292
105,1747486654180,2.9062338,0.53228885,0.87860614,-0.4878911,0.8836369,6.2701464
106,1747486654190,2.8485141,0.95743658,0.804290685,1.60082615,-0.17230653,4.4152547
107,1747486654200,2.6487532,1.1392592,0.6784792,2.9923279,-0.8127968,3.2210934
108,1747486654210,2.3824868,1.1670818,0.39830142,3.2858083,-0.8836369,2.9784794
109,1747486654220,2.27583385,1.18282345,0.2280714925,3.3976611,-0.8088020499999999,2.8160266
110,1747486654230,2.10731235,1.21528305,-0.1150729975,3.44400005,-0.5440838100000001,2.54678095
111,1747486654240,2.0105436,1.2783719,-0.60843474,2.9246836,0.16298546,2.26635
112,1747486654250,2.0766833,1.462391,-0.94865054,1.5222629,1.1840415,1.8727349
113,1747486654260,2.20932815,1.59845295,-0.976351035,0.6087986400000001,1.41227435,1.361408
114,1747486654270,2.2714407,1.6307905,-0.9813542,0.33182988,1.3763217,1.1488878
115,1747486654280,2.3693078,1.7960173,-0.7038611,-0.46924898,0.45220476,0.09054748
116,1747486654290,2.52794505,1.77441825,-0.3485137299999999,-0.580036475,-0.103330647,-0.618652345
117,1747486654300,2.6819451,1.7705133000000002,0.0004881199999999,-0.370712015,-0.3752394,-1.147822465
118,1747486654310,2.81556645,1.74403315,0.30067853,-0.19547603,-0.4825648,-1.4226607
119,1747486654320,2.87804515,1.5956464,0.408063715,0.70174294,-0.66685555,-2.5081651000000003
120,1747486654330,2.885733,1.478987,0.3973252,1.0929613,-0.7456851,-3.009372
121,1747486654340,2.8769467,1.3650122,0.23551524,1.1659319,-0.7653925,-3.353985
122,1747486654350,2.8935425,1.2634844,0.067359805,0.91346425,-0.81226414,-3.6820867
123,1747486654360,2.9355206,1.1773322,-0.03294773,0.5363607,-0.8655274,-3.8823564
124,1747486654370,2.9911656,1.1048472,-0.024893839,0.10546118,-0.92731273,-4.053864
125,1747486654380,3.163226,0.9693954,0.22306833,-0.5294364,-1.2490226,-4.375041
126,1747486654390,3.252795,0.9100895,0.39708114,-0.5997439,-1.3560816,-4.57318
127,1747486654400,3.3667698,0.7678041200000001,0.474203225,-0.5566007,-1.4034859,-4.833637
128,1747486654410,3.3794608,0.72558224,0.4639528,-0.49215218,-1.3550164,-5.1633368
129,1747486654420,3.184215,0.5266756,0.35461518,-0.47830373,-1.1100056,-5.7588196
130,1747486654430,3.000684,0.41855815,0.29994637,-0.5470133,-0.92784536,-6.018744
131,1747486654440,2.8361893,0.32898918,0.294089,-0.62957128,-0.846618935,-6.2325958
132,1747486654450,2.7043984,0.24674188,0.30922052,-0.65247446,-0.8357,-6.296778
133,1747486654460,2.425685,0.09737884,0.38805103,-0.6354303,-0.78563255,-6.50557
134,1747486654470,2.3073173,-0.015375607,0.44345203,-0.5651228,-0.7451525,-6.6019764
135,1747486654480,2.2377608,-0.11519502,0.52301466,-0.37710363,-0.73769563,-6.6962523
136,1747486654490,2.1164645,-0.1918289899999999,0.484209565,-0.11451593,-0.7797736,-6.6856
137,1747486654500,2.106214,-0.22892569,0.44418418,0.13688648,-0.8516789,-6.6365976
138,1747486654510,2.1325722,-0.3104408,0.39756927,0.4016047,-1.055677,-6.6371303
139,1747486654520,2.212379,-0.4283205,0.23600335,0.67537767,-1.3560816,-6.8251495
140,1747486654530,2.182604,-0.4761557,0.15936938,0.65673554,-1.474326,-6.9902654
141,1747486654540,2.144531,-0.5400987,0.056377225,0.49641323,-1.4716629,-7.1756215
142,1747486654550,2.0005373,-0.7427882,-0.0336799005,-0.099602215,-1.0735202,-7.4629765
143,1747486654560,1.8982773,-0.8642067,-0.04612682,-0.4250405,-0.8021441,-7.567639
144,1747486654570,1.7742962,-0.9964857,0.0102504045,-0.6918893,-0.46339005,-7.5420723
145,1747486654580,1.5941819499999998,-1.19087735,0.166080955,-0.8535431250000001,0.08894959,-7.2925341
146,1747486654590,1.5329236,-1.2549424,0.23429495,-0.85061365,0.29348037,-7.1617727
147,1747486654600,1.2925272,-1.4201691,0.4932397,-0.37816888,0.7137272,-6.5716166
148,1747486654610,1.2036903,-1.4875289,0.5859815,0.027696876,0.78989357,-6.2658854
149,1747486654620,1.1351103,-1.5675796,0.62259,0.4878911,0.7451525,-5.9878516
150,1747486654630,1.0582323,-1.6600775,0.5762192,0.94488955,0.5629923,-5.7758636
151,1747486654640,0.91253006,-1.7157224,0.4876264,1.3566142,0.2972088,-5.5814533
152,1747486654650,0.5091034,-1.8682582,0.17425688,1.7726,-0.22903186,-5.0493536
153,1747486654660,0.27090356,-1.9839413,0.051252022,1.7273263,-0.39148468,-4.5401573
154,1747486654670,-0.027090356,-2.029824,-0.05906185,1.65222515,-0.420246825,-4.28875465
155,1747486654680,-0.2638259,-2.0122519,-0.13593988,1.3358417,-0.3920173,-3.4791536
156,1747486654690,-0.734612285,-1.9079176,-0.228437595,0.79708417,-0.1339570055,-2.48739255
157,1747486654700,-1.047981815,-1.77734695,-0.21428227,0.147539135,0.3217098845,-1.3528859
158,1747486654710,-1.17379335,-1.68021215,-0.146922463,-0.4860269149999999,0.8623316000000001,-0.1805623349999999
159,1747486654720,-1.2115002,-1.645434,-0.107873306,-0.67324716,1.0641992,0.21358553
160,1747486654730,-1.2671453,-1.5936939,-0.024405725,-0.9310411,1.4498249,0.99708754
161,1747486654740,-1.3039979,-1.5558649,0.033191785,-1.0588728,1.7544906,1.7864485
162,1747486654750,-1.23358735,-1.4837461,-0.028066582755,-0.9337043,1.6793894,3.86504575
163,1747486654760,-1.2156491,-1.4584862,-0.05662128,-0.8692558,1.5504924,4.211523
164,1747486654770,-1.1546348,-1.4521407,-0.14399378,-0.7600662,1.2229236,4.9257827
165,1747486654780,-1.0101529,-1.4523847,-0.24527754,-0.74941355,0.92092115,5.6645436
166,1747486654790,-0.4865280999999999,-1.48569855,-0.355713425,-0.84635264,0.71106404,6.4134245
167,1747486654800,-0.200371,-1.5058333,-0.35412705,-1.1888351,0.3153183,8.054464
168,1747486654810,0.62124776,-1.58905675,-0.25735837,-1.3230585,0.175236,9.004148
169,1747486654820,0.967443,-1.6190758,-0.22428861,-1.4109428,0.11611383,9.880328
170,1747486654830,1.9646608,-1.6534878,-0.18206671,-1.4306501,0.10333065,10.472615
171,1747486654840,3.3740915,-1.3798996,-0.1158051625,-1.1590077,-0.152332818,10.45344
172,1747486654850,3.5461519,-1.3223021,-0.106164895,-1.087635,-0.25033715,10.439059
173,1747486654860,3.8275497,-1.1519502,-0.032215554,-0.687361895,-0.5840312400000001,10.5365305
174,1747486654870,4.121883,-0.8993509,0.076389916,-0.51292485,-0.70627034,10.567956
175,1747486654880,4.307122,-0.6782351,0.23771177,-0.027696876,-0.8878979,10.558901
176,1747486654890,4.39962,-0.5110559,0.35632357,0.5784386,-0.8383631,10.480604
177,1747486654900,4.4935817,-0.451383905,0.0523502849999999,1.73212,-0.4495416,9.786052
178,1747486654910,4.472592799999999,-0.36925862,-0.17584324,1.9851203,-0.27803403,9.116
179,1747486654920,4.4142632,-0.3133695,-0.28286234,2.0490363,-0.14061491,8.336227
180,1747486654930,4.274052599999999,-0.252233165,-0.37767857,1.8807244,-0.06870956,7.5964007
181,1747486654940,3.4097239,0.029530925,-0.4535804,1.5606124,0.01917476,7.015299
182,1747486654950,2.94272015,0.2307561249999999,-0.3515644599999999,0.6317018249999999,0.7765778000000001,6.4552365
183,1747486654960,2.8378975,0.28969595,-0.32239962,0.41385525,1.0130665,6.389989
184,1747486654970,2.736858,0.42075467,-0.24259292,-0.04314321,1.5632756,6.199839
185,1747486654980,2.6790164,0.476399735,-0.17962614,-0.5161206,2.1917815,5.8179417
186,1747486654990,2.3141508,0.7471813,0.251745045,-0.507332205,2.3001722,5.07438735
187,1747486655000,2.2331238,0.8664033,0.41562948,0.0023968399999999,1.98405505,4.3228432
188,1747486655010,2.24898745,1.1331578,0.3732855699999999,0.658067125,1.5251924,3.56890225
189,1747486655020,2.2197006,1.2156491,0.31385764,1.0029465,1.2452941,3.1521175
190,1747486655030,1.8787527,1.3403623,0.036608588,1.5201324,0.56885123,2.3899207
191,1747486655040,1.1397473,1.4721533,-0.5950116,1.3779196,-0.14594123,1.5994946
192,1747486655050,1.0050278,1.5382929,-0.7226535,0.8090684,-0.029827405,1.4668691
193,1747486655060,1.0433447,1.6764293,-0.66749656,0.23702134,0.56938386,1.303351
194,1747486655070,1.0963051,1.8094405,-0.61941725,-0.2972088,1.1936288,0.76485986
195,1747486655080,1.0963051,1.8094405,-0.61941725,-0.2972088,1.1936288,0.76485986
196,1747486655090,1.5082738,1.93439785,-0.82894042,-0.86392945,0.7323693,-0.294013
197,1747486655100,1.4558015,1.9104803,-0.82393724,-1.2500879,0.49375007,-0.783502
198,1747486655110,1.372578,1.8643533,-0.6745742,-1.5749935,0.4032026,-1.073254
199,1747486655120,1.7472057,1.8099285,0.0012202862,-1.48604395,0.304665635,-1.24529415
200,1747486655130,2.1340365,1.8428763,0.25040275,-0.80374205,-0.039414786,-1.690042
201,1747486655140,2.5218437,1.8233517,0.26870704,0.02130529,-0.50173956,-2.2173479
202,1747486655150,2.7588232,1.7642899,0.08566409,0.45327002,-0.87618,-2.7190876
203,1747486655160,2.9962907,1.4614148,-0.4927516,0.53316486,-1.1132014,-3.2256207
204,1747486655170,3.304047,1.2432276,-0.6731099,-0.15819177,-1.1696603,-4.117247
205,1747486655180,3.36921045,1.10265065,-0.6754284500000001,-0.415719465,-1.1225224,-4.28848835
206,1747486655190,3.5605512,0.6980037,-0.56987363,-1.1116035,-0.9416938,-4.737764
207,1747486655200,3.6100948,0.46419686,-0.42197496,-1.406149,-0.7669904,-4.9635997
208,1747486655210,3.6506083,0.107629254,-0.0656514,-1.540905,-0.6125271,-5.1462927
209,1747486655220,3.7914293,-0.0078098318,0.1552204,-1.3693974,-0.5747102,-5.441371
210,1747486655230,3.912726,-0.0622346,0.36291313,-1.1004182,-0.5571333,-5.569735
211,1747486655240,4.0264564,-0.10152781,0.53814626,-0.7163904,-0.50813115,-5.7332535
212,1747486655250,4.05916,-0.1295944,0.63503695,-0.2790993,-0.4825648,-5.9127502
213,1747486655260,3.8768494,-0.12324891,0.5947675,0.62397868,-1.0066749000000002,-6.06854515
214,1747486655270,3.7997272,-0.10030753,0.57402265,0.7595336,-1.1504856,-6.070942
215,1747486655280,3.77410125,-0.103846363,0.5685313750000001,0.8594021300000001,-1.246892,-6.0797305
216,1747486655290,3.56836105,-0.20268955,0.49384985,1.13237605,-1.37552275,-6.13539055
217,1747486655300,3.4729345,-0.26943922,0.4424758,1.1691277,-1.3326459,-6.1556306
218,1747486655310,2.8525411,-0.40110809,0.37975307,1.023985475,-0.8442221,-6.1907845
219,1747486655320,2.706595,-0.439059,0.36169282,0.97258645,-0.7483483,-6.177469
220,1747486655330,2.4208038,-0.5354616,0.33069757,0.86606,-0.5384912,-6.1460433
221,1747486655340,2.0610635,-0.6474839,0.34973404,0.7717841,-0.33822146,-6.0981064
222,1747486655350,1.4809394,-0.8600578,0.3660859,0.757403,-0.11558119,-6.0656157
223,1747486655360,1.1990532,-0.9437694,0.32215557,0.7781757,0.08628642,-6.0256686
224,1747486655370,0.9620737,-1.0291895,0.30214286,0.7616641,-0.009054748,-5.9276643
225,1747486655380,0.878118,-1.07568235,0.30873242,0.76272935,-0.078563259,-5.83019265
226,1747486655390,0.7475473,-1.206375,0.30848834,0.757403,-0.29348037,-5.503689
227,1747486655400,0.567067,-1.4216335,0.24539955,0.672181865,-0.30519826,-5.1489558
228,1747486655410,0.39842346,-1.5016842499999998,0.2063504,0.593618625,-0.207992885,-5.034706
229,1747486655420,0.30873242,-1.5378047,0.18304294,0.54435015,-0.15286545,-4.969991
230,1747486655430,0.035876415,-1.62334675,0.129594403,0.346743585,-0.03515372615,-4.66399415
231,1747486655440,-0.13154685,-1.63725805,0.096036528,0.170974945,-0.0021305289,-4.29674415
232,1747486655450,-0.20622836,-1.6356717,0.08102701,0.06551377,0.0010652645,-4.059723
233,1747486655460,-0.302997075,-1.54463835,0.1435056625,-0.262587685,-0.0460726865,-2.9270804
234,1747486655470,-0.28115395,-1.5221851,0.16473864,-0.3009372,-0.06498113,-2.6993802
235,1747486655480,-0.2421048,-1.4753261,0.20159128,-0.34194988,-0.09321064,-2.2546322
236,1747486655490,-0.1012837495,-1.3324305,0.24369117,-0.284159295,-0.271908745,-1.55209035
237,1747486655500,-0.009030119,-1.2459122,0.24991462,-0.22796659,-0.37284255,-1.2607405
238,1747486655510,0.0403914735,-1.1918536,0.208180825,-0.1587244,-0.4048005,-1.1126688
239,1747486655520,0.024161667,-1.1729392,0.1889003,-0.101200126,-0.36645097,-0.9779128
240,1747486655530,-0.06882414,-1.1465809,0.12544543,-0.0974717,-0.23116238,-0.74089146
241,1747486655540,-0.20671648,-1.121199,0.04075756,-0.165116,-0.0644485,-0.47297743
242,1747486655550,-0.385366395,-1.0726316,-0.039415245,-0.4660532,0.230629755,0.5179848499999999
243,1747486655560,-0.38878322,-1.0636015,-0.04148973,-0.52144694,0.2711098,0.73609775
244,1747486655570,-0.36096066,-1.0294335,-0.025137896,-0.5901565,0.35739622,1.200553
245,1747486655580,-0.17742962,-0.9484064,-0.02757847,-0.64768076,0.45486793,1.6239957
246,1747486655590,0.020744866,-0.8402891,-0.07297312,-0.7344999,0.55606806,1.9275961
247,1747486655600,0.23502712,-0.6382097,-0.26821893,-1.103614,0.55287224,2.194445
248,1747486655610,0.127886,-0.5937913,-0.32508424,-1.4109428,0.5225122,2.4628913
249,1747486655620,-0.00024405724,-0.5701177,-0.30946457,-1.6213325,0.4910869,2.855974
250,1747486655630,-0.04393030612,-0.5752429299999999,-0.286767255,-1.7731327,0.4415521,3.4051178
251,1747486655640,-0.09322987,-0.5835409,-0.19793043,-1.845038,0.44368264,4.07943
252,1747486655650,0.22819352,-0.609655,-0.102748096,-1.7832527,0.54168695,5.674131
253,1747486655660,0.5271637,-0.63113207,-0.117879644,-1.7337179,0.567786,6.4341974
254,1747486655670,0.9876996,-0.6548056,-0.14179726,-1.7081516,0.5432849,7.085074
255,1747486655680,1.29496775,-0.63759955,-0.17511107,-1.70282525,0.4740427,7.28880575
256,1747486655690,2.1091428,-0.5554743,-0.23014598,-1.6655409,0.056459017,7.652327
257,1747486655700,2.6829214,-0.49079913,0.065407336,-1.1536814,-1.0167949,7.7428746
258,1747486655710,2.79201485,-0.439303025,0.33826335,-0.1009337999999999,-1.73371785,8.085623649999999
259,1747486655720,2.8078785,-0.42051062,0.39146784,0.294013,-1.9148128,8.26592
260,1747486655730,2.857422,-0.35827604,0.31678632,0.98430437,-1.9616845,8.829445
261,1747486655740,3.474887,-0.1769415,-0.493483731,1.3022858,-1.6271914,9.459548
262,1747486655750,3.9660523,-0.123004852,-0.98538112,-0.321443545,-0.0066578999999999,10.2339955
263,1747486655760,4.2165773,-0.132767147,-1.018817,-1.615207285,0.629837615,10.1253385
264,1747486655770,4.3246946,-0.14814276,-1.0025872,-2.368083,0.97258645,9.992181
265,1747486655780,4.382292,-0.135085695,-0.78208145,-3.47436,1.413073325,9.373262
266,1747486655790,4.173135,-0.107385196,0.00048811449,-5.0898337,1.9824572,7.881359
267,1747486655800,3.568117,0.123981081,1.27910395,-4.13722075,1.3550164,6.75484215
268,1747486655810,3.324792,0.27017137,1.7284133,-3.4972632,1.0359697,6.429404
269,1747486655820,2.7141607,0.5276518,2.0430033,0.42717105,-0.66365975,5.2581453
270,1747486655830,2.3656468,0.5872018,1.616147,2.1571605,-1.4008228,4.6876965
271,1747486655840,2.0056624,0.61160743,1.0050278,3.4232273,-1.9835224,4.1124535
272,1747486655850,1.6442136,0.6294237,0.34631723,3.7071204,-2.1214743,3.7806234
273,1747486655860,1.3706255,0.7319277,-0.13716017,3.4120421,-2.0229373,3.538276
274,1747486655870,1.2544543,0.895202,-0.5342413,2.6210833,-1.675661,3.3316145
275,1747486655880,1.2396888499999998,0.99709585,-0.54815255,0.6263755,-0.4111921,2.8607676
276,1747486655890,1.1856301,1.1560992,-0.21745501,-0.0031957934,0.23329292,2.5459821
277,1747486655900,1.1353543,1.1722069,0.09396204,-0.23435818,0.74941355,2.2423816
278,1747486655910,1.0736078,1.1839217,0.33997175,-0.105993815,1.1009508,1.9361181
279,1747486655920,0.95475197,1.2600676,0.37682438,0.9012137,1.2772521,1.3102753
280,1747486655930,1.0897156,1.2761754,0.15204766,1.23837,1.0354371,0.9139969
281,1747486655940,1.1792847,1.3518331,-0.094206095,1.3864417,0.68656296,0.34674358
282,1747486655950,1.23651605,1.48630865,-0.3112950249999999,1.3102753,0.18322548,-0.24927188
283,1747486655960,1.2737348,1.5246257,-0.32288775,0.81066626,-0.5523396,-1.2634037
284,1747486655970,1.3388981,1.5609902,-0.23209843,0.58696073,-0.5448828,-1.562743
285,1747486655980,1.4677603,1.53512,-0.1701079,0.4463458,-0.24074976,-1.7827201
286,1747486655990,1.6407969,1.4655638,-0.18304294,0.37071204,0.23595607,-2.027731
287,1747486656000,1.8572757,1.3552499,-0.38731885,0.3653857,0.8335694,-2.3073628
288,1747486656010,2.0439794,1.3501247,-0.4881145,0.35420042,1.0700581,-2.5470474
289,1747486656020,2.16246925,1.3369456,-0.534729435,0.311323535,0.81918835,-2.9308089
290,1747486656030,2.4671748,1.295944,-0.60770255,0.19600865,0.083090626,-3.769971
291,1747486656040,2.61727,1.2554306,-0.6142921,0.07456851,-0.32863408,-4.176902
292,1747486656050,2.8549817,1.2027141,-0.6042857,-0.10546118,-0.680704,-4.551875
293,1747486656060,3.309416,1.0941086,-0.6155124,-0.7339672,-0.83996105,-5.168663
294,1747486656070,3.5122278,0.99038434,-0.6648119,-1.2596753,-0.57311225,-5.383314
295,1747486656080,3.6979554,0.84809893,-0.6233222,-2.0490363,-0.0777643,-5.675729
296,1747486656090,3.9743503,0.61014312,-0.2151364585,-2.5843315,0.3073288,-5.898902
297,1747486656100,4.0411,0.5332651,-0.057109397,-2.9028456,0.61199445,-6.1300645
298,1747486656110,4.331772,0.0544247655,1.152316325,-1.854359,0.257527685,-7.0880035
299,1747486656120,4.327135,-0.008053889,1.3406065,-1.4173343,0.10652645,-7.282148
300,1747486656130,4.2696595,-0.0308732435,1.36989335,-0.5629923,-0.22530343,-7.4824176
301,1747486656140,4.3805833,-0.24332508,1.5253577,0.24234766,-0.5608617,-7.6022596
302,1747486656150,4.0796611,-0.4012301299999999,1.113633225,1.2122709500000002,-0.55260594,-7.56257875
303,1747486656160,3.9271252,-0.4249037,0.78488815,1.3848438,-0.38029942,-7.380685
304,1747486656170,3.771905,-0.42246306,0.5181335,1.1158645,0.006924219,-7.2560487
305,1747486656180,3.5234544,-0.460536,0.5105677,0.83942837,0.35739622,-7.150055
306,1747486656190,3.1817744,-0.53228885,0.5640163,0.64395237,0.5811018,-7.0323434
307,1747486656200,2.506224,-0.78464407,0.77414954,0.721184,0.8809737,-6.838998
308,1747486656210,2.101699,-0.8676235000000001,0.85786122,0.9917612,0.74941355,-6.64725
309,1747486656220,2.0017576,-0.9054524,0.8505395,1.3049489,0.5502091,-6.486928
310,1747486656230,1.9390348,-0.948772535,0.8341876850000001,1.46101015,0.45619951,-6.46136165
311,1747486656240,1.441158,-1.168058,0.7297312,2.3430493,0.25033715,-6.362292
312,1747486656250,1.441158,-1.168058,0.7297312,2.3430493,0.25033715,-6.362292
313,1747486656260,0.9108216,-1.3337729,0.51398456,2.6727486,0.33981937,-5.9660134
314,1747486656270,0.7316837,-1.4011327,0.38585448,2.666357,0.3898868,-5.638445
315,1747486656280,0.59086263,-1.398204,0.21965154,2.5102956,0.38456047,-5.2869077
316,1747486656290,0.5691415150000001,-1.3847808499999998,0.149607102,2.2088258,0.34408042,-4.970524
317,1747486656300,0.60770255,-1.46654,-0.06711575,1.3411679,0.44900897,-4.6280413
318,1747486656310,0.58939826,-1.5885686,-0.07590181,0.9044095,0.65886605,-4.6019425
319,1747486656320,0.4790844,-1.803339,-0.05588911,0.47830373,0.9438243,-4.61153
320,1747486656330,0.2689511,-2.0029778,-0.020500809,0.283893,1.0759171,-4.555071
321,1747486656340,-0.179870191,-2.20615555,-0.0148874925,0.208525515,0.978711715,-4.11671435
322,1747486656350,-0.3333822,-2.2653394,-0.021232981,0.20559604,0.89109373,-3.9025962
323,1747486656360,-0.9066727,-2.293406,-0.08566409,0.28336033,0.304133,-2.5193505
324,1747486656370,-1.0172306,-2.2277546,-0.12349297,0.295610875,0.15259913225,-2.098571
325,1747486656380,-0.85908145,-2.075463,-0.28554698,0.27483824,-0.20026971,-0.8878979
326,1747486656390,-0.7475473,-1.990531,-0.36901456,-0.10066749,-0.2428803,0.5182512
327,1747486656400,-0.68409246,-1.8599603,-0.42929673,-0.37710363,-0.18162759,1.0253171
328,1747486656410,-0.656514,-1.7603849,-0.44955346,-0.69135666,-0.12410331,1.4919028
329,1747486656420,-0.6157564,-1.658369,-0.42099872,-0.9853696,-0.14114754,1.9462382
330,1747486656430,-0.5935472,-1.5714846,-0.35998443,-1.1957593,-0.24074976,2.422944
331,1747486656440,-0.38536638,-1.4540931,-0.18145657,-1.2391689,-0.48602691,3.43760835
332,1747486656450,-0.23649146,-1.3969837,-0.09469421,-1.1765846,-0.5603291,3.9382827
333,1747486656460,-0.0572314231,-1.25494235,-0.10543273,-1.0130665,-0.49055427,4.386759
334,1747486656470,-0.0012202862,-1.1983211,-0.12056428,-0.8676579,-0.38083205,4.8512144
335,1747486656480,0.12129646,-1.0438329,-0.25357547,-0.8490158,-0.2972088,5.484514
336,1747486656490,0.31727442,-0.8998391,-0.413677,-1.037035,-0.35739622,5.9079566
337,1747486656500,1.1343781,-0.52350277,-0.6216138,-1.758219,-0.6066681,6.2355256
338,1747486656510,1.58356545,-0.163762415,-0.54607807,-2.1603563,-0.61838603,6.160957
339,1747486656520,1.6920489,-0.0622346,-0.47005424,-2.4586303,-0.6711166,6.056561
340,1747486656530,1.7750284,0.0059794024999999,0.30739008,-2.1923141,-1.1004182,6.1790667
341,1747486656540,1.7540395,0.033923957,0.4729829,-1.5350461,-1.2538162,6.654707
342,1747486656550,1.8741156,0.19841854,0.66896087,-0.04420847,-1.3832459,7.985222349999999
343,1747486656560,2.3114662,0.3338703,0.6428468,0.36432046,-1.3933659,8.336227
344,1747486656570,3.6679364,0.29299072,0.0796846935,1.278051025,-1.07858025,8.225173
345,1747486656580,3.8273058,0.28286234,-0.041245673,1.5701998,-0.8655274,7.8249
346,1747486656590,3.80412,0.23942018,-0.25821257,1.530785,-0.6870956,7.2635055
347,1747486656600,3.42753995,0.122516737,-0.41050428,1.3230585,-0.60720074,6.9204907
348,1747486656610,3.1744527,-0.0229413829999999,-0.35266273,1.0657971,-0.53476274,6.8453894
349,1747486656620,3.0685318,-0.12544543,-0.294089,0.67484504,-0.17417073,7.2773542
350,1747486656630,3.231318,0.0745594884999999,-0.357055765,0.221308695,0.514522735,7.825699200000001
351,1747486656640,3.3521264,0.19304928,-0.42587993,-0.228765545,1.04529075,7.9687109
352,1747486656650,3.8584231,0.529116095,-0.6074584700000001,-0.7821704300000001,1.56886825,7.8182422
353,1747486656660,3.9969256,0.63503695,-0.64309084,-1.0759171,1.8040254,7.661382
354,1747486656670,4.3293314,0.96402615,-0.34900185,-1.9584887,1.75236,6.178534
355,1747486656680,4.088691,1.1290088,0.11543907,-1.778459,1.2106731,5.0466905
356,1747486656690,3.6220536,1.2666571,0.48640612,-1.1707256,0.39468047,4.0336237
357,1747486656700,3.0758533,1.2983845,0.58256465,-0.44528055,-0.38083205,3.3065808
358,1747486656710,2.24313005,1.2780057500000002,0.235881321,0.0956074869999999,-0.92598112,2.19337955
359,1747486656720,1.8909554,1.2730026,-0.028554698,0.07829694,-0.92944324,2.0266657
360,1747486656730,1.6364038,1.275199,-0.21086545,-0.50173956,-0.5390238,1.6831179
361,1747486656740,1.3681849,1.2783719,-0.23746772,-1.2128036,-0.015446335,1.3448963
362,1747486656750,0.8300387,1.2039344,0.187680015,-1.8343854,0.5411543,1.0290455
363,1747486656760,0.483477415,1.1406016,0.58366292,-2.1156152500000003,1.37072905,0.584297575
364,1747486656770,0.39659303,1.1219312,0.6972716,-2.0229373,1.6990968,0.40906155
365,1747486656780,0.34290044,1.0745840000000002,0.86884378,-1.1038803,1.6506273,0.23888555
366,1747486656790,0.36510965,1.0682385,0.8920292,-0.6828345,1.5515577,0.16724652
367,1747486656800,0.4385709,1.0977695,0.852492,0.06178534,1.3049489,0.022903185
368,1747486656810,0.8275981299999999,1.19136545,0.47932844,1.6242619500000002,0.692155575,-0.58163438
369,1747486656820,1.0387076,1.2435937,0.257114305,1.98671815,0.48363006,-1.04608968
370,1747486656830,1.1395032,1.2727585,0.14252943,2.1193435,0.37124467,-1.3177321
371,1747486656840,1.1951483,1.3306,-0.09200958,2.1976407,0.07456851,-1.917476
372,1747486656850,1.0106411,1.3581786,-0.36632994,1.8439728,-0.3089267,-2.674879
373,1747486656860,1.0494461,1.3703815,-0.43637437,1.5371766,-0.22796659,-2.8138962
374,1747486656870,1.2217506,1.3681849,-0.49690056,1.154214,-0.041012682,-3.0045784
375,1747486656880,1.5353642,1.3415827,-0.5130083,0.8831042,0.06924219,-3.2676988
376,1747486656890,2.0200617,1.359887,-0.4053791,0.90627375,-0.576840713,-4.3571979
377,1747486656900,2.7297804,1.461903,-0.09396204,1.067395,-1.0524813,-5.003547
378,1747486656910,2.898912,1.4443307,-0.09664667,1.2692626,-1.4977618,-5.6826534
379,1747486656920,2.8547378,1.3349931,-0.10348027,1.310808,-1.7395768,-6.1795993
380,1747486656930,2.9728613,1.2893544,-0.22062775,1.1382351,-1.6783241,-6.5050373
381,1747486656940,3.018744,1.343047,-0.37682438,0.6956177,-1.3017532,-6.6744146
382,1747486656950,3.4739108,1.3662325,-0.53887844,-1.262072085,-0.097471695,-6.87202085
383,1747486656960,3.8054627,1.2590913,-0.0761458749999999,-1.6085493,0.149935975,-7.035539
384,1747486656970,3.8932014,1.1983211,0.11226633,-1.6905746,0.23435818,-7.125554
385,1747486656980,4.006688,1.0787331,0.49128726,-1.5201324,0.175236,-7.3279543
386,1747486656990,4.073804,1.0133257,0.7636551,-1.0966897,-0.039414786,-7.5159736
387,1747486657000,4.0186467,0.8161274,0.91375035,-0.17470337,-0.624245,-7.795605
388,1747486657010,3.904428,0.75096416,0.9274175,0.13848437,-0.7717841,-7.850999
389,1747486657020,3.785084,0.6450433,0.9205839,0.35313517,-0.7089335,-7.8456726
390,1747486657030,3.709182,0.56889745,0.932054575,0.56938386,-0.4181163,-7.8067904
391,1747486657040,3.4143608,0.30409533,0.96622264,0.76272935,-0.13582122,-7.749266
392,1747486657050,2.8657203,-0.11836776,0.88007045,1.1797804,0.11664646,-7.5543227
393,1747486657060,2.41519045,-0.4162396149999999,0.7436424500000001,1.4247912,0.008522115,-7.25604895
394,1747486657070,2.2694883,-0.5027579,0.6875093,1.4860439,-0.03781689,-7.1351414
395,1747486657080,1.9548985,-0.6433349,0.55815893,1.5078819,-0.092145376,-6.8496504
396,1747486657090,1.6998588,-0.75486904,0.47151858,1.4397049,-0.08628642,-6.5481806
397,1747486657100,1.2515256,-0.9471862,0.3968371,1.2053467,0.18162759,-5.9415126
398,1747486657110,0.96353805,-1.0518868,0.36755022,1.0343717,0.51771855,-5.4898405
399,1747486657120,0.77146494,-1.1670818,0.31678632,0.814661,0.8990832,-4.8991513
400,1747486657130,0.6106312,-1.2996049,0.2630937,0.7344999,1.0167949,-4.6988816
401,1747486657140,0.22794947,-1.5705084,0.24356914,0.48948902,1.242631,-3.83655
402,1747486657150,0.053204484,-1.6918048,0.25699228,0.48363006,1.0610034,-3.361442
403,1747486657160,-0.076389916,-1.7638018,0.21306199,0.48203218,0.813862,-2.8932583
404,1747486657170,-0.18157859,-1.8257922,0.17401282,0.4628574,0.6412892,-2.431466
405,1747486657180,-0.27846932,-1.8894912,0.11177822,0.40586576,0.57790595,-1.9446403
406,1747486657190,-0.37194324,-1.9358622,0.03734076,0.267914,0.60080916,-1.3422332
407,1747486657200,-0.55620646,-1.9802804,-0.105676785,-0.060720075,0.7004114,-0.40906155
408,1747486657210,-0.65846646,-1.964905,-0.16400647,-0.2615224,0.73769563,0.096939065
409,1747486657220,-0.74193406,-1.9280523,-0.22819352,-0.515588,0.7749799,0.644485
410,1747486657230,-0.76756,-1.8870505,-0.25894472,-0.8069378,0.82611257,1.2186625
411,1747486657240,-0.5111779000000001,-1.7137701,-0.161199815,-1.36593535,0.82850942,2.43439555
412,1747486657250,-0.4510178,-1.6744769,-0.13667206,-1.4375744,0.8000136,2.6375947
413,1747486657260,-0.36852646,-1.5756336,-0.09298581,-1.5164039,0.67484504,2.9933932
414,1747486657270,-0.20671648,-1.3933228,-0.045638707,-1.5339808,0.2396845,3.7460024
415,1747486657280,-0.06467517,-1.3445114,-0.017816179,-1.5100124,0.05006743,4.078365
416,1747486657290,0.12495731,-1.261776,0.020500809,-1.4429007,-0.08522116,4.340953
417,1747486657300,0.38060728,-1.1312053999999998,0.0364865585,-1.2796489,-0.068975874,4.587028699999999
418,1747486657310,0.50507646,-1.00649213,0.0040269445,-1.2277173,-0.035153728,4.646151
419,1747486657320,0.5427833,-0.93278676,-0.013667206,-1.0253171,0.019707393,4.892227
420,1747486657330,0.53863436,-0.8336995,0.015375607,-0.8474179,-0.11451593,5.124987
421,1747486657340,0.60184515,-0.759018,0.008542004,-0.58749336,-0.33502567,5.5052867
422,1747486657350,0.7412019,-0.6919023,0.0019524579,-0.3818973,-0.48203218,5.8008976
423,1747486657360,0.9410847,-0.60843474,-0.008542004,-0.1768339,-0.5725796,6.046441
424,1747486657370,1.4304196,-0.41245672,-0.17913802,-0.0015978967,-0.5864281,6.221144
425,1747486657380,1.55623105,-0.36205891,-0.23624741,0.12144015,-0.535828,6.3974457
426,1747486657390,1.8841219,-0.14985114,-0.383658,0.083090626,-0.49694586,6.502907
427,1747486657400,2.0544739,0.036608588,-0.35974038,0.036218993,-0.4149205,6.6877303
428,1747486657410,2.725387,0.22575295,-0.20622836,0.05965481,-0.20879184,6.9439263
429,1747486657420,2.9577298,0.34753752,-0.15619664,0.3153183,0.4149205,7.044594
430,1747486657430,2.9894571,0.40171823,-0.08615221,0.53529537,0.4282363,6.987602
431,1747486657440,2.9992194,0.44564855,-0.07785426,0.7850999,0.26525086,7.1164994
432,1747486657450,3.2115493,0.53863436,-0.13325526,0.9571401,-0.034088463,7.374826
433,1747486657460,3.603017,0.72753465,-0.35168648,0.922519,-0.5139901,7.2986593
434,1747486657470,4.296384,0.89398164,-0.40830776,0.6327671,-0.46339005,7.010505
435,1747486657480,4.250257,1.0111293,-0.32996538,0.23329292,-0.07084008,6.7441893
436,1747486657490,4.1121206,1.0072243,-0.24503349,-0.2050634,0.56885123,6.5598984
437,1747486657500,3.913702,0.99502134,-0.10933765,-0.660464,1.3278521,6.398511
438,1747486657510,3.6181488,0.8793382,0.20647243,-0.89855057,1.6692694,6.0272665
439,1747486657520,3.6884372,0.8434618,0.41538543,-0.6673882,1.3811153,5.573996
440,1747486657530,3.69941975,0.88531765,0.506296765,-0.39121838,1.1195929,5.22112725
441,1747486657540,3.4438918,1.0460293,0.6313761,0.6135923,0.29933932,4.126302
442,1747486657550,2.7041545,1.1919756,0.22306833,1.2325109,-0.18642128,3.529221
443,1747486657560,2.2791287,1.2939915,-0.1769415,1.52785555,-0.54488278,2.5608958
444,1747486657570,2.1628354,1.3171769,-0.30580372,1.3981596,-0.4841627,2.3979104
445,1747486657580,1.9385467,1.3306,-0.43637437,0.7755125,-0.14221281,1.9600866
446,1747486657590,1.679602,1.3340169,-0.4612682,0.19920446,0.2412824,1.6181368
447,1747486657600,1.3957634,1.309123,-0.4080637,-0.35579833,0.62903863,1.3140037
448,1747486657610,0.83760446,1.244692,-0.19500175,-1.1547467,1.2660668,0.80587256
449,1747486657620,0.5762192,1.2061309,-0.039781332,-1.3134711,1.4263891,0.57417756
450,1747486657630,0.37804466,1.1768441,0.06980037,-1.3273195,1.4716629,0.3850931
451,1747486657640,0.30507156,1.1624447,0.13691612,-1.23837,1.4205302,0.22264028
452,1747486657650,0.49519214,1.2090596,0.3214234,-0.660464,0.9938917,-0.44048685
453,1747486657660,0.53228885,1.2244352,0.37023485,-0.18801917,0.7030745,-0.87831056
454,1747486657670,0.511788,1.2263877,0.36950266,0.32330775,0.4314321,-1.2692626
455,1747486657680,0.49079913,1.2010058,0.28432667,0.7621967,0.18322548,-1.5941683
456,1747486657690,0.4217309,1.1853861,0.10396838,1.0460896,0.033023197,-1.8514296
457,1747486657700,0.36901456,1.1543908,-0.33655494,0.97951066,-0.10333065,-2.066613
458,1747486657710,0.55523026,1.2051547,-0.45736328,0.6428871,-0.11132014,-2.122007
459,1747486657720,0.84809893,1.2905748,-0.45760733,0.2657835,-0.017576864,-2.2759376
460,1747486657730,1.2205303,1.3850248,-0.37633628,-0.05539375,0.0793622,-2.5747442
461,1747486657740,1.657881,1.4870408,-0.21989559,-0.26897928,0.09534117,-3.161705
462,1747486657750,2.33074665,1.52694415,0.062600685,0.1182443595,-0.27430559,-4.82484915
463,1747486657760,2.3768735,1.46763825,0.0662615424999999,0.353135175,-0.46285739,-5.351888649999999
464,1747486657770,2.4093332,1.428223,0.04490653,0.4527374,-0.5342301,-5.565474
465,1747486657780,2.5433207,1.3186413,-0.023429496,0.5289038,-0.48469532,-5.850965
466,1747486657790,2.660224,1.2249234,-0.005857374,0.5289038,-0.4000068,-6.0618873
467,1747486657800,3.1685953,1.2512815,0.3648656,0.716923,-0.6247776,-6.33353
468,1747486657810,3.6401138,1.2344415,0.5042223,1.031176,-0.8362326,-6.66749
469,1747486657820,4.214136,1.1709867,0.54253924,1.2602079,-0.9539443,-7.1713605
470,1747486657830,4.4608784,1.0809295,0.42026657,1.3411679,-0.9470201,-7.7455378
471,1747486657840,4.511154,0.84517026,0.19890666,0.8671253,-0.8202536,-8.429438
472,1747486657850,4.4362288,0.6731099,0.3121492,0.6066681,-0.56938386,-8.553541
473,1747486657860,4.29858,0.45760733,0.54253924,0.5219796,-0.2263687,-8.600412
474,1747486657870,4.163861,0.28994003,0.8190561,0.67324716,0.0777643,-8.59775
475,1747486657880,3.9996104,0.099087246,1.018451,1.0285128,0.25353295,-8.562063
476,1747486657890,3.7352962,-0.090789296,1.1204668,1.4892397,0.23435818,-8.49655
477,1747486657900,3.05047155,-0.453824435,1.06823855,2.57128215,-0.49667954,-8.085357
478,1747486657910,2.71367255,-0.56304005,0.93620362,2.74172435,-0.57471015,-7.880826499999999
479,1747486657920,2.5264807,-0.6079466,0.86249834,2.786199,-0.5789712,-7.761517
480,1747486657930,2.1347687,-0.6787232,0.716308,2.7308054,-0.52144694,-7.4430027
481,1747486657940,1.351467,-0.8727487,0.503978225,2.40696505,-0.402936275,-6.6022427
482,1747486657950,0.8232051,-0.99599765,0.4253918,2.15982365,-0.342748835,-5.8714715
483,1747486657960,0.49006696,-1.04834795,0.38573249,2.01761085,-0.336090935,-5.3095445
484,1747486657970,0.33045352,-1.0675064,0.36266908,1.9462382,-0.34141725,-5.016863
485,1747486657980,-0.18987654,-1.1133891,0.20940112,1.4663365,-0.3472762,-3.6373456
486,1747486657990,-0.462610515,-1.1270563500000002,0.11519502,1.028246575,-0.2809635,-2.72068545
487,1747486658000,-0.53180075,-1.1368186,0.08712844,0.87138635,-0.2609898,-2.4224114
488,1747486658010,-0.6333285500000001,-1.223459,0.06089228,0.4407531799999999,-0.23568976,-1.6333167
489,1747486658020,-0.6501685,-1.2539662,0.05027579,0.30679616,-0.24074976,-1.391768
490,1747486658030,-0.8147851150000001,-1.3635478,-0.019402551,-0.365918335,-0.36591834,-0.343281475
491,1747486658040,-0.84809893,-1.3842927,-0.025137896,-0.49960902,-0.37444046,-0.11771172
492,1747486658050,-0.87201655,-1.4267586,-0.029774986,-0.8245147,-0.36432046,0.46871635
493,1747486658060,-0.86933196,-1.4389615,-0.012446919,-1.051416,-0.33822146,0.94755274
494,1747486658070,-0.6550496,-1.4467713,-0.007565775,-1.4727281,-0.27856666,1.8279938
495,1747486658080,-0.6550496,-1.4467713,-0.007565775,-1.56833555,-0.257794,2.0109529
496,1747486658090,-0.54644415,-1.4188268,0.023917611,-1.663943,-0.23702134,2.193912
497,1747486658100,-0.33704305,-1.355616,0.1000634735,-1.8168086,-0.21624869,2.5236115
498,1747486658110,-0.1040904085,-1.2675113,0.18048034,-2.06395,-0.1523328099999999,3.34546305
499,1747486658120,0.028066583,-1.2146729,0.21623473,-2.095908,-0.13528858,3.5542548
500,1747486658130,0.08932495,-1.1490215,0.22990192,-2.0628846,-0.10759171,3.7108488
501,1747486658140,0.09859913,-1.1097283,0.23185438,-2.0165455,-0.12410331,3.8472025
502,1747486658150,0.08615221,-1.0775127,0.24967057,-1.9419771,-0.20453078,4.0251017
503,1747486658160,0.10494461,-0.9835507,0.23722363,-1.6687368,-0.5470133,4.453871
504,1747486658170,0.22502078,-0.97085977,0.23722363,-1.5132082,-0.71532506,4.6349654
505,1747486658180,0.3619369,-0.9408407,0.24015234,-1.3401027,-0.7840346,4.761732
506,1747486658190,0.49763274,-0.91521466,0.25211114,-1.1707256,-0.76113147,4.8581386
507,1747486658200,0.61746484,-0.87958235,0.24967057,-1.009338,-0.6498113,4.934305
508,1747486658210,0.8617661,-0.80123997,0.13545178,-0.84155893,-0.3584615,4.988101
509,1747486658220,0.8390688,-0.7197248,0.12154051,-0.42557314,-0.123038046,5.026983
510,1747486658230,0.8266219,-0.6452874,0.070532545,-0.10652645,-0.26365295,5.1846423
511,1747486658240,0.85273606,-0.5747548,-0.030019043,0.20985709,-0.51718587,5.462676
512,1747486658250,0.9725681,-0.50885934,-0.16547081,0.43729106,-0.819721,5.7657437
513,1747486658260,1.5143752,-0.42368335,-0.32069123,0.67963874,-1.164334,6.184393
514,1747486658270,1.6833849,-0.376946405,-0.357177795,0.70014507,-1.07724865,6.225671800000001
515,1747486658280,2.0752187,-0.22624107,-0.41172457,0.67537767,-0.5581986,6.329269
516,1747486658290,2.3351398,-0.13716017,-0.46029195,0.49321744,-0.0127831735,6.4395237
517,1747486658300,2.5713873,0.011714748,-0.55864704,0.24873926,0.19441076,6.530604
518,1747486658310,2.9574857,0.110557936,-0.34924594,-0.03195793,0.08841695,6.886402
519,1747486658320,3.0649929,0.090667268,-0.282740335,-0.0221042355,0.121706465,6.97694965
520,1747486658330,3.3826334,0.020744866,-0.031239327,0.14221281,0.30040458,7.2027855
521,1747486658340,3.595451,-0.020256752,0.17132819,0.46179214,0.39787626,7.3066487
522,1747486658350,3.8622057,0.006345488,0.1786499,1.627724,0.27164245,7.2043834
523,1747486658360,4.2578225,0.24015234,-0.12495731,2.137453,0.2050634,7.0307455
524,1747486658370,4.28491275,0.32850105,-0.372919455,2.1861889,0.174703365,6.871222
525,1747486658380,4.149217,0.60062486,-0.9198518,1.8482338,-0.03781689,6.4469805
526,1747486658390,3.9808176,0.8102701,-1.1888028,1.1307782,-0.06711166,6.320214
527,1747486658400,3.9110172,0.9488945,-1.0836142,-0.69721556,0.25726137,5.8419104
528,1747486658410,3.7609224,1.0111293,-0.64431113,-1.3662016,0.39468047,5.4435015
529,1747486658420,3.5312643,1.0135698,-0.31019676,-1.7603495,0.5161206,5.017928
530,1747486658430,3.2447412,1.0089327,-0.09786696,-1.991512,0.69668293,4.604073
531,1747486658440,2.9401577,1.0025872,0.024405725,-2.1656826,0.8836369,4.2269692
532,1747486658450,2.695368,1.0718994,0.21306199,-2.4325314,1.0018812,3.0738206
533,1747486658460,2.452043,1.1578076,0.3277689,-2.442119,0.9347696,2.3904533
534,1747486658470,2.2918194,1.15976005,0.4191682999999999,-2.3880567,0.88843058,2.08259195
535,1747486658480,1.7869871,1.155611,0.7382732,-2.0399814,0.7568704,1.3097427
536,1747486658490,1.4611707,1.1778203,0.93010217,-1.5733956,0.6812366,0.9464875
537,1747486658500,1.0101529,1.1661055,0.97647303,-0.4463458,0.53316486,0.283893
538,1747486658510,0.8117344,1.1619565,0.8339436,-0.0058589545,0.5608617,-0.017576864
539,1747486658520,0.73327,1.164153,0.7601163,0.3270362,0.6359629,-0.2908172
540,1747486658530,0.5632841,1.1668377,0.5276518,0.63915867,0.64075655,-0.66152924
541,1747486658540,0.5215503,1.1480453,0.3841461,0.728907185,0.592819675,-0.830373645
542,1747486658550,0.45248213,1.0411482,0.14423785,1.0056096,0.30786142,-1.5957662
543,1747486658560,0.4288086,0.9711038,0.09518232,0.9933591,0.17257284,-1.8370485
544,1747486658570,0.40977213,0.957070475,0.1061648975,0.99522332,0.13635385,-1.94091175
545,1747486658580,0.372797445,0.926685325,0.1167813875,1.00241382,0.12863068,-2.1225394
546,1747486658590,0.345218965,0.8992289,0.093962035,0.90920318,0.41438785,-2.3092271
547,1747486658600,0.56426036,0.942305,-0.045638707,0.81066626,0.6716492,-2.4181504
548,1747486658610,0.8812907,1.0323621,-0.0656514,0.7749799,0.64182186,-2.7073696
549,1747486658620,1.2778838,1.091424,-0.063943,0.829841,0.41758367,-3.1670313
550,1747486658630,1.6288381,1.1399914,-0.011958805,0.99442434,0.02876214,-3.8035266
551,1747486658640,1.70791265,1.07421795,-0.086640325,1.2708606,-0.7206514,-4.8107343
552,1747486658650,1.7062042,1.0350468,-0.09786696,1.2985574,-0.8383631,-5.00408
553,1747486658660,1.7913802,1.002099,-0.12495731,1.3076121,-0.6924219,-5.065865
554,1747486658670,1.875946,0.9785475,-0.19756434,1.25727835,-0.529969075,-5.0946271
555,1747486658680,2.1581984,0.90447617,-0.41758195,0.98803276,-0.0777643,-5.234177
556,1747486658690,2.3151271,0.88031447,-0.460536,0.6897587,0.04474111,-5.3859773
557,1747486658700,2.95895,0.90691674,-0.35827604,0.32011196,-0.26844665,-5.8893147
558,1747486658710,3.2425447,0.9171671,-0.25845662,0.231961335,-0.64714815,-6.322611
559,1747486658720,3.6303515,0.9354714,-0.079318605,0.23648871,-0.7984157,-6.480004
560,1747486658730,3.9342029,0.9880657,0.1642505275,0.452204755,-1.04209495,-6.79558835
561,1747486658740,4.3337245,1.0457853,0.43881494,0.8341021,-1.2239889,-7.352988
562,1747486658750,4.288086,0.9859913,0.3397277,0.8111989,-0.91186637,-7.5330176
563,1747486658760,4.249281,0.84761083,0.26187342,0.6764429,-0.46339005,-7.680024
564,1747486658770,3.9151664,0.47347105,0.48518583,0.577107,-0.24714136,-7.7319557
565,1747486658780,3.6989317,0.32728076,0.65260905,0.5581986,-0.053795855,-7.722102
566,1747486658790,3.462196,0.19402552,0.7890371,0.6993461,-0.082025364,-7.595868
567,1747486658800,3.252795,0.010738519,0.87299275,0.8878979,-0.047404267,-7.435546
568,1747486658810,3.005321,-0.21574661,0.9235126,1.1456919,0.016511599,-7.2406025
569,1747486658820,2.3890765,-0.5459561,0.861278,1.7331853,-0.18855181,-6.7207537
570,1747486658830,2.0537417,-0.65919864,0.78464407,1.9968382,-0.41545314,-6.403837
571,1747486658840,1.7586764,-0.7678041,0.6726217,2.1784658,-0.61572284,-6.0768013
572,1747486658850,1.4291992,-0.8710403,0.5657247,2.238387,-0.75580512,-5.560680400000001
573,1747486658860,1.0882512,-0.9405966,0.47127452,2.227468,-0.73982614,-5.4152718
574,1747486658870,0.361814855,-1.1482893,0.136428,1.6839168,-0.36192359,-4.52124885
575,1747486658880,0.092619725,-1.2305366,0.0373407585,1.32625425,-0.23861923,-4.084224
576,1747486658890,-0.15827112,-1.31668885,-0.0477131914999999,0.947552725,-0.17976338,-3.63228545
577,1747486658900,-0.27920148,-1.3520772,-0.08859278,0.75420725,-0.165116,-3.4029872
578,1747486658910,-0.6655441,-1.4533609,-0.22282428,-0.17257284,-0.2082592,-2.273807
579,1747486658920,-0.7365648,-1.4919219,-0.23551524,-0.79255676,-0.18002969,-1.4439659
580,1747486658930,-0.7246059,-1.5258459,-0.17669745,-1.2389026,-0.101200126,-0.7797736
581,1747486658940,-0.606116165,-1.53865885,-0.0605262,-1.71214625,0.0727043025,0.0601874399999999
582,1747486658950,-0.55767083,-1.53512,-0.02318544,-1.839179,0.12996227,0.304133
583,1747486658960,-0.33655494,-1.5524482,0.119099945,-2.092712,0.26684874,0.99442434
584,1747486658970,-0.306535895,-1.5506177,0.1630302425,-2.08871725,0.25592978,1.12997927
585,1747486658980,-0.25723633,-1.5187683,0.2638259,-1.9771309,0.1470065,1.5270566
586,1747486658990,-0.24771811,-1.4938743,0.28994003,-1.8018948,0.009054748,1.7923075
587,1747486659000,-0.2523552,-1.4565337,0.29652956,-1.5947009,-0.13795175,2.0639498
588,1747486659010,-0.205130105,-1.31022125,0.20879097,-1.1755193,-0.3520699,2.8117654
589,1747486659020,-0.17498904,-1.2800802,0.1867038,-1.0615361,-0.43303,3.1579764
590,1747486659030,-0.010860547,-1.1844098,0.133255255,-0.964597,-0.50333744,3.4546525
591,1747486659040,0.042954076,-1.1565872,0.11177822,-0.8852348,-0.509729,3.690076
592,1747486659050,0.312271235,-1.06262525,-0.00988431865,-0.8655273649999999,-0.42424157,4.11271965
593,1747486659060,0.36681804,-1.0384636,-0.024405725,-0.87618,-0.38296258,4.18063
594,1747486659070,0.48542988,-0.9835507,-0.029286869,-0.8815063,-0.2860235,4.2743735
595,1747486659080,0.5133744,-0.88263308,0.001342315,-0.8522116,-0.18429075,4.3574643
596,1747486659090,0.507395,-0.8537123,0.007565775,-0.7664578,-0.061252706,4.49009
597,1747486659100,0.5933032,-0.73412424,0.0388051,-0.4213121,-0.06338324,4.7931576
598,1747486659110,0.59842837,-0.6731099,0.032703668,-0.1454086,-0.23276028,5.002482
599,1747486659120,0.626494935,-0.6545615499999999,0.0039049144999999,-0.0101200099999999,-0.339020415,5.14709165
600,1747486659130,0.71911468,-0.6090448749999999,-0.0917655245,0.21385185,-0.518783805,5.47146465
601,1747486659140,1.0333383,-0.53985465,-0.27017137,0.34887412,-0.6402239,6.0096893
602,1747486659150,1.6044323,-0.4080637,-0.366574,0.070307456,-0.3435478,6.5311365
603,1747486659160,1.9937036,-0.30385128,-0.37633628,-0.22796659,-0.020772656,6.789463
604,1747486659170,2.4051843,-0.16010156,-0.3077562,-0.4250405,0.1603223,6.890663
605,1747486659180,2.6917074,-0.047347106,-0.21647878,-0.51292485,0.18588865,6.87788
606,1747486659190,2.9465031,0.072362975,0.0580856235,-0.47990164,0.0793622,6.762831
607,1747486659200,2.9529706,0.091765525,0.1915849399999999,0.2716424349999999,-0.60214075,6.90584325
608,1747486659210,2.954801,0.09298581,0.24600971,0.5123922,-0.7414241,6.9886675
609,1747486659220,2.9713972,0.13569583,0.277005,1.0199907,-0.82557994,7.316769
610,1747486659230,3.1805542,0.21769907,0.23868799,1.2098741,-0.7259777199999999,7.5335502
611,1747486659240,3.969835,0.47884035,-0.25552794,1.2655342,0.5917544,8.236093
612,1747486659250,4.3293314,0.613804,-0.45516676,0.3275688125,1.47805445,7.753261
613,1747486659260,4.446723,0.7804951,-0.503002,-0.015446335,1.7188042,7.539409
614,1747486659270,4.476986,0.8080735,-0.422219,-0.6412892,1.9451729,7.001983
615,1747486659280,4.479915,0.8351639,-0.20647243,-1.0407634,1.8413097,6.3244753
616,1747486659290,3.8451219,0.9901402,0.3773125,-1.1206582,1.5014902,5.583584
617,1747486659300,3.3168601,1.06579795,0.52569932,-0.551807,0.5656554,4.3500075
618,1747486659310,3.1637142,1.0828819,0.5339973,-0.19760656,0.24873926,3.9057922
619,1747486659320,2.9220974,1.1780643,0.536926,0.28495824,0.028229509,3.4253578
620,1747486659330,2.7231908,1.2659249,0.38853914,0.588026,-0.033023197,3.0376017
621,1747486659340,2.5608926,1.3159567,0.20281157,0.71106404,-0.03888215,2.6077673
622,1747486659350,2.1574662,1.3877095000000002,-0.213428065,0.49215218,0.15446335,1.7720674
623,1747486659360,2.122566,1.381364,-0.3065359,0.09161274,0.29507825,1.29909
624,1747486659370,2.0506911,1.4060138,-0.34997809,-0.16484968,0.342482525,1.00081595
625,1747486659380,1.7699032,1.4392056,-0.36559775,-0.9262474,0.43409526,0.08362326
626,1747486659390,1.5209647,1.410895,-0.28920785,-1.3427658,0.43036684,-0.4788364
627,1747486659400,0.9798898,1.3708695,-0.033679903,-1.6362462,0.5864281,-1.417867
628,1747486659410,0.83443177,1.3286476,0.01415532,-1.5227956,0.69721556,-1.6932379
629,1747486659420,0.75999427,1.2681215,0.024161667,-1.335309,0.7749799,-1.9510318
630,1747486659430,0.7512082,1.2185779,0.022209208,-1.1025487,0.75793564,-2.2082932
631,1747486659440,0.8839754,1.0963051,-0.036852647,-0.5539375,0.53955644,-2.7590349
632,1747486659450,0.9376679,1.0467615,-0.056133166,-0.32384038,0.38242993,-3.035471
633,1747486659460,1.0418804,0.99868226,-0.07809832,-0.04527374,0.142479122,-3.5265579
634,1747486659470,1.1473131,1.0040516,-0.10665302,0.04580637,0.058589544,-3.7023265
635,1747486659480,1.2727585,1.040416,-0.18109047,0.3898868,-0.28122982,-4.266384
636,1747486659490,1.6204181,1.07482815,-0.31532196,0.44315,-0.27483824,-4.5305696
637,1747486659500,1.7403722,1.0782449,-0.34753752,0.43516052,-0.22423817,-4.9018145
638,1747486659510,1.8858303,1.073852,-0.35071027,0.43729106,-0.16192019,-5.2986255
639,1747486659520,2.067897,0.933519,-0.35144243,0.4101268,-0.22210763,-5.9154134
640,1747486659530,2.1765025,0.80441266,-0.2443013,0.43036684,-0.2876214,-6.156696
641,1747486659540,2.3778498,0.6672525,-0.10396838,0.53529537,-0.4788364,-6.43473
642,1747486659550,2.74625405,0.62393235,0.0798067285,0.8149273,-1.07298765,-6.88826635
643,1747486659560,2.8720655,0.6552937,0.14423785,0.9155948,-1.3454291,-7.042996
644,1747486659570,3.1784794,0.69214635,0.15277985,0.819721,-1.4202639,-7.26776675
645,1747486659580,3.4589013,0.670059165,0.232830615,0.570715435,-1.36273955,-7.591074450000001
646,1747486659590,3.4329093,0.61111933,0.30433938,0.017576864,-0.819721,-7.6576533
647,1747486659600,3.4753754,0.4024504,0.6272271,-0.1965413,-0.350472,-7.648066
648,1747486659610,3.4412072,0.06809197,0.9005712,-0.13156016,0.13741912,-7.7114496
649,1747486659620,3.2476697,-0.0043930304,1.0250404,0.3797668,0.25193503,-7.7375484
650,1747486659630,3.039489,-0.057109397,1.1199788,0.76752305,0.1107875,-7.5884113
651,1747486659640,2.8252068,-0.060770255,1.0782449,1.2474247,-0.058589544,-7.273626
652,1747486659650,2.70988965,-0.0230634099999999,0.96939533,1.5696672,-0.21891184,-6.905044
653,1747486659660,2.7805443,-0.07785426,0.84614646,1.808819,-0.2775014,-6.550311
654,1747486659670,2.7043984,-0.1313028,0.79831123,1.7571537,-0.1438107,-6.6280756
655,1747486659680,2.27986075,-0.25857865,0.6765267,1.66074725,0.2942793,-6.6019765
656,1747486659690,2.1237862,-0.3385074,0.6213697,1.6160061,0.4612595,-6.563627
657,1747486659700,1.7406163,-0.48542988,0.48518583,1.3006879,0.9624664,-6.087454
658,1747486659710,0.9642702,-0.6655441,0.39781332,1.1872373,1.0663297,-5.597965
659,1747486659720,0.588178,-0.73388016,0.36730617,1.1696603,0.98750013,-5.147358
660,1747486659730,0.30922052,-0.77854264,0.31263736,1.1707256,0.84848315,-4.671717
661,1747486659740,0.09152147,-0.827354,0.25992095,1.1515509,0.7030745,-4.1939464
662,1747486659750,-0.23039004,-0.9659786,0.10323621,1.0066749,0.57098174,-3.1819448
663,1747486659760,-0.40928401,-1.0567679,-0.069434285,0.8117315,0.6098639,-2.6173549
664,1747486659770,-0.4510178,-1.0767806,-0.117147475,0.55074173,0.6924219,-2.0628846
665,1747486659780,-0.5191097,-1.1031388,-0.19329333,0.25086978,0.7914915,-1.5515577
666,1747486659790,-0.5806122,-1.1138773,-0.2660224,-0.083090626,0.8974853,-1.0812434
667,1747486659800,-0.70410514,-1.1773322,-0.34070393,-0.82824314,1.0689929,-0.054328486
668,1747486659810,-0.7311955,-1.2232149,-0.36315718,-1.1211908,1.1046792,0.40053943
669,1747486659820,-0.7315616,-1.24810875,-0.36474356,-1.24689205,1.0887003000000002,0.621581815
670,1747486659830,-0.7316836499999999,-1.28813415,-0.361692845,-1.47272815,1.01253392,1.0612697
671,1747486659840,-0.6163665650000001,-1.33499315,-0.30263097,-1.7390442,0.7307714,1.7230653
672,1747486659850,-0.53106856,-1.338654,-0.26162934,-2.0026972,0.28016454,2.6173549
673,1747486659860,-0.39659303,-1.3076587,-0.20549619,-2.130529,0.114782245,3.15531335
674,1747486659870,-0.20171332,-1.2504273,-0.107629245,-2.16834585,0.0553937484999999,3.4940674
675,1747486659880,-0.13520771,-1.21931,-0.07272906,-2.1758027,0.033023197,3.6677055
676,1747486659890,0.076633975,-1.1131451,0.02318544,-1.9499665,-0.087884314,4.0224385
677,1747486659900,0.15155955,-1.0151561,0.059794025,-1.6911073,-0.2727077,4.128965
678,1747486659910,0.16303024,-0.9808661,0.06369894,-1.3768543,-0.49960902,4.2296324
679,1747486659920,0.19109683,-0.916435,0.018792408,-1.0743192,-0.73130405,4.337224
680,1747486659930,0.21086545,-0.8685997,-0.036608588,-0.8213189,-0.92784536,4.444816
681,1747486659940,0.31068486,-0.81295466,-0.09005712,-0.43036684,-1.2202604,4.6626625
682,1747486659950,0.4127008,-0.78537625,-0.064919226,-0.20026971,-1.3443637,4.7739825
683,1747486659960,0.5188657,-0.76926845,-0.067847915,-0.03089267,-1.2980248,4.856008
684,1747486659970,0.6213697,-0.74437463,-0.12178457,0.084155895,-1.1089402,4.9305763
685,1747486659980,0.70361704,-0.7141115,-0.22575295,0.12516858,-0.82398206,5.026983
686,1747486659990,0.8002637,-0.66139513,-0.28213018,0.13156016,-0.6327671,5.1409664
687,1747486660000,1.1192465,-0.5281399,-0.42661208,0.1257012,-0.78776306,5.2618737
688,1747486660010,1.2083274,-0.45248213,-0.49226347,0.08362326,-1.1014835,5.283712
689,1747486660020,1.244936,-0.3973252,-0.49543622,0.018109497,-1.4503576,5.407815
690,1747486660030,1.3074148,-0.37316352,-0.4729829,-0.09161274,-1.6607473,5.694904
691,1747486660040,1.5639188000000002,-0.42734423,-0.306413865,-0.71878714,-0.81892208,6.725281
692,1747486660050,1.94184145,-0.35424909,-0.135573795,-1.0460896,-0.23062976,7.2682996
693,1747486660060,2.1760144,-0.2975058,-0.03734076,-1.335309,0.18908444,7.881359
694,1747486660070,2.9269786,-0.13960074,0.16180995,-1.5329156,0.33502567,8.154599
695,1747486660080,3.845366,0.059549972,0.2757847,-1.6612799,0.29294774,7.8227696
696,1747486660090,3.9854548,0.12202863,0.7133793,-1.5126755,0.43036684,6.4341974
697,1747486660100,3.5532293,-0.054912884,0.9303462,-0.9187906,0.82717785,6.3279374
698,1747486660110,3.2757363,-0.22697324,1.0862988,-0.6668556,0.93423694,6.4214144
699,1747486660120,3.2469375,-0.35437113,1.1358424,-0.24714138,0.95527592,6.6397934
700,1747486660130,3.79386985,-0.34204621,0.886415975,1.03357287,0.5699164999999999,6.96896005
701,1747486660140,4.1645927,-0.2630937,0.74461865,1.8945729,0.1635181,7.0797477
702,1747486660150,4.5561826,0.036730615,0.427344245,2.03358995,0.1203748875,6.88640215
703,1747486660160,4.6502666,0.16595893,0.31507793,2.2540996,0.112918034,6.121542
704,1747486660170,4.5262856,0.4253918,0.1803583,2.229066,0.22796659,5.4759917
705,1747486660180,4.2390304,0.630888,0.050763905,2.1017668,0.34461305,4.859204
706,1747486660190,3.6598825,0.87274873,-0.26748675,1.3177321,0.8426242,3.649596
707,1747486660200,3.1703037,1.0031973,-0.32117933,0.8692558,1.154214,3.095126
708,1747486660210,3.0102022,1.0240642,-0.32996538,0.45540056,1.4492923,2.5145566
709,1747486660220,2.2875485,1.0001466,-0.2975058,-0.23222765,1.7678064,1.4689997
710,1747486660230,1.9505056,0.9508471,-0.29994637,-0.48842376,1.7273263,1.037035
711,1747486660240,1.5897889,0.87201655,-0.32337585,-0.7392935,1.5542208,0.6540724
712,1747486660250,1.2825208,0.82857436,-0.28554696,-0.9187906,1.361408,0.33076462
713,1747486660260,0.83760446,0.7568215,-0.2403964,-1.1728562,1.0301107,-0.21358553
714,1747486660270,0.75218443,0.74291025,-0.21696689,-1.22292365,0.9805759,-0.361390965
715,1747486660280,0.52301466,0.7387613,-0.08371163,-1.2410331,0.8815063,-0.73343456
716,1747486660290,0.39244407,0.7487676,0.05515694,-1.0839065,0.8357,-0.9219864
717,1747486660300,0.28871974,0.74413055,0.17108414,-0.80533993,0.7850999,-1.0386329
718,1747486660310,0.23966423,0.7402256,0.10494461,-0.47191215,0.7073356,-1.1121361
719,1747486660320,0.266022415,0.741567935,0.0446624732499999,-0.22530343,0.6351639499999999,-1.18404145
720,1747486660330,0.32923325,0.732659835,-0.0706545717499999,0.08069378,0.49348378,-1.3158679
721,1747486660340,0.42051062,0.74193406,-0.20964517,0.22264028,0.22104238,-1.5393071
722,1747486660350,0.47859627,0.7604824,-0.30067852,0.23116238,-0.0005326322,-1.7443706
723,1747486660360,0.59110665,0.79782313,-0.38048524,0.014913702,-0.29827404,-2.2988408
724,1747486660370,0.6887296,0.82393724,-0.35876414,-0.120907515,-0.3323625,-2.5262747
725,1747486660380,0.7787867,0.87323684,-0.2818861,-0.21891184,-0.3520699,-2.7760792
726,1747486660390,0.87250465,0.92241437,-0.2012252,-0.24714136,-0.31638354,-3.0040457
727,1747486660400,0.92400074,0.937912,-0.20281157,-0.27803403,-0.22264028,-3.1771512
728,1747486660410,1.228096,0.99868226,-0.36340126,-0.48948902,-0.028229509,-3.6064527
729,1747486660420,1.2874019,0.9859913,-0.42807643,-0.62557656,-0.01784318,-3.72736025
730,1747486660430,1.4416462,0.933519,-0.5112999,-1.2096078,0.002130529,-4.1097903
731,1747486660440,1.6571487,0.8834872,-0.37072295,-1.5329156,-0.027696876,-4.322843
732,1747486660450,2.1739399,0.80953786,0.349856075,-1.6703347,-0.03089267,-4.9332395
733,1747486660460,2.220921,0.80563295,0.5208182,-1.433846,-0.006924219,-5.189436
734,1747486660470,2.2870605,0.8258897,0.8278422,-1.0173275,0.020240024,-5.322061
735,1747486660480,2.4932888,0.81344277,1.0462735,-0.4958806,0.03568636,-5.4408383
736,1747486660490,2.6492414,0.76121455,1.147069,0.0644485,0.011185277,-5.6139436
737,1747486660500,2.864744,0.6633476,1.2346857,1.0972224,-0.32490566,-5.970807
738,1747486660510,2.9533367,0.6037976,1.2385906,1.5297197,-0.5965481,-6.126336
739,1747486660520,3.00580905,0.55169139,1.23712625,1.6567525,-0.65167553,-6.19158335
740,1747486660530,3.0856156,0.4271002,1.2429836,1.991512,-0.81545997,-6.34365
741,1747486660540,3.0880563,0.38683072,1.2359059,2.1012342,-1.0056096,-6.3356605
742,1747486660550,3.2762244,0.24503349,1.3061944,2.1502364,-1.293231,-6.360694
743,1747486660560,3.2430327,0.28042176,1.1646413,2.1241374,-1.1451592,-6.2866583
744,1747486660570,3.2005668,0.29311275,0.9178993,1.8524948,-0.92518216,-6.1572285
745,1747486660580,3.0585253,0.28920785,0.7499879,1.3779196,-0.6450176,-6.0208745
746,1747486660590,2.8676727,0.3743838,0.7390053,0.80800307,-0.18482338,-5.7007627
747,1747486660600,2.8962274,0.41733786,0.7829357,0.23755397,0.5001417,-5.3438993
748,1747486660610,2.7600434,0.35290676,0.77732235,0.17150758,0.8527442,-5.3886404
749,1747486660620,2.4137263,0.32630453,0.82149667,0.32330775,1.0295781,-5.349758
750,1747486660630,2.0476403,0.2630937,0.7556012,0.60240704,1.0327739,-5.2171326
751,1747486660640,1.4465274,0.079318605,0.38585448,1.1030813,0.67218184,-4.9641323
752,1747486660650,1.1902672,-0.0053692595,0.22160399,1.2479573,0.41225734,-4.863465
753,1747486660660,0.9686632,-0.11153416,0.07736614,1.2884374,0.19920446,-4.739362
754,1747486660670,0.8073414,-0.22794947,0.014643434,1.2010857,0.118776985,-4.569452
755,1747486660680,0.6855568,-0.3990336,0.036120474,1.1243867,0.2130529,-4.424576
756,1747486660690,0.49958518,-0.53180075,0.061502427,1.067395,0.40213734,-4.256797
757,1747486660700,0.1295944,-0.89715445,0.04881145,1.0104034,0.70627034,-3.711914
758,1747486660710,-0.06858008,-1.0521308,0.07443746,1.0359697,0.74941355,-3.3316145
759,1747486660720,-0.25381953,-1.1641531,0.054424766,1.0530139,0.7254451,-2.914031
760,1747486660730,-0.3184947,-1.2341975,0.0046370877,0.99762017,0.5965481,-2.5007083
761,1747486660740,-0.21745501,-1.3022895,-0.0056133163,0.8793758,0.4463458,-2.1182783
762,1747486660750,-0.12129646,-1.3159567,-0.04515059,0.4415521,0.257794,-1.6389093
763,1747486660760,-0.09005712,-1.3479282,-0.07175283,0.19387813,0.33981937,-1.5584819
764,1747486660770,-0.14814276,-1.4477476,-0.10348027,-0.037284255,0.5107943,-1.4940335
765,1747486660780,-0.35095432,-1.5358523,-0.14277348,-0.24074976,0.6578008,-1.3459617
766,1747486660790,-0.5862255,-1.5949141,-0.19451363,-0.46232477,0.66206187,-1.0530139
767,1747486660800,-0.83662825,-1.68009,-0.20012695,-0.983239085,0.324639335,0.1957423375
768,1747486660810,-0.8232051,-1.6761851,-0.174745,-1.0679276,0.26738137,0.47244477
769,1747486660820,-0.7645093000000001,-1.65141335,-0.13642801,-1.12305505,0.267115055,0.724646135
770,1747486660830,-0.56645685,-1.5556209,-0.032703668,-1.2564794,0.42290998,1.5222629
771,1747486660840,-0.37706846,-1.3628157,-0.093473926,-1.4668691,0.75154406,2.240251
772,1747486660850,-0.3192269,-1.2651927,-0.082247294,-1.5654061,0.77125144,2.54758
773,1747486660860,-0.25284332,-1.1685461,-0.032703668,-1.5446335,0.6412892,2.821353
774,1747486660870,-0.15741692,-1.1028948,0.024893839,-1.3752564,0.376571,3.0562437
775,1747486660880,-0.024649782,-1.0440769,0.06467517,-1.0897655,0.028229509,3.257046
776,1747486660890,0.123004854,-0.87396896,-0.035876416,-0.35792887,-0.71106404,3.5356128
777,1747486660900,0.078830495,-0.8166155,-0.15717287,-0.056991648,-0.97258645,3.7273602
778,1747486660910,0.06711575,-0.76926845,-0.32337585,0.07829694,-1.0828413,4.146542
779,1747486660920,0.1696198,-0.5620638,-0.59964865,-0.3472762,-0.6695187,5.1351075
780,1747486660930,0.42636803,-0.45467865,-0.6545615,-0.7819041,-0.49641323,5.591573
781,1747486660940,0.7917217,-0.36779428,-0.58964235,-1.1851068,-0.38296258,5.9106197
782,1747486660950,1.2068632,-0.23893206,-0.41245672,-1.3954965,-0.3387541,6.072007
783,1747486660960,1.4975352,-0.10201593,-0.24112856,-1.3992249,-0.41225734,6.1343255
784,1747486660970,1.8289651,0.105066635,-0.1236149956499999,-1.02984445,-0.85727157,6.3039689
785,1747486660980,2.160395,0.3121492,-0.0061014313,-0.660464,-1.3022858,6.4736123
786,1747486660990,2.353444,0.44808912,0.090789296,-0.4250405,-1.4290522,6.676545
787,1747486661000,2.579441,0.4595598,0.26406994,-0.15499598,-1.1989552,6.967895
788,1747486661010,2.79592,0.38683072,0.38829508,0.19228023,-0.6785734,7.2374067
789,1747486661020,3.0065413,0.16473864,0.49348375,1.0711234,-0.105993815,7.6981335
790,1747486661030,3.4851377,0.038316987,0.3802412,1.68178625,-0.336623565,7.67496415
791,1747486661040,3.8116863,0.053692598,0.24918245,1.8647454,-0.46924898,7.5756283
792,1747486661050,3.940304,0.09786696,0.12495731,2.1299963,-0.8490158,7.2912025
793,1747486661060,3.97325195,0.345707105,-0.36047255,2.1933794,-1.1105382,7.1031833
794,1747486661070,4.0518384,0.42514774,-0.439059,1.5371766,-0.64555025,7.10052
795,1747486661080,4.2570906,0.60306543,-0.50763905,0.9821738,-0.11717909,6.935937
796,1747486661090,4.323962,0.8080735,-0.4876264,0.4181163,0.37816888,6.585465
797,1747486661100,4.202666,0.95060295,-0.41684976,-0.09640643,0.6892261,6.1066284
798,1747486661110,3.5925226,1.0348027,-0.1342315,-0.8314389,0.7584683,5.048821
799,1747486661120,3.3545668,1.0448091,0.006345488,-1.0263823,0.64395237,4.4964814
800,1747486661130,3.1170993,1.1048472,0.084931925,-1.139833,0.49747851,3.8594532
801,1747486661140,2.7571146,1.1580516,0.10714114,-1.2809805,0.40373522,3.0162964
802,1747486661150,2.3082933,1.1600041,0.11275445,-1.4375744,0.4527374,2.4335966
803,1747486661160,1.5592817,1.1729392,0.23942018,-1.6367788,0.69029135,1.5574167
804,1747486661170,1.38514685,1.16171255,0.28213019,-1.60828295,0.71852085,1.3813817
805,1747486661180,0.8793382,1.1368186,0.40220633,-1.387507,0.76965356,0.9400959
806,1747486661190,0.60819066,1.1243718,0.4139211,-1.1014835,0.7861652,0.75154406
807,1747486661200,0.38060728,1.11753815,0.293722895,-0.3834952,0.75101143,0.43516052
808,1747486661210,0.369258615,1.13035115,0.1432616,-0.0625842899999999,0.604537575,0.22237395
809,1747486661220,0.37072295,1.1343781,0.05222825,0.25832662,0.45806372,0.00958738
810,1747486661230,0.3824377,1.1514622,-0.14570218,0.36911413,0.23435818,-0.19867182
811,1747486661240,0.4097721,1.1695224,-0.29555333,0.35792887,-0.004261058,-0.43089947
812,1747486661250,0.47469133,1.1880707,-0.42417148,0.07563378,-0.18056233,-0.9353022
813,1747486661260,0.5020258,1.1744035,-0.43539813,-0.17097494,-0.104928546,-1.1622036
814,1747486661270,0.52789587,1.1675699,-0.41343296,-0.43089947,0.03834952,-1.3640711
815,1747486661280,0.5684093,1.1783084,-0.41026023,-0.6737798,0.22796659,-1.5648735
816,1747486661290,0.8047787500000001,1.2246792,-0.348147675,-0.93663377,0.391484685,-2.10762575
817,1747486661300,1.066042,1.26921965,-0.29006204,-0.92678008,0.316383545,-2.59738115
818,1747486661310,1.1795286,1.2813005,-0.28505886,-0.86020106,0.23329292,-2.7696877
819,1747486661320,1.3491484,1.304486,-0.30580372,-0.62531024,-0.011717909,-3.1366713
820,1747486661330,1.4819156,1.2898425,-0.42905265,-0.4213121,-0.3009372,-3.459979
821,1747486661340,1.6334751,1.2517697,-0.6282034,-0.40959418,-0.6593987,-3.7539918
822,1747486661350,2.22104295,1.15280445,-0.77646813,-0.9853696,-1.2181299,-4.359595
823,1747486661360,2.3378243,1.1224194,-0.7490117,-1.4705976,-1.1872373,-4.667989
824,1747486661370,2.5821257,1.0772687,-0.6147802,-1.9627497,-0.95607483,-4.951882
825,1747486661380,2.8969595,1.0679946,-0.36022848,-2.396845,-0.6423545,-5.3508234
826,1747486661390,3.2432766,0.9117979,0.25479576,-2.511361,-0.4612595,-5.743906
827,1747486661400,3.6340122,0.7687803,0.469078,-2.193912,-0.24181503,-6.6158247
828,1747486661410,3.6074102,0.60648227,0.5749989,-1.9558256,-0.21624869,-6.919958
829,1747486661420,3.5141802,0.45760733,0.68433654,-1.736381,-0.17896444,-7.0999875
830,1747486661430,3.5061266,0.3660859,0.7985553,-1.504686,-0.11984225,-7.1292825
831,1747486661440,3.5351691,0.28432667,0.93620354,-0.9150622,0.16937704,-6.9939938
832,1747486661450,3.6154642,0.21501444,0.9508471,-0.59761333,0.27856666,-6.9540462
833,1747486661460,3.542491,0.15595257,0.9784255,-0.19228023,0.29294774,-6.9013157
834,1747486661470,3.3738472,0.15839316,0.9886759,0.10972224,0.20612867,-6.7772126
835,1747486661480,3.214966,0.17303659,1.01479,0.25406558,0.1603223,-6.6914588
836,1747486661490,2.59725725,0.11104605,0.94437952,1.05487813,0.29614352,-6.03605475
837,1747486661500,2.4188514,0.10079564,0.88983274,1.1685951,0.39148468,-5.8781295
838,1747486661510,2.2857182,0.092497695,0.80612107,1.2836437,0.61199445,-5.549495
839,1747486661520,2.03677975,0.0707766,0.65114473,1.2836437,0.61199445,-5.549495
840,1747486661530,1.9209745,0.05735345,0.57988006,1.2415657,0.89508845,-5.174255649999999
841,1747486661540,0.970005535,-0.261141245,0.42685613,0.97684752,1.6077504,-4.4237769
842,1747486661550,0.83809257,-0.31190515,0.43442193,0.95234644,1.7209347,-4.2690473
843,1747486661560,0.6433349,-0.39781332,0.42124277,0.94275904,1.8759307,-3.9473374
844,1747486661570,0.457973415,-0.5112999500000001,0.44784506,1.10494555,1.8479675,-3.5222969
845,1747486661580,0.3061698,-0.596231875,0.42612395,1.39176805,1.6426378,-3.1369375
846,1747486661590,0.17864989,-0.672133675,0.3576659,1.6610136,1.4527544,-2.74678435
847,1747486661600,0.14045494,-0.711304865,0.277004985,1.74516945,1.412807,-2.4921862
848,1747486661610,0.127886,-0.72777873,0.23478307,1.7640779,1.4093449,-2.3702135
849,1747486661620,0.136061925,-0.7426662150000001,0.18499539,1.6948358,1.4492923,-2.1161478
850,1747486661630,0.18279888,-0.7987994,0.047103047,1.5456988,1.5153387,-1.9851203
851,1747486661640,0.21037734,-0.8829991,-0.0319715,1.3448963,1.635181,-1.9148128
852,1747486661650,0.09567044,-1.1116807,-0.18182266,0.8357,1.8860507,-1.7923075
853,1747486661660,0.013911263,-1.2561626,-0.25601605,0.5906891,1.8849854,-1.7310548
854,1747486661670,-0.422951225,-1.4311517,-0.4438181,0.049268485,1.5907061,-1.3355753
855,1747486661680,-0.72070107,-1.51437525,-0.5337532,-0.430899465,1.157143515,-0.76432721
856,1747486661690,-0.80368052,-1.5402453,-0.52972625,-0.6215818,0.94542223,-0.48149952
857,1747486661700,-0.8117344,-1.5544006,-0.5142286,-0.9086706,0.6151902,-0.026631612
858,1747486661710,-0.76267886,-1.5551329,-0.47835222,-1.1669972,0.37124467,0.39414784
859,1747486661720,-0.697515605,-1.53304565,-0.421120795,-1.3651364,0.282827715,0.77764307
860,1747486661730,-0.5784157,-1.4841121,-0.30067852,-1.6682042,0.18801917,1.5472966
861,1747486661740,-0.4527262,-1.4343245,-0.23014598,-1.6804547,0.02343582,2.0743362000000003
862,1747486661750,-0.3065359,-1.3889297,-0.16229807,-1.6527578,-0.044208474,2.237588
863,1747486661760,0.008297946,-1.2132086,-0.15497635,-1.3464943,-0.38935417,2.6988475
864,1747486661770,0.12007617,-1.1002101,-0.24405725,-1.1952267,-0.6354303,2.8490498
865,1747486661780,0.18255483,-1.0179628,-0.3612047,-1.16593195,-0.81572625,3.0487869
866,1747486661790,0.12983845,-0.9730562,-0.36340126,-1.10947295,-0.8490157700000001,3.32415775
867,1747486661800,0.054424766,-0.95743656,-0.3109289,-1.063134,-0.84635264,3.5025895
868,1747486661810,0.07224095,-0.90740484,-0.19890666,-0.4543353,-0.89588743,4.615791
869,1747486661820,0.38170552,-0.8539563,-0.25992095,-0.060720075,-1.0823087,5.2070127
870,1747486661830,1.2389566,-0.614048025,-0.464685,0.24873926,-1.4956313,5.562811
871,1747486661840,1.5053451,-0.48787045,-0.5337532,0.4878911,-1.9829898,5.5633435
872,1747486661850,1.7198714,-0.22111587,-0.7197248,0.49534795,-2.150769,5.49010655
873,1747486661860,1.8253042,0.07858644,-0.94303715,-0.48309743,-1.7395768,6.008624
874,1747486661870,2.0993805,0.12861817,-0.79391825,-1.0599382,-1.0349044,6.5077004
875,1747486661880,2.485235,0.15400012,-0.51740134,-1.4226607,-0.479369,6.932741
876,1747486661890,3.0156934,0.171938335,0.16888761,-1.5030881,-0.24767399,7.2208953
877,1747486661900,3.3588378,0.1559525849999999,0.6440670749999999,-0.7568704,-0.3270362,7.659784
878,1747486661910,3.4814765,0.1581491,0.74364245,-0.03888215,-0.49055427,7.9117193
879,1747486661920,3.6586622,0.207448665,0.731805655,0.3123888,-0.578971235,8.01904415
880,1747486661930,4.230244,0.40147418,0.49958518,1.1978899,-0.7307714,8.178035
881,1747486661940,4.51408275,0.67042527,-0.078586434,0.868456825,0.08841696,7.8134484
882,1747486661950,4.4555089500000005,0.73949346,-0.09774493,0.66845345,0.32437304,7.6912093
883,1747486661960,4.3681364,0.78586435,-0.0605262,0.28975195,0.7749799,7.379087
884,1747486661970,4.006932,0.82344913,0.093473926,0.036218993,1.1073424,7.1260867
885,1747486661980,3.7599459,0.78513217,0.17401282,-0.10439592,1.2522184,6.907707
886,1747486661990,3.6603706,0.7609705,0.3414361,-0.094808534,1.212271,6.55617
887,1747486662000,3.0643828,0.87274873,0.31727442,0.25513083,0.61891866,5.773733
888,1747486662010,2.8210578,0.95011485,0.2203837,0.38242993,0.27696875,5.298093
889,1747486662020,2.7637043,1.019915225,0.14924101,0.344346735,0.217313945,5.0637345
890,1747486662030,2.536243,1.2410312,0.034900185,0.112918034,0.18002969,4.2812977
891,1747486662040,2.0029778,1.4587301,0.05515694,-0.29028457,0.4527374,3.2133703
892,1747486662050,1.683263,1.5158396,0.025137896,-0.44741106,0.6034723,2.722816
893,1747486662060,1.4428664,1.5392691,-0.034168016,-0.5944176,0.65034395,2.2306638
894,1747486662070,1.2520137,1.5443943,-0.019036464,-0.680704,0.5683186,1.7044232
895,1747486662080,1.0474937,1.5839316,0.020744866,-0.6460829,0.38562572,1.1552793
896,1747486662090,0.5791479,1.4975352,0.025626011,-0.56618804,0.13102753,0.5209143
897,1747486662100,0.38731885,1.4384733,-0.018060237,-0.50040797,0.0125168574999999,0.205329715
898,1747486662110,0.3277689,1.4021089,-0.12056428,-0.48842376,-0.092145376,-0.2593919
899,1747486662120,0.40781966,1.4047935,-0.23600335,-0.61412495,-0.014913702,-0.41225734
900,1747486662130,0.5191097,1.4335922,-0.3277689,-0.7819041,0.082558,-0.65460503
901,1747486662140,0.7070338,1.4907017,-0.4463807,-1.109473,0.2695119,-1.2543489
902,1747486662150,0.7900133,1.5043689,-0.48176903,-1.2713932,0.2796319,-1.6160061
903,1747486662160,0.81368685,1.4846002,-0.45052966,-1.4034859,0.1917476,-2.0197413
904,1747486662170,0.807951525,1.4640994,-0.4167277299999999,-1.45887965,0.14807176,-2.2389195
905,1747486662180,0.8005078,1.415288,-0.28871974,-1.5339808,0.08681905,-2.7478497
906,1747486662190,0.955728235,1.4014988000000002,-0.1766974499999999,-1.1912319500000002,0.01784318,-3.3851441
907,1747486662200,1.0106411,1.4018649,-0.17718557,-1.081776,-0.02609898,-3.4983284
908,1747486662210,1.1836777,1.4270028,-0.1871919,-0.82185155,-0.20186761,-3.7539918
909,1747486662220,1.3552499,1.40699,-0.2689511,-0.61572284,-0.40852892,-4.027232
910,1747486662230,1.87411565,1.35915485,-0.362302985,-0.60107545,-0.6615292150000001,-4.660532
911,1747486662240,2.1425786,1.3406065,-0.36730617,-0.6535397,-0.73343456,-5.003547
912,1747486662250,2.541856,1.2952118,-0.47078642,-0.78989357,-0.6599313,-5.339638
913,1747486662260,2.7993367,1.2815446,-0.5000733,-0.8697884,-0.6087986,-5.7028933
914,1747486662270,3.0011718,1.2356619,-0.53765815,-0.92092115,-0.7233146,-6.017146
915,1747486662280,3.4357159,1.09288835,-0.454190525,-1.0157297,-0.9582054,-6.2951803
916,1747486662290,3.87660515,0.990384325,-0.309342565,-1.5731293000000002,-1.4367754499999998,-6.7053072
917,1747486662300,4.0747795,0.95597225,-0.25406358,-1.7347832,-1.4530207,-6.7761474
918,1747486662310,4.3410463,0.8808026,-0.0959145,-2.076733,-1.2325109,-6.940198
919,1747486662320,4.5255537,0.7902574,0.17596528,-2.380866,-0.8175905,-7.090933
920,1747486662330,4.7210436,0.66944903,0.60599416,-2.4778051,-0.13688648,-7.299192
921,1747486662340,4.747401,0.42661208,1.4716653,-1.6202673,1.0849719,-7.578824
922,1747486662350,4.49541235,0.290794205,1.9060871,-0.72651035,1.3662016,-7.6027923
923,1747486662360,4.387661,0.23087814,1.9912632,0.34408042,1.4413028,-7.6304893
924,1747486662370,4.033534,0.07297312,1.9751552,1.4034859,1.3464943,-7.625163
925,1747486662380,3.662811,-0.025137896,1.8323817,2.41788395,1.0277139,-7.34206885
926,1747486662390,3.0538883,-0.16986385,1.2759314,3.432282,0.7089335,-7.0589747
927,1747486662400,2.6382587,-0.26846297,0.74547285,3.568636,0.62584287,-6.8134313
928,1747486662410,2.5064678,-0.30873242,0.55913514,3.361442,0.64182186,-6.5524416
929,1747486662420,1.88461,-0.47762007,0.18914436,2.5928538,0.8740495,-6.2243404
930,1747486662430,1.6303024,-0.58110034,0.17303659,2.2588933,1.0029465,-6.036321
931,1747486662440,1.2866699,-0.6570021,0.21818718,1.969674,1.0844392,-5.8557587
932,1747486662450,0.97476465,-0.7902574,0.20256752,1.8066885,1.2373047,-5.6490974
933,1747486662460,0.43442193,-0.9706156,0.19256116,1.5840483,1.164334,-5.101019
934,1747486662470,0.19475769,-1.0174747,0.17840585,1.510545,1.0945592,-4.7233825
935,1747486662480,0.015497635,-1.0906919,0.0834675785,1.2591426,0.97631485,-3.9939426
936,1747486662490,-0.033923956,-1.1504859,0.03184947,1.1622036,0.9624664,-3.8008635
937,1747486662500,-0.04759116,-1.1827015,0.016595893,0.9518138,1.000816,-3.4605117
938,1747486662510,-0.067847915,-1.3208379,0.038561042,0.5933523,1.1627362,-2.801113
939,1747486662520,-0.048567392,-1.4113832,-0.029530926,0.41278997,1.2218584,-2.5502431
940,1747486662530,-0.11287648,-1.4848443,-0.1748670199999999,0.0245010849999999,1.17951405,-2.1600901
941,1747486662540,-0.13789235,-1.4955828,-0.22111587,-0.128897,1.144094,-2.0229373
942,1747486662550,-0.18401916,-1.5378047,-0.2882316,-0.47564057,1.0940266,-1.7496969
943,1747486662560,-0.29091624,-1.5867382,-0.30641387,-0.858070535,1.1622035,-1.41573645
944,1747486662570,-0.5620638,-1.6698397,-0.3270367,-1.510545,1.257012,-0.7174556
945,1747486662580,-0.7175283,-1.6871678,-0.35119838,-1.7518274,1.2149341,-0.27324033
946,1747486662590,-0.8332114,-1.704984,-0.37218732,-1.9750003,1.0881677,0.2545982
947,1747486662600,-0.70898632,-1.64775255,-0.3885391299999999,-2.3385218,0.6463492200000001,1.29589422
948,1747486662610,-0.64260274,-1.6220044,-0.3829258,-2.4948494,0.40213734,1.7795243
949,1747486662620,-0.5797579900000001,-1.58942275,-0.36059458,-2.5334652,0.292148785,1.97819615
950,1747486662630,-0.36840441,-1.44494095,-0.25198912,-2.496181,-0.0476705849999999,2.8043088000000003
951,1747486662640,-0.3243521,-1.3974718,-0.21501444,-2.424542,-0.11664646,3.0423954
952,1747486662650,0.018304294,-1.1985651,-0.21062139,-2.0048277,-0.39947417,3.6000612
953,1747486662660,0.13349932,-1.1011863,-0.2020794,-1.7235979,-0.5773733,3.7433393
954,1747486662670,0.17803976,-1.01662045,-0.326792655,-1.464206,-0.7653925,3.895672
955,1747486662680,0.19060871,-1.0072243,-0.38341394,-1.3321131,-0.96779275,4.094344
956,1747486662690,0.282374235,-0.95585018,-0.462732555,-1.29909,-1.1648667,4.332963
957,1747486662700,0.30873242,-0.91521466,-0.44882128,-1.2697952,-1.3257216,4.6317697
958,1747486662710,0.35583547,-0.8163715,-0.4283205,-1.0812434,-1.5611451,5.406217
959,1747486662720,0.58891016,-0.6982478,-0.42099872,-0.9555422,-1.8764633,5.9473715
960,1747486662730,0.9235126,-0.49616838,-0.4634647,-1.0791129,-2.05409615,6.41981635
961,1747486662740,1.5922295,-0.25870067,-0.51398456,-1.2405005,-1.9632823,6.5886607
962,1747486662750,1.95977965,-0.29006204,-0.4357642,-1.4839134,-1.4349113,6.706905
963,1747486662760,2.0715578,-0.30873242,-0.4131889,-1.700162,-0.9805759,6.816627
964,1747486662770,2.1970034,-0.36096066,-0.26992732,-1.7470337,-0.89642006,6.965764
965,1747486662780,2.2072537,-0.42124277,-0.09274176,-1.5339808,-1.2175972,7.3125076
966,1747486662790,2.374433,-0.36388937,0.048567392,-1.1579424,-1.8013622,7.940481
967,1747486662800,3.7538447,0.009274175,0.6894617,0.18695392,-2.3148196,9.169264
968,1747486662810,4.2651443,0.19915071,0.8171036,0.96140116,-1.8333201,9.179384
969,1747486662820,4.44721115,0.23612538,0.75474702,1.5877767,-1.3954965,8.915198
970,1747486662830,4.62622715,0.42563584,0.07553573,2.07593405,-1.02531705,8.2510055
971,1747486662840,4.33836185,0.5493729,-0.3762142349999999,1.82160215,-0.7685883,7.88056
972,1747486662850,4.215357,0.5774395,-0.46614933,1.5036207,-0.5768407,7.729559
973,1747486662860,4.1079717,0.6372335,-0.5857374,0.87138635,-0.304133,7.825433
974,1747486662870,4.1929035500000005,0.686655075,-0.4754235249999999,0.601874425,-0.21092236,7.779892800000001
975,1747486662880,4.488457,0.90325594,-0.08419975,0.09960223,0.13102753,7.2363415
976,1747486662890,3.960073,1.2245572,0.54876272,0.95048222,0.0932106385,5.91088625
977,1747486662900,3.65317085,1.28813415,0.40501298,1.1611383,0.033023197,5.678925
978,1747486662910,3.5205257,1.3213259,0.29213652,1.3885722,-0.10865697,5.213937
979,1747486662920,3.3611565,1.4172405,-0.08102701,1.3044163,-0.13795175,4.6216497
980,1747486662930,2.6975648,1.64872875,-0.570971935,0.9219864,-0.0644485,3.97823
981,1747486662940,2.3583252,1.7403722,-0.7055695,-0.34194988,0.2263687,2.7718182
982,1747486662950,1.8680142,1.78332625,-0.4546786399999999,-1.17924772,0.373375195,1.903095
983,1747486662960,1.7193834,1.7955291,-0.34924594,-1.4290522,0.41545314,1.587244
984,1747486662970,1.4096746,1.8023627,-0.13374338,-1.6852484,0.50173956,1.0940266
985,1747486662980,1.1316935,1.7813739,-0.0039049159,-1.8343854,0.6791061,0.624245
986,1747486662990,0.656391965,1.70217735,0.188900305,-1.8748654,0.8697884,0.2034655
987,1747486663000,0.421120765,1.6145608,0.3687705,-1.38111535,0.759267235,-0.67298082
988,1747486663010,0.3841461,1.5807588,0.4510178,-1.1659319,0.6609966,-0.8293084
989,1747486663020,0.33826336,1.5312152,0.52789587,-0.5795039,0.36804888,-1.1211908
990,1747486663030,0.34045988,1.4911898,0.36022848,0.056991648,0.06338324,-1.3805827
991,1747486663040,0.43491003,1.5190123,0.0036608586,0.58483016,-0.18801917,-1.6213325
992,1747486663050,0.51398456,1.5570853,-0.29140437,0.6759103,-0.46019423,-2.2722092
993,1747486663060,0.6123396,1.6012596,-0.4888467,0.30945933,-0.43249738,-2.5513084
994,1747486663070,0.7302193,1.624201,-0.5703618,-0.11132014,-0.28708878,-2.821353
995,1747486663080,0.8712844,1.6110219,-0.54766446,-0.48735848,-0.091080114,-3.1132355
996,1747486663090,1.2229708,1.50925,-0.3385074,-0.8591358,0.19441076,-3.7545245
997,1747486663100,1.50083,1.4150439,-0.194513635,-0.8900285,0.2066613,-4.135889
998,1747486663110,1.5885686,1.3852689,-0.14423785,-0.829841,0.1736381,-4.521515
999,1747486663120,1.743545,1.3335288,-0.070532545,-0.6775082,0.082025364,-4.966263
1000,1747486663130,1.922927,1.2583592,-0.07199689,-0.5496765,-0.047404267,-5.30768
