id,timestamp,acc_x,acc_y,acc_z,gyro_x,gyro_y,gyro_z
0,1747592036230,-0.23,-0.89,-0.23,-12.45,21.12,-8.61
1,1747592036240,-0.23,-0.89,-0.23,-12.45,21.12,-8.61
2,1747592036250,-0.28,-0.76,-0.29,0.18,33.02,10.25
3,1747592036260,-0.28,-0.76,-0.29,0.18,33.02,10.25
4,1747592036270,-0.28,-0.76,-0.29,0.18,33.02,10.25
5,1747592036280,-0.13,-0.63,-0.06,0.18,33.02,10.25
6,1747592036290,-0.13,-0.63,-0.06,-11.35,102.17,49.87
7,1747592036300,-0.13,-0.63,-0.06,-11.35,102.17,49.87
8,1747592036310,-0.13,-0.63,-0.06,-11.35,102.17,49.87
9,1747592036320,0.07,-0.7,0.34,69.21,86.73,62.44
10,1747592036330,0.07,-0.7,0.34,69.21,86.73,62.44
11,1747592036340,0.07,-0.7,0.34,69.21,86.73,62.44
12,1747592036350,0.01,-1.22,0.59,69.21,86.73,62.44
13,1747592036360,0.01,-1.22,0.59,88.75,148.19,27.47
14,1747592036370,0.01,-1.22,0.59,88.75,148.19,27.47
15,1747592036380,0.01,-1.22,0.59,88.75,148.19,27.47
16,1747592036390,-0.56,-1.89,0.56,135.01,249.76,88.2
17,1747592036400,-0.56,-1.89,0.56,135.01,249.76,88.2
18,1747592036410,-0.56,-1.89,0.56,135.01,249.76,88.2
19,1747592036420,-0.56,-1.89,0.56,135.01,249.76,88.2
20,1747592036430,-1.01,-2.09,0.05,148.58999999999995,248.875,87.16
21,1747592036440,-1.01,-2.09,0.05,162.17,247.99,86.12
22,1747592036450,-1.01,-2.09,0.05,162.17,247.99,86.12
23,1747592036460,-1.01,-2.09,0.05,162.17,247.99,86.12
24,1747592036470,-2.19,-3.19,-0.74,170.41,189.945,92.68
25,1747592036480,-2.19,-3.19,-0.74,178.65,131.9,99.24
26,1747592036490,-2.19,-3.19,-0.74,178.65,131.9,99.24
27,1747592036500,-2.19,-3.19,-0.74,178.65,131.9,99.24
28,1747592036510,-2.43,-2.64,-1.32,129.39,56.76,224.55
29,1747592036520,-2.43,-2.64,-1.32,129.39,56.76,224.55
30,1747592036530,-2.43,-2.64,-1.32,129.39,56.76,224.55
31,1747592036540,-2.43,-2.64,-1.32,129.39,56.76,224.55
32,1747592036550,-1.89,-2.35,-1.12,116.58,-111.51,268.92
33,1747592036560,-1.89,-2.35,-1.12,116.58,-111.51,268.92
34,1747592036570,-1.89,-2.35,-1.12,116.58,-111.51,268.92
35,1747592036580,-1.795,-2.175,-1.045,116.58,-111.51,268.92
36,1747592036590,-1.7,-2.0,-0.97,100.95,-215.88,315.55
37,1747592036600,-1.7,-2.0,-0.97,100.95,-215.88,315.55
38,1747592036610,-1.7,-2.0,-0.97,100.95,-215.88,315.55
39,1747592036620,-1.4449999999999998,-1.945,-0.86,81.265,-197.875,356.87
40,1747592036630,-1.19,-1.89,-0.75,61.58,-179.87,398.19
41,1747592036640,-1.19,-1.89,-0.75,61.58,-179.87,398.19
42,1747592036650,-1.19,-1.89,-0.75,61.58,-179.87,398.19
43,1747592036660,-0.47,-2.16,-1.09,61.58,-179.87,398.19
44,1747592036670,-0.47,-2.16,-1.09,79.71,-161.99,432.92
45,1747592036680,-0.47,-2.16,-1.09,79.71,-161.99,432.92
46,1747592036690,-0.47,-2.16,-1.09,79.71,-161.99,432.92
47,1747592036700,-0.17,-2.04,-1.11,48.16,-184.27,400.45
48,1747592036710,-0.17,-2.04,-1.11,48.16,-184.27,400.45
49,1747592036720,-0.17,-2.04,-1.11,48.16,-184.27,400.45
50,1747592036730,-0.17,-2.04,-1.11,48.16,-184.27,400.45
51,1747592036740,-0.25,-1.97,-1.18,89.29,-225.16,394.59
52,1747592036750,-0.25,-1.97,-1.18,89.29,-225.16,394.59
53,1747592036760,-0.25,-1.97,-1.18,89.29,-225.16,394.59
54,1747592036770,-0.25,-1.97,-1.18,89.29,-225.16,394.59
55,1747592036780,-0.12,-1.77,-1.11,76.69,-200.38,401.61
56,1747592036790,-0.12,-1.77,-1.11,64.09,-175.6,408.63
57,1747592036800,-0.12,-1.77,-1.11,64.09,-175.6,408.63
58,1747592036810,-0.12,-1.77,-1.11,64.09,-175.6,408.63
59,1747592036820,0.16,-1.47,-0.89,40.04,-172.0,388.79
60,1747592036830,0.16,-1.47,-0.89,40.04,-172.0,388.79
61,1747592036840,0.16,-1.47,-0.89,40.04,-172.0,388.79
62,1747592036850,0.16,-1.47,-0.89,40.04,-172.0,388.79
63,1747592036860,1.47,-0.61,-0.13,56.88,-259.16,378.11
64,1747592036870,1.47,-0.61,-0.13,56.88,-259.16,378.11
65,1747592036880,1.47,-0.61,-0.13,56.88,-259.16,378.11
66,1747592036890,1.47,-0.61,-0.13,56.88,-259.16,378.11
67,1747592036900,4.09,0.98,0.68,32.96,68.3,278.2
68,1747592036910,4.09,0.98,0.68,32.96,68.3,278.2
69,1747592036920,4.09,0.98,0.68,32.96,68.3,278.2
70,1747592036930,4.09,0.98,0.68,32.96,68.3,278.2
71,1747592036940,3.99,0.73,0.68,-69.64,176.03,110.53
72,1747592036950,3.99,0.73,0.68,-69.64,176.03,110.53
73,1747592036960,3.99,0.73,0.68,-69.64,176.03,110.53
74,1747592036970,3.37,0.26,0.9,-69.64,176.03,110.53
75,1747592036980,3.37,0.26,0.9,-19.71,94.85,-170.17
76,1747592036990,3.37,0.26,0.9,-19.71,94.85,-170.17
77,1747592037000,3.37,0.26,0.9,-19.71,94.85,-170.17
78,1747592037010,3.37,0.26,0.9,-19.71,94.85,-170.17
79,1747592037020,1.78,-0.72,-0.16,4.21,209.9,-288.15
80,1747592037030,1.78,-0.72,-0.16,4.21,209.9,-288.15
81,1747592037040,0.85,-1.53,-0.68,47.06,339.97,-353.94
82,1747592037050,0.85,-1.53,-0.68,47.06,339.97,-353.94
83,1747592037060,0.85,-1.53,-0.68,47.06,339.97,-353.94
84,1747592037070,0.85,-1.53,-0.68,47.06,339.97,-353.94
85,1747592037080,-0.57,-2.02,-1.68,99.91,158.33,-409.79
86,1747592037090,-0.57,-2.02,-1.68,99.91,158.33,-409.79
87,1747592037100,-0.57,-2.02,-1.68,99.91,158.33,-409.79
88,1747592037110,-0.57,-2.02,-1.68,99.91,158.33,-409.79
89,1747592037120,-0.76,-1.73,-1.48,-0.37,93.75,-390.14
90,1747592037130,-0.76,-1.73,-1.48,-0.37,93.75,-390.14
91,1747592037140,-0.76,-1.73,-1.48,-0.37,93.75,-390.14
92,1747592037150,-0.76,-1.73,-1.48,-0.37,93.75,-390.14
93,1747592037160,-0.49,-1.38,-1.04,-59.94,160.46,-338.13
94,1747592037170,-0.49,-1.38,-1.04,-59.94,160.46,-338.13
95,1747592037180,-0.49,-1.38,-1.04,-59.94,160.46,-338.13
96,1747592037190,-0.49,-1.38,-1.04,-59.94,160.46,-338.13
97,1747592037200,-0.17,-1.21,-0.95,-50.96,190.55,-340.33
98,1747592037210,-0.17,-1.21,-0.95,-50.96,190.55,-340.33
99,1747592037220,-0.17,-1.21,-0.95,-50.96,190.55,-340.33
100,1747592037230,-0.17,-1.21,-0.95,-50.96,190.55,-340.33
101,1747592037240,-0.4,-1.45,-0.84,-16.36,197.39,-339.66
102,1747592037250,-0.4,-1.45,-0.84,-16.36,197.39,-339.66
103,1747592037260,-0.4,-1.45,-0.84,-16.36,197.39,-339.66
104,1747592037270,-0.6950000000000001,-1.71,-1.11,-11.63,270.08,-309.32500000000005
105,1747592037280,-0.99,-1.97,-1.38,-6.9,342.77,-278.99
106,1747592037290,-0.99,-1.97,-1.38,-6.9,342.77,-278.99
107,1747592037300,-0.99,-1.97,-1.38,-6.9,342.77,-278.99
108,1747592037310,-1.7200000000000002,-2.32,-1.5,7.385000000000001,364.745,-269.255
109,1747592037320,-2.45,-2.67,-1.62,21.67,386.72,-259.52
110,1747592037330,-2.45,-2.67,-1.62,21.67,386.72,-259.52
111,1747592037340,-2.45,-2.67,-1.62,21.67,386.72,-259.52
112,1747592037350,-4.71,-1.97,-1.67,13.43,274.23,-163.27
113,1747592037360,-4.71,-1.97,-1.67,13.43,274.23,-163.27
114,1747592037370,-4.71,-1.97,-1.67,13.43,274.23,-163.27
115,1747592037380,-4.71,-1.97,-1.67,13.43,274.23,-163.27
116,1747592037390,-5.8,-2.34,-1.35,19.9,-28.26,-158.39
117,1747592037400,-5.8,-2.34,-1.35,19.9,-28.26,-158.39
118,1747592037410,-5.8,-2.34,-1.35,19.9,-28.26,-158.39
119,1747592037420,-5.8,-2.34,-1.35,19.9,-28.26,-158.39
120,1747592037430,-5.42,-2.59,-0.7,16.45,-67.75,-55.91
121,1747592037440,-5.42,-2.59,-0.7,13.0,-107.24,46.57
122,1747592037450,-5.42,-2.59,-0.7,13.0,-107.24,46.57
123,1747592037460,-5.42,-2.59,-0.7,13.0,-107.24,46.57
124,1747592037470,-5.42,-2.59,-0.7,13.0,-107.24,46.57
125,1747592037480,-3.01,-1.79,-1.19,13.67,52.86,317.69
126,1747592037490,-3.01,-1.79,-1.19,13.67,52.86,317.69
127,1747592037500,-3.01,-1.79,-1.19,13.67,52.86,317.69
128,1747592037510,-1.42,-1.41,-1.34,-68.54,-177.19,301.39
129,1747592037520,-1.42,-1.41,-1.34,-68.54,-177.19,301.39
130,1747592037530,-1.42,-1.41,-1.34,-68.54,-177.19,301.39
131,1747592037540,-1.42,-1.41,-1.34,-68.54,-177.19,301.39
132,1747592037550,-0.51,-1.76,-1.13,-63.23,-262.39,331.42
133,1747592037560,-0.51,-1.76,-1.13,-63.23,-262.39,331.42
134,1747592037570,-0.51,-1.76,-1.13,-63.23,-262.39,331.42
135,1747592037580,-0.02,-1.75,-1.21,-57.92,-205.51,363.53
136,1747592037590,-0.02,-1.75,-1.21,-57.92,-205.51,363.53
137,1747592037600,-0.02,-1.75,-1.21,-57.92,-205.51,363.53
138,1747592037610,-0.02,-1.75,-1.21,-57.92,-205.51,363.53
139,1747592037620,-0.0999999999999999,-1.83,-1.22,-27.525,-256.47,346.375
140,1747592037630,-0.18,-1.91,-1.23,2.87,-307.43,329.22
141,1747592037640,-0.18,-1.91,-1.23,2.87,-307.43,329.22
142,1747592037650,-0.18,-1.91,-1.23,2.87,-307.43,329.22
143,1747592037660,-0.23,-2.0,-1.29,31.98,-255.92,386.35
144,1747592037670,-0.23,-2.0,-1.29,31.98,-255.92,386.35
145,1747592037680,-0.23,-2.0,-1.29,31.98,-255.92,386.35
146,1747592037690,-0.23,-2.0,-1.29,31.98,-255.92,386.35
147,1747592037700,-0.14,-1.85,-1.3,24.96,-168.7,369.69
148,1747592037710,-0.14,-1.85,-1.3,24.96,-168.7,369.69
149,1747592037720,-0.14,-1.85,-1.3,24.96,-168.7,369.69
150,1747592037730,-0.14,-1.85,-1.3,24.96,-168.7,369.69
151,1747592037740,0.08,-1.72,-1.12,16.785,-223.57,359.53
152,1747592037750,0.08,-1.72,-1.12,8.61,-278.44,349.37
153,1747592037760,0.08,-1.72,-1.12,8.61,-278.44,349.37
154,1747592037770,0.5650000000000001,-0.99,-0.5900000000000001,8.61,-278.44,349.37
155,1747592037780,1.05,-0.26,-0.06,23.8,-327.94,305.05
156,1747592037790,1.05,-0.26,-0.06,23.8,-327.94,305.05
157,1747592037800,1.05,-0.26,-0.06,23.8,-327.94,305.05
158,1747592037810,2.515,0.25,-0.05,53.28,-232.635,278.44
159,1747592037820,3.98,0.76,-0.04,82.76,-137.33,251.83
160,1747592037830,3.98,0.76,-0.04,82.76,-137.33,251.83
161,1747592037840,3.98,0.76,-0.04,82.76,-137.33,251.83
162,1747592037850,4.53,1.345,0.205,-19.654999999999998,-10.470000000000006,198.64
163,1747592037860,5.08,1.93,0.45,-122.07,116.39,145.45
164,1747592037870,5.08,1.93,0.45,-122.07,116.39,145.45
165,1747592037880,5.08,1.93,0.45,-122.07,116.39,145.45
166,1747592037890,3.35,0.37,0.09,-73.3,14.65,-256.29
167,1747592037900,3.35,0.37,0.09,-73.3,14.65,-256.29
168,1747592037910,3.35,0.37,0.09,-73.3,14.65,-256.29
169,1747592037920,3.35,0.37,0.09,-73.3,14.65,-256.29
170,1747592037930,1.85,-0.9,-0.35,-159.24,275.57,-316.53
171,1747592037940,1.85,-0.9,-0.35,-159.24,275.57,-316.53
172,1747592037950,1.85,-0.9,-0.35,-159.24,275.57,-316.53
173,1747592037960,1.85,-0.9,-0.35,-159.24,275.57,-316.53
174,1747592037970,0.11,-2.06,-0.87,-89.11,276.55,-410.64
175,1747592037980,0.11,-2.06,-0.87,-89.11,276.55,-410.64
176,1747592037990,0.11,-2.06,-0.87,-89.11,276.55,-410.64
177,1747592038000,0.11,-2.06,-0.87,-89.11,276.55,-410.64
178,1747592038010,-0.71,-2.15,-1.29,-81.85,248.05,-362.0
179,1747592038020,-0.71,-2.15,-1.29,-81.85,248.05,-362.0
180,1747592038030,-0.71,-2.15,-1.29,-81.85,248.05,-362.0
181,1747592038040,-0.71,-2.15,-1.29,-81.85,248.05,-362.0
182,1747592038050,-0.59,-1.72,-1.17,-75.68,314.51,-282.47
183,1747592038060,-0.59,-1.72,-1.17,-75.68,314.51,-282.47
184,1747592038070,-0.59,-1.72,-1.17,-75.68,314.51,-282.47
185,1747592038080,-0.385,-1.545,-1.055,-35.95,300.415,-268.645
186,1747592038090,-0.18,-1.37,-0.94,3.78,286.32,-254.82
187,1747592038100,-0.18,-1.37,-0.94,3.78,286.32,-254.82
188,1747592038110,-0.18,-1.37,-0.94,3.78,286.32,-254.82
189,1747592038120,-0.065,-1.355,-0.955,37.87,240.97,-285.185
190,1747592038130,0.05,-1.34,-0.97,71.96,195.62,-315.55
191,1747592038140,0.05,-1.34,-0.97,71.96,195.62,-315.55
192,1747592038150,0.05,-1.34,-0.97,71.96,195.62,-315.55
193,1747592038160,-0.53,-1.86,-1.19,71.96,195.62,-315.55
194,1747592038170,-0.53,-1.86,-1.19,96.5,291.69,-306.88
195,1747592038180,-0.53,-1.86,-1.19,96.5,291.69,-306.88
196,1747592038190,-0.53,-1.86,-1.19,96.5,291.69,-306.88
197,1747592038200,-1.04,-2.28,-1.74,137.27,345.89,-246.89
198,1747592038210,-1.04,-2.28,-1.74,137.27,345.89,-246.89
199,1747592038220,-1.04,-2.28,-1.74,137.27,345.89,-246.89
200,1747592038230,-1.04,-2.28,-1.74,137.27,345.89,-246.89
201,1747592038240,-2.88,-2.38,-1.85,100.375,310.67,-263.43
202,1747592038250,-2.88,-2.38,-1.85,63.48,275.45,-279.97
203,1747592038260,-2.88,-2.38,-1.85,63.48,275.45,-279.97
204,1747592038270,-4.81,-1.92,-1.28,124.63,224.3,-154.3
205,1747592038280,-4.81,-1.92,-1.28,124.63,224.3,-154.3
206,1747592038290,-4.81,-1.92,-1.28,124.63,224.3,-154.3
207,1747592038300,-4.81,-1.92,-1.28,124.63,224.3,-154.3
208,1747592038310,-6.88,-2.52,-2.07,20.87,-84.11,-170.53
209,1747592038320,-6.88,-2.52,-2.07,20.87,-84.11,-170.53
210,1747592038330,-6.88,-2.52,-2.07,20.87,-84.11,-170.53
211,1747592038340,-6.88,-2.52,-2.07,20.87,-84.11,-170.53
212,1747592038350,-4.99,-3.2,-1.58,37.72,-201.84,128.97
213,1747592038360,-4.99,-3.2,-1.58,37.72,-201.84,128.97
214,1747592038370,-4.99,-3.2,-1.58,37.72,-201.84,128.97
215,1747592038380,-3.69,-2.51,-1.395,-15.439999999999998,-67.685,253.39
216,1747592038390,-2.39,-1.82,-1.21,-68.6,66.47,377.81
217,1747592038400,-2.39,-1.82,-1.21,-68.6,66.47,377.81
218,1747592038410,-2.39,-1.82,-1.21,-68.6,66.47,377.81
219,1747592038420,-1.915,-1.7000000000000002,-1.27,-75.315,-43.335,369.11
220,1747592038430,-1.44,-1.58,-1.33,-82.03,-153.14,360.41
221,1747592038440,-1.44,-1.58,-1.33,-82.03,-153.14,360.41
222,1747592038450,-1.44,-1.58,-1.33,-82.03,-153.14,360.41
223,1747592038460,-0.81,-2.05,-1.35,-93.84,-200.26,379.975
224,1747592038470,-0.81,-2.05,-1.35,-105.65,-247.38,399.54
225,1747592038480,-0.81,-2.05,-1.35,-105.65,-247.38,399.54
226,1747592038490,-0.81,-2.05,-1.35,-105.65,-247.38,399.54
227,1747592038500,-0.18,-2.37,-1.27,-97.535,-277.925,397.495
228,1747592038510,-0.18,-2.37,-1.27,-89.42,-308.47,395.45
229,1747592038520,-0.18,-2.37,-1.27,-89.42,-308.47,395.45
230,1747592038530,-0.18,-2.37,-1.27,-89.42,-308.47,395.45
231,1747592038540,-0.35,-2.47,-1.22,-28.99,-296.14,401.06
232,1747592038550,-0.35,-2.47,-1.22,-28.99,-296.14,401.06
233,1747592038560,-0.35,-2.47,-1.22,-28.99,-296.14,401.06
234,1747592038570,-0.35,-2.47,-1.22,-28.99,-296.14,401.06
235,1747592038580,-0.14,-2.38,-1.11,10.8,-240.36,431.58
236,1747592038590,-0.14,-2.38,-1.11,10.8,-240.36,431.58
237,1747592038600,-0.14,-2.38,-1.11,10.8,-240.36,431.58
238,1747592038610,-0.14,-2.38,-1.11,10.8,-240.36,431.58
239,1747592038620,-0.02,-2.2,-0.96,20.63,-216.43,401.43
240,1747592038630,-0.02,-2.2,-0.96,20.63,-216.43,401.43
241,1747592038640,-0.02,-2.2,-0.96,20.63,-216.43,401.43
242,1747592038650,-0.02,-2.2,-0.96,20.63,-216.43,401.43
243,1747592038660,0.05,-1.79,-0.67,32.47,-215.21,366.21
244,1747592038670,0.05,-1.79,-0.67,32.47,-215.21,366.21
245,1747592038680,0.05,-1.79,-0.67,32.47,-215.21,366.21
246,1747592038690,1.2,-0.78,-0.05,45.35,-187.01,338.99
247,1747592038700,1.2,-0.78,-0.05,45.35,-187.01,338.99
248,1747592038710,1.2,-0.78,-0.05,45.35,-187.01,338.99
249,1747592038720,1.2,-0.78,-0.05,45.35,-187.01,338.99
250,1747592038730,3.93,0.28,0.14,88.68,-146.61,299.56
251,1747592038740,3.93,0.28,0.14,88.68,-146.61,299.56
252,1747592038750,3.93,0.28,0.14,88.68,-146.61,299.56
253,1747592038760,3.93,0.28,0.14,88.68,-146.61,299.56
254,1747592038770,5.07,1.4,-0.5,-49.62,113.83,86.67
255,1747592038780,5.07,1.4,-0.5,-49.62,113.83,86.67
256,1747592038790,5.07,1.4,-0.5,-49.62,113.83,86.67
257,1747592038800,5.07,1.4,-0.5,-49.62,113.83,86.67
258,1747592038810,3.82,0.74,0.28,-81.67,39.86,-189.33
259,1747592038820,3.82,0.74,0.28,-81.67,39.86,-189.33
260,1747592038830,3.82,0.74,0.28,-81.67,39.86,-189.33
261,1747592038840,2.945,0.1399999999999999,0.11,-81.67,39.86,-189.33
262,1747592038850,2.07,-0.46,-0.06,-93.81,204.9,-251.16
263,1747592038860,2.07,-0.46,-0.06,-93.81,204.9,-251.16
264,1747592038870,2.07,-0.46,-0.06,-93.81,204.9,-251.16
265,1747592038880,1.5299999999999998,-0.96,-0.305,-83.74000000000001,239.81,-320.1
266,1747592038890,0.99,-1.46,-0.55,-73.67,274.72,-389.04
267,1747592038900,0.99,-1.46,-0.55,-73.67,274.72,-389.04
268,1747592038910,0.99,-1.46,-0.55,-73.67,274.72,-389.04
269,1747592038920,0.99,-1.46,-0.55,-73.67,274.72,-389.04
270,1747592038930,-0.14,-2.31,-1.14,23.62,318.3,-422.12
271,1747592038940,-0.14,-2.31,-1.14,23.62,318.3,-422.12
272,1747592038950,-0.14,-2.31,-1.14,23.62,318.3,-422.12
273,1747592038960,-0.25,-2.265,-1.4,21.73,312.53,-405.215
274,1747592038970,-0.36,-2.22,-1.66,19.84,306.76,-388.31
275,1747592038980,-0.36,-2.22,-1.66,19.84,306.76,-388.31
276,1747592038990,-0.36,-2.22,-1.66,19.84,306.76,-388.31
277,1747592039000,-0.25,-1.79,-1.42,22.09,211.3,-371.83
278,1747592039010,-0.25,-1.79,-1.42,22.09,211.3,-371.83
279,1747592039020,-0.25,-1.79,-1.42,22.09,211.3,-371.83
280,1747592039030,-0.25,-1.79,-1.42,22.09,211.3,-371.83
281,1747592039040,-0.13,-1.63,-1.26,-8.79,221.56,-374.21
282,1747592039050,-0.13,-1.63,-1.26,-8.79,221.56,-374.21
283,1747592039060,-0.13,-1.63,-1.26,-8.79,221.56,-374.21
284,1747592039070,-0.13,-1.63,-1.26,-8.79,221.56,-374.21
285,1747592039080,-0.26,-1.73,-1.3,21.97,316.71,-344.91
286,1747592039090,-0.26,-1.73,-1.3,21.97,316.71,-344.91
287,1747592039100,-0.26,-1.73,-1.3,21.97,316.71,-344.91
288,1747592039110,-0.26,-1.73,-1.3,21.97,316.71,-344.91
289,1747592039120,-0.66,-2.17,-1.77,105.04,314.76,-302.73
290,1747592039130,-0.66,-2.17,-1.77,105.04,314.76,-302.73
291,1747592039140,-0.66,-2.17,-1.77,105.04,314.76,-302.73
292,1747592039150,-1.405,-2.3200000000000003,-2.13,84.35,280.855,-288.39
293,1747592039160,-2.15,-2.47,-2.49,63.66,246.95,-274.05
294,1747592039170,-2.15,-2.47,-2.49,63.66,246.95,-274.05
295,1747592039180,-2.15,-2.47,-2.49,63.66,246.95,-274.05
296,1747592039190,-2.15,-2.47,-2.49,63.66,246.95,-274.05
297,1747592039200,-4.58,-1.55,-1.53,18.62,293.4,-150.39
298,1747592039210,-4.58,-1.55,-1.53,18.62,293.4,-150.39
299,1747592039220,-4.58,-1.55,-1.53,18.62,293.4,-150.39
300,1747592039230,-5.91,-2.23,-3.06,18.62,293.4,-150.39
301,1747592039240,-5.91,-2.23,-3.06,113.77,107.79,-164.0
302,1747592039250,-5.91,-2.23,-3.06,113.77,107.79,-164.0
303,1747592039260,-5.91,-2.23,-3.06,113.77,107.79,-164.0
304,1747592039270,-4.59,-3.33,-2.67,113.77,107.79,-164.0
305,1747592039280,-4.59,-3.33,-2.67,36.8,-271.3,92.71
306,1747592039290,-4.59,-3.33,-2.67,36.8,-271.3,92.71
307,1747592039300,-4.59,-3.33,-2.67,36.8,-271.3,92.71
308,1747592039310,-2.51,-1.78,-2.07,-120.67,-68.97,299.26
309,1747592039320,-2.51,-1.78,-2.07,-120.67,-68.97,299.26
310,1747592039330,-2.51,-1.78,-2.07,-120.67,-68.97,299.26
311,1747592039340,-2.51,-1.78,-2.07,-120.67,-68.97,299.26
312,1747592039350,-1.37,-1.53,-1.39,-116.03,-253.91,308.65
313,1747592039360,-1.37,-1.53,-1.39,-116.03,-253.91,308.65
314,1747592039370,-1.37,-1.53,-1.39,-116.03,-253.91,308.65
315,1747592039380,-1.37,-1.53,-1.39,-116.03,-253.91,308.65
316,1747592039390,-0.64,-1.74,-1.41,-70.01,-332.15,365.97
317,1747592039400,-0.64,-1.74,-1.41,-70.01,-332.15,365.97
318,1747592039410,-0.64,-1.74,-1.41,-70.01,-332.15,365.97
319,1747592039420,-0.225,-1.81,-1.43,-79.135,-284.29999999999995,380.615
320,1747592039430,0.19,-1.88,-1.45,-88.26,-236.45,395.26
321,1747592039440,0.19,-1.88,-1.45,-88.26,-236.45,395.26
322,1747592039450,0.19,-1.88,-1.45,-88.26,-236.45,395.26
323,1747592039460,0.19,-1.88,-1.45,-88.26,-236.45,395.26
324,1747592039470,-0.01,-2.0,-1.49,-119.63,-214.84,373.78
325,1747592039480,-0.01,-2.0,-1.49,-119.63,-214.84,373.78
326,1747592039490,-0.01,-2.0,-1.49,-119.63,-214.84,373.78
327,1747592039500,-0.01,-2.0,-1.49,-119.63,-214.84,373.78
328,1747592039510,-0.03,-2.02,-1.57,-99.79,-239.99,392.4
329,1747592039520,-0.03,-2.02,-1.57,-99.79,-239.99,392.4
330,1747592039530,-0.03,-2.02,-1.57,-99.79,-239.99,392.4
331,1747592039540,-0.03,-2.02,-1.57,-99.79,-239.99,392.4
332,1747592039550,0.02,-1.94,-1.62,-89.97,-234.07,368.9
333,1747592039560,0.02,-1.94,-1.62,-89.97,-234.07,368.9
334,1747592039570,0.02,-1.94,-1.62,-89.97,-234.07,368.9
335,1747592039580,0.01,-1.875,-1.465,-99.245,-243.38,357.365
336,1747592039590,0.0,-1.81,-1.31,-108.52,-252.69,345.83
337,1747592039600,0.0,-1.81,-1.31,-108.52,-252.69,345.83
338,1747592039610,0.0,-1.81,-1.31,-108.52,-252.69,345.83
339,1747592039620,0.81,-1.17,-0.37,-74.52,-352.11,313.35
340,1747592039630,0.81,-1.17,-0.37,-74.52,-352.11,313.35
341,1747592039640,0.81,-1.17,-0.37,-74.52,-352.11,313.35
342,1747592039650,0.81,-1.17,-0.37,-74.52,-352.11,313.35
343,1747592039660,3.52,-0.07,0.83,4.27,-296.87,318.36
344,1747592039670,3.52,-0.07,0.83,4.27,-296.87,318.36
345,1747592039680,3.52,-0.07,0.83,4.27,-296.87,318.36
346,1747592039690,3.52,-0.07,0.83,4.27,-296.87,318.36
347,1747592039700,5.85,0.98,0.73,-70.77,-104.215,233.885
348,1747592039710,5.85,0.98,0.73,-145.81,88.44,149.41
349,1747592039720,5.85,0.98,0.73,-145.81,88.44,149.41
350,1747592039730,5.85,0.98,0.73,-145.81,88.44,149.41
351,1747592039740,3.97,0.14,1.07,-98.69,70.19,-181.46
352,1747592039750,3.97,0.14,1.07,-98.69,70.19,-181.46
353,1747592039760,3.97,0.14,1.07,-98.69,70.19,-181.46
354,1747592039770,3.14,-0.2749999999999999,0.605,-100.46,182.25,-215.395
355,1747592039780,2.31,-0.69,0.14,-102.23,294.31,-249.33
356,1747592039790,2.31,-0.69,0.14,-102.23,294.31,-249.33
357,1747592039800,1.33,-1.2,-0.36,-102.23,294.31,-249.33
358,1747592039810,1.33,-1.2,-0.36,-48.95,403.93,-313.42
359,1747592039820,1.33,-1.2,-0.36,-48.95,403.93,-313.42
360,1747592039830,1.33,-1.2,-0.36,-48.95,403.93,-313.42
361,1747592039840,1.33,-1.2,-0.36,-48.95,403.93,-313.42
362,1747592039850,0.15,-2.16,-1.59,136.96,459.41,-346.92
363,1747592039860,0.15,-2.16,-1.59,136.96,459.41,-346.92
364,1747592039870,0.15,-2.16,-1.59,136.96,459.41,-346.92
365,1747592039880,-0.31,-2.14,-2.12,136.96,459.41,-346.92
366,1747592039890,-0.31,-2.14,-2.12,138.18,345.28,-354.86
367,1747592039900,-0.31,-2.14,-2.12,138.18,345.28,-354.86
368,1747592039910,-0.31,-2.14,-2.12,138.18,345.28,-354.86
369,1747592039920,-0.34,-1.94,-1.9,126.495,282.475,-365.175
370,1747592039930,-0.34,-1.94,-1.9,114.81,219.67,-375.49
371,1747592039940,-0.34,-1.94,-1.9,114.81,219.67,-375.49
372,1747592039950,-0.34,-1.94,-1.9,114.81,219.67,-375.49
373,1747592039960,-0.12,-1.86,-1.64,95.52,214.51,-381.195
374,1747592039970,-0.12,-1.86,-1.64,76.23,209.35,-386.9
375,1747592039980,-0.12,-1.86,-1.64,76.23,209.35,-386.9
376,1747592039990,-0.12,-1.86,-1.64,76.23,209.35,-386.9
377,1747592040000,-0.27,-1.93,-1.46,74.83000000000001,265.87,-369.445
378,1747592040010,-0.27,-1.93,-1.46,73.43,322.39,-351.99
379,1747592040020,-0.27,-1.93,-1.46,73.43,322.39,-351.99
380,1747592040030,-0.27,-1.93,-1.46,73.43,322.39,-351.99
381,1747592040040,-1.1,-2.11,-1.99,133.67,319.27,-306.7
382,1747592040050,-1.1,-2.11,-1.99,133.67,319.27,-306.7
383,1747592040060,-1.1,-2.11,-1.99,133.67,319.27,-306.7
384,1747592040070,-1.1,-2.11,-1.99,133.67,319.27,-306.7
385,1747592040080,-2.1,-2.1,-2.37,36.19,331.79,-168.7
386,1747592040090,-2.1,-2.1,-2.37,36.19,331.79,-168.7
387,1747592040100,-2.1,-2.1,-2.37,36.19,331.79,-168.7
388,1747592040110,-2.87,-1.74,-1.855,36.19,331.79,-168.7
389,1747592040120,-3.64,-1.38,-1.34,-10.38,313.9,-95.46
390,1747592040130,-3.64,-1.38,-1.34,-10.38,313.9,-95.46
391,1747592040140,-3.64,-1.38,-1.34,-10.38,313.9,-95.46
392,1747592040150,-4.08,-1.6549999999999998,-1.725,77.72500000000001,217.835,-135.07
393,1747592040160,-4.52,-1.93,-2.11,165.83,121.77,-174.68
394,1747592040170,-4.52,-1.93,-2.11,165.83,121.77,-174.68
395,1747592040180,-4.52,-1.93,-2.11,165.83,121.77,-174.68
396,1747592040190,-4.52,-1.93,-2.11,165.83,121.77,-174.68
397,1747592040200,-5.51,-3.46,-2.62,65.25,-237.55,-16.78
398,1747592040210,-5.51,-3.46,-2.62,65.25,-237.55,-16.78
399,1747592040220,-5.51,-3.46,-2.62,65.25,-237.55,-16.78
400,1747592040230,-5.51,-3.46,-2.62,65.25,-237.55,-16.78
401,1747592040240,-2.84,-2.02,-2.24,-114.44,109.25,361.69
402,1747592040250,-2.84,-2.02,-2.24,-114.44,109.25,361.69
403,1747592040260,-2.84,-2.02,-2.24,-114.44,109.25,361.69
404,1747592040270,-2.205,-1.65,-1.995,-117.43,-32.41,340.115
405,1747592040280,-1.57,-1.28,-1.75,-120.42,-174.07,318.54
406,1747592040290,-1.57,-1.28,-1.75,-120.42,-174.07,318.54
407,1747592040300,-1.57,-1.28,-1.75,-120.42,-174.07,318.54
408,1747592040310,-1.225,-1.415,-1.71,-128.11,-228.82,334.19500000000005
409,1747592040320,-0.88,-1.55,-1.67,-135.8,-283.57,349.85
410,1747592040330,-0.88,-1.55,-1.67,-135.8,-283.57,349.85
411,1747592040340,-0.88,-1.55,-1.67,-135.8,-283.57,349.85
412,1747592040350,-0.09,-1.94,-1.49,-142.575,-293.765,346.89
413,1747592040360,-0.09,-1.94,-1.49,-149.35,-303.96,343.93
414,1747592040370,-0.09,-1.94,-1.49,-149.35,-303.96,343.93
415,1747592040380,-0.09,-1.94,-1.49,-149.35,-303.96,343.93
416,1747592040390,-0.01,-2.08,-1.49,-133.175,-301.76,350.735
417,1747592040400,-0.01,-2.08,-1.49,-117.0,-299.56,357.54
418,1747592040410,-0.01,-2.08,-1.49,-117.0,-299.56,357.54
419,1747592040420,-0.01,-2.08,-1.49,-117.0,-299.56,357.54
420,1747592040430,0.0,-2.14,-1.41,-115.78,-245.18,361.33
421,1747592040440,0.0,-2.14,-1.41,-115.78,-245.18,361.33
422,1747592040450,0.0,-2.14,-1.41,-115.78,-245.18,361.33
423,1747592040460,0.0,-2.0700000000000003,-1.36,-115.78,-245.18,361.33
424,1747592040470,0.0,-2.0,-1.31,-92.65,-256.59,368.16
425,1747592040480,0.0,-2.0,-1.31,-92.65,-256.59,368.16
426,1747592040490,0.0,-2.0,-1.31,-92.65,-256.59,368.16
427,1747592040500,0.0,-2.0,-1.31,-92.65,-256.59,368.16
428,1747592040510,0.01,-1.85,-1.15,-65.8,-245.85,357.36
429,1747592040520,0.01,-1.85,-1.15,-65.8,-245.85,357.36
430,1747592040530,0.01,-1.85,-1.15,-65.8,-245.85,357.36
431,1747592040540,0.295,-1.58,-0.7749999999999999,-65.8,-245.85,357.36
432,1747592040550,0.58,-1.31,-0.4,-64.76,-241.39,315.67
433,1747592040560,0.58,-1.31,-0.4,-64.76,-241.39,315.67
434,1747592040570,0.58,-1.31,-0.4,-64.76,-241.39,315.67
435,1747592040580,1.315,-0.6900000000000001,0.2199999999999999,-30.730000000000004,-278.015,304.135
436,1747592040590,2.05,-0.07,0.84,3.3,-314.64,292.6
437,1747592040600,2.05,-0.07,0.84,3.3,-314.64,292.6
438,1747592040610,2.05,-0.07,0.84,3.3,-314.64,292.6
439,1747592040620,5.17,0.65,-0.04,14.285,-155.885,254.33
440,1747592040630,5.17,0.65,-0.04,25.27,2.87,216.06
441,1747592040640,5.17,0.65,-0.04,25.27,2.87,216.06
442,1747592040650,5.17,0.65,-0.04,25.27,2.87,216.06
443,1747592040660,5.22,0.91,1.43,-112.18,-40.41,-121.34
444,1747592040670,5.22,0.91,1.43,-112.18,-40.41,-121.34
445,1747592040680,5.22,0.91,1.43,-112.18,-40.41,-121.34
446,1747592040690,5.22,0.91,1.43,-112.18,-40.41,-121.34
447,1747592040700,3.975,0.28,0.93,-94.145,86.91,-185.7
448,1747592040710,2.73,-0.35,0.43,-76.11,214.23,-250.06
449,1747592040720,2.73,-0.35,0.43,-76.11,214.23,-250.06
450,1747592040730,2.73,-0.35,0.43,-76.11,214.23,-250.06
451,1747592040740,2.015,-0.7749999999999999,0.0449999999999999,-48.095,257.14,-307.46500000000003
452,1747592040750,1.3,-1.2,-0.34,-20.08,300.05,-364.87
453,1747592040760,1.3,-1.2,-0.34,-20.08,300.05,-364.87
454,1747592040770,1.3,-1.2,-0.34,-20.08,300.05,-364.87
455,1747592040780,0.13,-2.23,-1.38,96.01,386.41,-409.0
456,1747592040790,0.13,-2.23,-1.38,96.01,386.41,-409.0
457,1747592040800,0.13,-2.23,-1.38,96.01,386.41,-409.0
458,1747592040810,0.13,-2.23,-1.38,96.01,386.41,-409.0
459,1747592040820,-0.63,-2.27,-2.17,74.04,294.25,-385.31
460,1747592040830,-0.63,-2.27,-2.17,74.04,294.25,-385.31
461,1747592040840,-0.63,-2.27,-2.17,74.04,294.25,-385.31
462,1747592040850,-0.63,-2.27,-2.17,74.04,294.25,-385.31
463,1747592040860,-0.38,-1.78,-1.74,22.89,216.74,-358.28
464,1747592040870,-0.38,-1.78,-1.74,22.89,216.74,-358.28
465,1747592040880,-0.38,-1.78,-1.74,22.89,216.74,-358.28
466,1747592040890,-0.38,-1.78,-1.74,22.89,216.74,-358.28
467,1747592040900,-0.24,-1.61,-1.52,0.18,214.17,-362.24
468,1747592040910,-0.24,-1.61,-1.52,0.18,214.17,-362.24
469,1747592040920,-0.24,-1.61,-1.52,0.18,214.17,-362.24
470,1747592040930,-0.24,-1.61,-1.52,0.18,214.17,-362.24
471,1747592040940,-0.31,-1.56,-1.38,1.04,317.08,-311.16
472,1747592040950,-0.31,-1.56,-1.38,1.04,317.08,-311.16
473,1747592040960,-0.31,-1.56,-1.38,1.04,317.08,-311.16
474,1747592040970,-0.82,-1.79,-1.75,87.04,319.64,-253.23
475,1747592040980,-0.82,-1.79,-1.75,87.04,319.64,-253.23
476,1747592040990,-0.82,-1.79,-1.75,87.04,319.64,-253.23
477,1747592041000,-0.82,-1.79,-1.75,87.04,319.64,-253.23
478,1747592041010,-1.88,-1.57,-2.27,16.97,333.19,-180.18
479,1747592041020,-1.88,-1.57,-2.27,16.97,333.19,-180.18
480,1747592041030,-1.88,-1.57,-2.27,16.97,333.19,-180.18
481,1747592041040,-1.88,-1.57,-2.27,16.97,333.19,-180.18
482,1747592041050,-4.03,-1.47,-1.46,0.31,255.74,-143.01
483,1747592041060,-4.03,-1.47,-1.46,0.31,255.74,-143.01
484,1747592041070,-4.03,-1.47,-1.46,0.31,255.74,-143.01
485,1747592041080,-4.03,-1.47,-1.46,0.31,255.74,-143.01
486,1747592041090,-4.64,-1.22,-2.77,102.66,194.89,-97.11
487,1747592041100,-4.64,-1.22,-2.77,102.66,194.89,-97.11
488,1747592041110,-4.64,-1.22,-2.77,102.66,194.89,-97.11
489,1747592041120,-4.94,-2.055,-2.76,59.175,-57.495000000000005,-53.315
490,1747592041130,-5.24,-2.89,-2.75,15.69,-309.88,-9.52
491,1747592041140,-5.24,-2.89,-2.75,15.69,-309.88,-9.52
492,1747592041150,-5.24,-2.89,-2.75,15.69,-309.88,-9.52
493,1747592041160,-4.16,-2.415,-2.49,-17.21,-179.14,126.59
494,1747592041170,-3.08,-1.94,-2.23,-50.11,-48.4,262.7
495,1747592041180,-3.08,-1.94,-2.23,-50.11,-48.4,262.7
496,1747592041190,-3.08,-1.94,-2.23,-50.11,-48.4,262.7
497,1747592041200,-2.355,-1.6,-1.91,-50.11,-48.4,262.7
498,1747592041210,-1.63,-1.26,-1.59,-87.46,-147.03,295.23
499,1747592041220,-1.63,-1.26,-1.59,-87.46,-147.03,295.23
500,1747592041230,-1.63,-1.26,-1.59,-87.46,-147.03,295.23
501,1747592041240,-0.97,-1.28,-1.46,-61.4,-305.48,302.25
502,1747592041250,-0.97,-1.28,-1.46,-61.4,-305.48,302.25
503,1747592041260,-0.97,-1.28,-1.46,-61.4,-305.48,302.25
504,1747592041270,-0.97,-1.28,-1.46,-61.4,-305.48,302.25
505,1747592041280,-0.18,-1.63,-1.42,-83.5,-262.82,371.15
506,1747592041290,-0.18,-1.63,-1.42,-83.5,-262.82,371.15
507,1747592041300,-0.18,-1.63,-1.42,-83.5,-262.82,371.15
508,1747592041310,-0.18,-1.63,-1.42,-83.5,-262.82,371.15
509,1747592041320,0.06,-1.66,-1.38,-63.6,-233.7,348.69
510,1747592041330,0.06,-1.66,-1.38,-63.6,-233.7,348.69
511,1747592041340,0.06,-1.66,-1.38,-63.6,-233.7,348.69
512,1747592041350,0.06,-1.66,-1.38,-63.6,-233.7,348.69
513,1747592041360,-0.13,-1.93,-1.56,-73.305,-242.855,368.285
514,1747592041370,-0.13,-1.93,-1.56,-83.01,-252.01,387.88
515,1747592041380,-0.13,-1.93,-1.56,-83.01,-252.01,387.88
516,1747592041390,-0.13,-1.93,-1.56,-83.01,-252.01,387.88
517,1747592041400,-0.01,-1.88,-1.5,-102.17,-227.23,386.35
518,1747592041410,-0.01,-1.88,-1.5,-102.17,-227.23,386.35
519,1747592041420,-0.01,-1.88,-1.5,-102.17,-227.23,386.35
520,1747592041430,-0.01,-1.88,-1.5,-102.17,-227.23,386.35
521,1747592041440,0.03,-1.74,-1.25,-91.55,-263.37,368.16
522,1747592041450,0.03,-1.74,-1.25,-91.55,-263.37,368.16
523,1747592041460,0.03,-1.74,-1.25,-91.55,-263.37,368.16
524,1747592041470,0.24,-1.535,-0.83,-91.55,-263.37,368.16
525,1747592041480,0.45,-1.33,-0.41,-34.36,-398.86,275.76
526,1747592041490,0.45,-1.33,-0.41,-34.36,-398.86,275.76
527,1747592041500,0.45,-1.33,-0.41,-34.36,-398.86,275.76
528,1747592041510,1.3450000000000002,-0.5800000000000001,0.11,17.795,-354.915,281.07
529,1747592041520,2.24,0.17,0.63,69.95,-310.97,286.38
530,1747592041530,2.24,0.17,0.63,69.95,-310.97,286.38
531,1747592041540,2.24,0.17,0.63,69.95,-310.97,286.38
532,1747592041550,3.805,0.465,0.29,69.95,-310.97,286.38
533,1747592041560,5.37,0.76,-0.05,-49.99,47.49,146.91
534,1747592041570,5.37,0.76,-0.05,-49.99,47.49,146.91
535,1747592041580,5.37,0.76,-0.05,-49.99,47.49,146.91
536,1747592041590,5.04,0.885,0.53,-101.045,50.325,-0.7349999999999994
537,1747592041600,4.71,1.01,1.11,-152.1,53.16,-148.38
538,1747592041610,4.71,1.01,1.11,-152.1,53.16,-148.38
539,1747592041620,4.71,1.01,1.11,-152.1,53.16,-148.38
540,1747592041630,2.65,-0.22,0.34,-128.45,151.45999999999998,-193.085
541,1747592041640,2.65,-0.22,0.34,-104.8,249.76,-237.79
542,1747592041650,2.65,-0.22,0.34,-104.8,249.76,-237.79
543,1747592041660,2.65,-0.22,0.34,-104.8,249.76,-237.79
544,1747592041670,1.3,-1.14,-0.57,-40.34,336.55,-316.04
545,1747592041680,1.3,-1.14,-0.57,-40.34,336.55,-316.04
546,1747592041690,1.3,-1.14,-0.57,-40.34,336.55,-316.04
547,1747592041700,1.3,-1.14,-0.57,-40.34,336.55,-316.04
548,1747592041710,0.25,-2.22,-1.41,97.53,409.79,-362.37
549,1747592041720,0.25,-2.22,-1.41,97.53,409.79,-362.37
550,1747592041730,0.25,-2.22,-1.41,97.53,409.79,-362.37
551,1747592041740,-0.13,-2.24,-1.805,97.53,409.79,-362.37
552,1747592041750,-0.51,-2.26,-2.2,125.85,292.66,-369.93
553,1747592041760,-0.51,-2.26,-2.2,125.85,292.66,-369.93
554,1747592041770,-0.51,-2.26,-2.2,125.85,292.66,-369.93
555,1747592041780,-0.55,-2.105,-2.065,85.66,279.755,-358.855
556,1747592041790,-0.59,-1.95,-1.93,45.47,266.85,-347.78
557,1747592041800,-0.59,-1.95,-1.93,45.47,266.85,-347.78
558,1747592041810,-0.59,-1.95,-1.93,45.47,266.85,-347.78
559,1747592041820,-0.435,-1.795,-1.725,30.425,252.23,-342.59
560,1747592041830,-0.28,-1.64,-1.52,15.38,237.61,-337.4
561,1747592041840,-0.28,-1.64,-1.52,15.38,237.61,-337.4
562,1747592041850,-0.28,-1.64,-1.52,15.38,237.61,-337.4
563,1747592041860,-0.32,-1.69,-1.49,15.38,237.61,-337.4
564,1747592041870,-0.36,-1.74,-1.46,52.67,286.25,-320.98
565,1747592041880,-0.36,-1.74,-1.46,52.67,286.25,-320.98
566,1747592041890,-0.36,-1.74,-1.46,52.67,286.25,-320.98
567,1747592041900,-0.36,-1.74,-1.46,52.67,286.25,-320.98
568,1747592041910,-0.36,-1.74,-1.46,52.67,286.25,-320.98
569,1747592041920,-0.93,-1.77,-1.73,72.33,391.11,-258.48
570,1747592041930,-0.93,-1.77,-1.73,72.33,391.11,-258.48
571,1747592041940,-2.16,-1.64,-2.17,77.58,212.52,-237.85
572,1747592041950,-2.16,-1.64,-2.17,77.58,212.52,-237.85
573,1747592041960,-2.16,-1.64,-2.17,77.58,212.52,-237.85
574,1747592041970,-2.16,-1.64,-2.17,77.58,212.52,-237.85
575,1747592041980,-4.46,-1.22,-1.5,6.1,291.56,-116.27
576,1747592041990,-4.46,-1.22,-1.5,6.1,291.56,-116.27
577,1747592042000,-4.46,-1.22,-1.5,6.1,291.56,-116.27
578,1747592042010,-4.46,-1.22,-1.5,6.1,291.56,-116.27
579,1747592042020,-5.08,-1.36,-2.89,81.05,106.93,-145.87
580,1747592042030,-5.08,-1.36,-2.89,81.05,106.93,-145.87
581,1747592042040,-5.08,-1.36,-2.89,81.05,106.93,-145.87
582,1747592042050,-4.85,-2.09,-2.855,58.62,-84.72,-31.095
583,1747592042060,-4.62,-2.82,-2.82,36.19,-276.37,83.68
584,1747592042070,-4.62,-2.82,-2.82,36.19,-276.37,83.68
585,1747592042080,-4.62,-2.82,-2.82,36.19,-276.37,83.68
586,1747592042090,-2.45,-1.75,-2.34,-30.825000000000003,-132.415,187.93
587,1747592042100,-2.45,-1.75,-2.34,-97.84,11.54,292.18
588,1747592042110,-2.45,-1.75,-2.34,-97.84,11.54,292.18
589,1747592042120,-2.45,-1.75,-2.34,-97.84,11.54,292.18
590,1747592042130,-1.94,-1.48,-2.065,-104.615,-98.905,274.385
591,1747592042140,-1.43,-1.21,-1.79,-111.39,-209.35,256.59
592,1747592042150,-1.43,-1.21,-1.79,-111.39,-209.35,256.59
593,1747592042160,-1.43,-1.21,-1.79,-111.39,-209.35,256.59
594,1747592042170,-0.83,-1.28,-1.47,-117.31,-247.16000000000005,274.625
595,1747592042180,-0.83,-1.28,-1.47,-123.23,-284.97,292.66
596,1747592042190,-0.83,-1.28,-1.47,-123.23,-284.97,292.66
597,1747592042200,-0.83,-1.28,-1.47,-123.23,-284.97,292.66
598,1747592042210,-0.13,-1.51,-1.28,-137.76,-263.61,340.45
599,1747592042220,-0.13,-1.51,-1.28,-137.76,-263.61,340.45
600,1747592042230,-0.13,-1.51,-1.28,-137.76,-263.61,340.45
601,1747592042240,-0.13,-1.51,-1.28,-137.76,-263.61,340.45
602,1747592042250,0.04,-1.6,-1.3,-107.97,-267.15,312.32
603,1747592042260,0.04,-1.6,-1.3,-107.97,-267.15,312.32
604,1747592042270,0.04,-1.6,-1.3,-107.97,-267.15,312.32
605,1747592042280,-0.015,-1.685,-1.33,-107.97,-267.15,312.32
606,1747592042290,-0.07,-1.77,-1.36,-98.94,-278.56,331.97
607,1747592042300,-0.07,-1.77,-1.36,-98.94,-278.56,331.97
608,1747592042310,-0.07,-1.77,-1.36,-98.94,-278.56,331.97
609,1747592042320,0.015,-1.745,-1.31,-100.435,-270.78,346.1
610,1747592042330,0.1,-1.72,-1.26,-101.93,-263.0,360.23
611,1747592042340,0.1,-1.72,-1.26,-101.93,-263.0,360.23
612,1747592042350,0.1,-1.72,-1.26,-101.93,-263.0,360.23
613,1747592042360,0.07,-1.605,-1.165,-82.0,-266.265,343.565
614,1747592042370,0.04,-1.49,-1.07,-62.07,-269.53,326.9
615,1747592042380,0.04,-1.49,-1.07,-62.07,-269.53,326.9
616,1747592042390,0.04,-1.49,-1.07,-62.07,-269.53,326.9
617,1747592042400,0.55,-0.97,-0.56,-62.07,-269.53,326.9
618,1747592042410,0.55,-0.97,-0.56,-40.47,-325.56,300.72
619,1747592042420,0.55,-0.97,-0.56,-40.47,-325.56,300.72
620,1747592042430,0.55,-0.97,-0.56,-40.47,-325.56,300.72
621,1747592042440,2.11,0.17,0.6,-40.47,-325.56,300.72
622,1747592042450,2.11,0.17,0.6,-3.97,-343.75,242.43
623,1747592042460,2.11,0.17,0.6,-3.97,-343.75,242.43
624,1747592042470,2.11,0.17,0.6,-3.97,-343.75,242.43
625,1747592042480,3.285,0.385,0.235,-2.9000000000000004,-173.035,211.305
626,1747592042490,4.46,0.6,-0.13,-1.83,-2.32,180.18
627,1747592042500,4.46,0.6,-0.13,-1.83,-2.32,180.18
628,1747592042510,4.46,0.6,-0.13,-1.83,-2.32,180.18
629,1747592042520,4.72,1.14,0.92,-85.39,60.545,52.830000000000005
630,1747592042530,4.72,1.14,0.92,-168.95,123.41,-74.52
631,1747592042540,4.72,1.14,0.92,-168.95,123.41,-74.52
632,1747592042550,4.72,1.14,0.92,-168.95,123.41,-74.52
633,1747592042560,2.73,-0.08,0.41,-107.18,250.98,-235.41
634,1747592042570,2.73,-0.08,0.41,-107.18,250.98,-235.41
635,1747592042580,2.73,-0.08,0.41,-107.18,250.98,-235.41
636,1747592042590,2.73,-0.08,0.41,-107.18,250.98,-235.41
637,1747592042600,1.55,-1.02,-0.4,-60.79,434.88,-320.8
638,1747592042610,1.55,-1.02,-0.4,-60.79,434.88,-320.8
639,1747592042620,1.55,-1.02,-0.4,-60.79,434.88,-320.8
640,1747592042630,1.55,-1.02,-0.4,-60.79,434.88,-320.8
641,1747592042640,0.3,-2.19,-1.45,121.28,493.59,-377.99
642,1747592042650,0.3,-2.19,-1.45,121.28,493.59,-377.99
643,1747592042660,0.3,-2.19,-1.45,121.28,493.59,-377.99
644,1747592042670,0.0799999999999999,-2.17,-1.765,135.99,416.535,-366.21
645,1747592042680,-0.14,-2.15,-2.08,150.7,339.48,-354.43
646,1747592042690,-0.14,-2.15,-2.08,150.7,339.48,-354.43
647,1747592042700,-0.14,-2.15,-2.08,150.7,339.48,-354.43
648,1747592042710,-0.2,-1.88,-1.77,134.58,218.44,-357.06
649,1747592042720,-0.2,-1.88,-1.77,134.58,218.44,-357.06
650,1747592042730,-0.2,-1.88,-1.77,134.58,218.44,-357.06
651,1747592042740,-0.2,-1.88,-1.77,134.58,218.44,-357.06
652,1747592042750,-0.19,-1.83,-1.715,101.805,216.765,-357.18
653,1747592042760,-0.18,-1.78,-1.66,69.03,215.09,-357.3
654,1747592042770,-0.18,-1.78,-1.66,69.03,215.09,-357.3
655,1747592042780,-0.46,-1.64,-1.53,21.12,346.62,-277.16
656,1747592042790,-0.46,-1.64,-1.53,21.12,346.62,-277.16
657,1747592042800,-0.46,-1.64,-1.53,21.12,346.62,-277.16
658,1747592042810,-0.46,-1.64,-1.53,21.12,346.62,-277.16
659,1747592042820,-0.44,-1.55,-1.6,103.09,392.33,-192.75
660,1747592042830,-0.44,-1.55,-1.6,103.09,392.33,-192.75
661,1747592042840,-0.44,-1.55,-1.6,103.09,392.33,-192.75
662,1747592042850,-0.775,-1.505,-1.955,103.09,392.33,-192.75
663,1747592042860,-1.11,-1.46,-2.31,122.07,279.11,-177.12
664,1747592042870,-1.11,-1.46,-2.31,122.07,279.11,-177.12
665,1747592042880,-1.11,-1.46,-2.31,122.07,279.11,-177.12
666,1747592042890,-1.11,-1.46,-2.31,122.07,279.11,-177.12
667,1747592042900,-3.22,-1.46,-2.14,31.68,266.05,-143.49
668,1747592042910,-3.22,-1.46,-2.14,31.68,266.05,-143.49
669,1747592042920,-3.22,-1.46,-2.14,31.68,266.05,-143.49
670,1747592042930,-3.505,-1.405,-2.68,81.545,290.19,-65.765
671,1747592042940,-3.79,-1.35,-3.22,131.41,314.33,11.96
672,1747592042950,-3.79,-1.35,-3.22,131.41,314.33,11.96
673,1747592042960,-3.79,-1.35,-3.22,131.41,314.33,11.96
674,1747592042970,-3.79,-1.35,-3.22,131.41,314.33,11.96
675,1747592042980,-4.68,-2.43,-4.68,-16.72,-53.83,7.02
676,1747592042990,,,,,,
677,1747592043000,-4.68,-2.43,-4.68,-16.72,-53.83,7.02
678,1747592043010,-2.3,-1.91,-3.12,-16.72,-53.83,7.02
679,1747592043020,-2.3,-1.91,-3.12,-101.14,-289.61,160.46
680,1747592043030,-2.3,-1.91,-3.12,-101.14,-289.61,160.46
681,1747592043040,-2.3,-1.91,-3.12,-101.14,-289.61,160.46
682,1747592043050,-1.86,-1.65,-2.44,-119.265,-268.25,177.125
683,1747592043060,-1.42,-1.39,-1.76,-137.39,-246.89,193.79
684,1747592043070,-1.42,-1.39,-1.76,-137.39,-246.89,193.79
685,1747592043080,-1.42,-1.39,-1.76,-137.39,-246.89,193.79
686,1747592043090,-0.87,-1.34,-1.41,-100.28,-332.09,251.95
687,1747592043100,-0.87,-1.34,-1.41,-100.28,-332.09,251.95
688,1747592043110,-0.87,-1.34,-1.41,-100.28,-332.09,251.95
689,1747592043120,-0.87,-1.34,-1.41,-100.28,-332.09,251.95
690,1747592043130,-0.1,-1.51,-1.37,-102.42,-287.35,338.75
691,1747592043140,-0.1,-1.51,-1.37,-102.42,-287.35,338.75
692,1747592043150,-0.1,-1.51,-1.37,-102.42,-287.35,338.75
693,1747592043160,-0.1,-1.51,-1.37,-102.42,-287.35,338.75
694,1747592043170,0.27,-1.58,-1.32,-107.94,-274.29,346.285
695,1747592043180,0.27,-1.58,-1.32,-113.46,-261.23,353.82
696,1747592043190,0.27,-1.58,-1.32,-113.46,-261.23,353.82
697,1747592043200,0.195,-1.685,-1.405,-113.46,-261.23,353.82
698,1747592043210,0.12,-1.79,-1.49,-84.47,-284.61,362.06
699,1747592043220,0.12,-1.79,-1.49,-84.47,-284.61,362.06
700,1747592043230,0.12,-1.79,-1.49,-84.47,-284.61,362.06
701,1747592043240,0.15,-1.79,-1.52,-95.06,-278.23,365.54
702,1747592043250,0.18,-1.79,-1.55,-105.65,-271.85,369.02
703,1747592043260,0.18,-1.79,-1.55,-105.65,-271.85,369.02
704,1747592043270,0.18,-1.79,-1.55,-105.65,-271.85,369.02
705,1747592043280,0.18,-1.79,-1.55,-105.65,-271.85,369.02
706,1747592043290,0.2,-1.65,-1.27,-111.51,-268.8,357.85
707,1747592043300,0.2,-1.65,-1.27,-111.51,-268.8,357.85
708,1747592043310,0.2,-1.65,-1.27,-111.51,-268.8,357.85
709,1747592043320,0.2,-1.65,-1.27,-111.51,-268.8,357.85
710,1747592043330,0.54,-1.19,-0.81,-86.91,-290.71,323.61
711,1747592043340,0.54,-1.19,-0.81,-86.91,-290.71,323.61
712,1747592043350,0.54,-1.19,-0.81,-86.91,-290.71,323.61
713,1747592043360,1.36,-0.575,0.0749999999999999,-86.91,-290.71,323.61
714,1747592043370,2.18,0.04,0.96,-70.5,-388.06,250.92
715,1747592043380,2.18,0.04,0.96,-70.5,-388.06,250.92
716,1747592043390,2.18,0.04,0.96,-70.5,-388.06,250.92
717,1747592043400,3.595,0.325,0.6799999999999999,9.185000000000002,-195.005,262.97
718,1747592043410,5.01,0.61,0.4,88.87,-1.95,275.02
719,1747592043420,5.01,0.61,0.4,88.87,-1.95,275.02
720,1747592043430,5.01,0.61,0.4,88.87,-1.95,275.02
721,1747592043440,4.84,1.06,1.01,-17.669999999999995,12.575,88.47
722,1747592043450,4.84,1.06,1.01,-124.21,27.1,-98.08
723,1747592043460,4.84,1.06,1.01,-124.21,27.1,-98.08
724,1747592043470,4.84,1.06,1.01,-124.21,27.1,-98.08
725,1747592043480,2.92,-0.08,0.57,-112.92,260.8,-245.36
726,1747592043490,2.92,-0.08,0.57,-112.92,260.8,-245.36
727,1747592043500,2.92,-0.08,0.57,-112.92,260.8,-245.36
728,1747592043510,2.92,-0.08,0.57,-112.92,260.8,-245.36
729,1747592043520,1.69,-1.07,-0.18,-48.65,413.76,-346.19
730,1747592043530,1.69,-1.07,-0.18,-48.65,413.76,-346.19
731,1747592043540,1.69,-1.07,-0.18,-48.65,413.76,-346.19
732,1747592043550,1.69,-1.07,-0.18,-48.65,413.76,-346.19
733,1747592043560,0.32,-2.3,-1.35,128.91,497.25,-392.94
734,1747592043570,0.32,-2.3,-1.35,128.91,497.25,-392.94
735,1747592043580,0.32,-2.3,-1.35,128.91,497.25,-392.94
736,1747592043590,-0.005,-2.375,-1.865,128.91,497.25,-392.94
737,1747592043600,-0.33,-2.45,-2.38,172.24,374.33,-385.68
738,1747592043610,-0.33,-2.45,-2.38,172.24,374.33,-385.68
739,1747592043620,-0.33,-2.45,-2.38,172.24,374.33,-385.68
740,1747592043630,-0.35,-2.25,-2.22,139.68,346.225,-370.3
741,1747592043640,-0.37,-2.05,-2.06,107.12,318.12,-354.92
742,1747592043650,-0.37,-2.05,-2.06,107.12,318.12,-354.92
743,1747592043660,-0.37,-2.05,-2.06,107.12,318.12,-354.92
744,1747592043670,-0.295,-1.88,-1.89,95.155,276.86,-352.845
745,1747592043680,-0.22,-1.71,-1.72,83.19,235.6,-350.77
746,1747592043690,-0.22,-1.71,-1.72,83.19,235.6,-350.77
747,1747592043700,-0.22,-1.71,-1.72,83.19,235.6,-350.77
748,1747592043710,-0.07,-1.5,-1.4,65.43,233.155,-338.105
749,1747592043720,-0.07,-1.5,-1.4,47.67,230.71,-325.44
750,1747592043730,-0.07,-1.5,-1.4,47.67,230.71,-325.44
751,1747592043740,-0.07,-1.5,-1.4,47.67,230.71,-325.44
752,1747592043750,-0.42,-1.53,-1.48,53.835,302.21500000000003,-274.63
753,1747592043760,-0.42,-1.53,-1.48,60.0,373.72,-223.82
754,1747592043770,-0.42,-1.53,-1.48,60.0,373.72,-223.82
755,1747592043780,-0.42,-1.53,-1.48,60.0,373.72,-223.82
756,1747592043790,-1.8,-1.11,-1.57,51.82,325.07,-159.67
757,1747592043800,-1.8,-1.11,-1.57,51.82,325.07,-159.67
758,1747592043810,-1.8,-1.11,-1.57,51.82,325.07,-159.67
759,1747592043820,-1.8,-1.11,-1.57,51.82,325.07,-159.67
760,1747592043830,-3.25,-1.74,-2.44,127.62,263.79,-120.0
761,1747592043840,-3.25,-1.74,-2.44,127.62,263.79,-120.0
762,1747592043850,-3.25,-1.74,-2.44,127.62,263.79,-120.0
763,1747592043860,-3.25,-1.74,-2.44,127.62,263.79,-120.0
764,1747592043870,-4.63,-2.24,-3.51,85.57,148.86,-93.38
765,1747592043880,-4.63,-2.24,-3.51,85.57,148.86,-93.38
766,1747592043890,-4.63,-2.24,-3.51,85.57,148.86,-93.38
767,1747592043900,-4.1,-2.68,-3.575,66.03999999999999,-20.05,12.910000000000004
768,1747592043910,-3.57,-3.12,-3.64,46.51,-188.96,119.2
769,1747592043920,-3.57,-3.12,-3.64,46.51,-188.96,119.2
770,1747592043930,-3.57,-3.12,-3.64,46.51,-188.96,119.2
771,1747592043940,-3.57,-3.12,-3.64,46.51,-188.96,119.2
772,1747592043950,-1.67,-1.97,-2.58,-119.26,-42.91,247.92
773,1747592043960,-1.67,-1.97,-2.58,-119.26,-42.91,247.92
774,1747592043970,-1.67,-1.97,-2.58,-119.26,-42.91,247.92
775,1747592043980,-1.67,-1.97,-2.58,-119.26,-42.91,247.92
776,1747592043990,-1.17,-1.29,-1.9,-118.96,-188.05,216.67
777,1747592044000,-1.17,-1.29,-1.9,-118.96,-188.05,216.67
778,1747592044010,-1.17,-1.29,-1.9,-118.96,-188.05,216.67
779,1747592044020,-0.945,-1.28,-1.755,-121.675,-238.8,235.805
780,1747592044030,-0.72,-1.27,-1.61,-124.39,-289.55,254.94
781,1747592044040,-0.72,-1.27,-1.61,-124.39,-289.55,254.94
782,1747592044050,-0.72,-1.27,-1.61,-124.39,-289.55,254.94
783,1747592044060,-0.355,-1.345,-1.44,-128.63,-311.005,287.93
784,1747592044070,0.01,-1.42,-1.27,-132.87,-332.46,320.92
785,1747592044080,0.01,-1.42,-1.27,-132.87,-332.46,320.92
786,1747592044090,0.01,-1.42,-1.27,-132.87,-332.46,320.92
787,1747592044100,0.01,-1.42,-1.27,-132.87,-332.46,320.92
788,1747592044110,0.38,-1.57,-1.32,-128.36,-310.85,332.34
789,1747592044120,0.38,-1.57,-1.32,-128.36,-310.85,332.34
790,1747592044130,0.38,-1.57,-1.32,-128.36,-310.85,332.34
791,1747592044140,0.28,-1.63,-1.32,-125.185,-301.36,344.05499999999995
792,1747592044150,0.28,-1.63,-1.32,-122.01,-291.87,355.77
793,1747592044160,0.28,-1.63,-1.32,-122.01,-291.87,355.77
794,1747592044170,0.28,-1.63,-1.32,-122.01,-291.87,355.77
795,1747592044180,0.3,-1.565,-1.34,-118.865,-275.91,363.495
796,1747592044190,0.32,-1.5,-1.36,-115.72,-259.95,371.22
797,1747592044200,0.32,-1.5,-1.36,-115.72,-259.95,371.22
798,1747592044210,0.34,-1.4,-1.28,-122.07,-268.55,351.62
799,1747592044220,0.34,-1.4,-1.28,-122.07,-268.55,351.62
800,1747592044230,0.34,-1.4,-1.28,-122.07,-268.55,351.62
801,1747592044240,0.34,-1.4,-1.28,-122.07,-268.55,351.62
802,1747592044250,0.48,-1.03,-0.81,-107.85,-297.73,328.61
803,1747592044260,0.48,-1.03,-0.81,-107.85,-297.73,328.61
804,1747592044270,0.48,-1.03,-0.81,-107.85,-297.73,328.61
805,1747592044280,1.055,-0.7050000000000001,-0.2,-77.09,-330.9,288.695
806,1747592044290,1.63,-0.38,0.41,-46.33,-364.07,248.78
807,1747592044300,1.63,-0.38,0.41,-46.33,-364.07,248.78
808,1747592044310,1.63,-0.38,0.41,-46.33,-364.07,248.78
809,1747592044320,1.63,-0.38,0.41,-46.33,-364.07,248.78
810,1747592044330,3.57,0.5,0.46,17.46,-194.27,210.69
811,1747592044340,3.57,0.5,0.46,17.46,-194.27,210.69
812,1747592044350,3.57,0.5,0.46,17.46,-194.27,210.69
813,1747592044360,4.085,0.76,0.685,-96.405,-43.82000000000001,102.72
814,1747592044370,4.6,1.02,0.91,-210.27,106.63,-5.25
815,1747592044380,4.6,1.02,0.91,-210.27,106.63,-5.25
816,1747592044390,4.6,1.02,0.91,-210.27,106.63,-5.25
817,1747592044400,3.22,0.11,1.18,-178.65,148.195,-110.93
818,1747592044410,3.22,0.11,1.18,-147.03,189.76,-216.61
819,1747592044420,3.22,0.11,1.18,-147.03,189.76,-216.61
820,1747592044430,3.22,0.11,1.18,-147.03,189.76,-216.61
821,1747592044440,2.04,-0.74,0.14,-57.31,392.82,-306.95
822,1747592044450,2.04,-0.74,0.14,-57.31,392.82,-306.95
823,1747592044460,2.04,-0.74,0.14,-57.31,392.82,-306.95
824,1747592044470,2.04,-0.74,0.14,-57.31,392.82,-306.95
825,1747592044480,1.05,-1.87,-0.92,11.229999999999997,478.39,-338.26
826,1747592044490,1.05,-1.87,-0.92,79.77,563.96,-369.57
827,1747592044500,1.05,-1.87,-0.92,79.77,563.96,-369.57
828,1747592044510,1.05,-1.87,-0.92,79.77,563.96,-369.57
829,1747592044520,0.44,-2.76,-2.3,238.77,498.66,-359.8
830,1747592044530,0.44,-2.76,-2.3,238.77,498.66,-359.8
831,1747592044540,0.44,-2.76,-2.3,238.77,498.66,-359.8
832,1747592044550,0.03,-2.71,-2.545,228.27,416.56500000000005,-375.245
833,1747592044560,-0.38,-2.66,-2.79,217.77,334.47,-390.69
834,1747592044570,-0.38,-2.66,-2.79,217.77,334.47,-390.69
835,1747592044580,-0.38,-2.66,-2.79,217.77,334.47,-390.69
836,1747592044590,-0.48,-2.415,-2.59,167.63,317.105,-371.86
837,1747592044600,-0.58,-2.17,-2.39,117.49,299.74,-353.03
838,1747592044610,-0.58,-2.17,-2.39,117.49,299.74,-353.03
839,1747592044620,-0.58,-2.17,-2.39,117.49,299.74,-353.03
840,1747592044630,-0.61,-1.54,-1.92,70.5,276.18,-276.12
841,1747592044640,-0.61,-1.54,-1.92,70.5,276.18,-276.12
842,1747592044650,-0.61,-1.54,-1.92,70.5,276.18,-276.12
843,1747592044660,-0.61,-1.54,-1.92,70.5,276.18,-276.12
844,1747592044670,-1.08,-0.99,-1.6,29.97,333.98,-174.44
845,1747592044680,-1.08,-0.99,-1.6,29.97,333.98,-174.44
846,1747592044690,-1.08,-0.99,-1.6,29.97,333.98,-174.44
847,1747592044700,-1.08,-0.99,-1.6,29.97,333.98,-174.44
848,1747592044710,-1.51,-0.575,-1.375,28.14,290.1,-124.82
849,1747592044720,-1.94,-0.16,-1.15,26.31,246.22,-75.2
850,1747592044730,-1.94,-0.16,-1.15,26.31,246.22,-75.2
851,1747592044740,-1.94,-0.16,-1.15,26.31,246.22,-75.2
852,1747592044750,-2.51,-0.78,-1.93,23.5,260.35,-51.335
853,1747592044760,-2.51,-0.78,-1.93,20.69,274.48,-27.47
854,1747592044770,-2.51,-0.78,-1.93,20.69,274.48,-27.47
855,1747592044780,-2.51,-0.78,-1.93,20.69,274.48,-27.47
856,1747592044790,-4.05,-1.73,-2.67,109.44,49.74,-109.68
857,1747592044800,-4.05,-1.73,-2.67,109.44,49.74,-109.68
858,1747592044810,-4.05,-1.73,-2.67,109.44,49.74,-109.68
859,1747592044820,-4.05,-1.73,-2.67,109.44,49.74,-109.68
860,1747592044830,-3.4,-2.49,-3.8,72.75,-126.04,87.34
861,1747592044840,-3.4,-2.49,-3.8,72.75,-126.04,87.34
862,1747592044850,-3.4,-2.49,-3.8,72.75,-126.04,87.34
863,1747592044860,-3.4,-2.49,-3.8,72.75,-126.04,87.34
864,1747592044870,-1.72,-1.85,-2.92,-113.53,-40.22,184.57
865,1747592044880,-1.72,-1.85,-2.92,-113.53,-40.22,184.57
866,1747592044890,-1.72,-1.85,-2.92,-113.53,-40.22,184.57
867,1747592044900,-1.48,-1.5,-2.48,-112.155,-142.26999999999998,156.005
868,1747592044910,-1.24,-1.15,-2.04,-110.78,-244.32,127.44
869,1747592044920,-1.24,-1.15,-2.04,-110.78,-244.32,127.44
870,1747592044930,-1.24,-1.15,-2.04,-110.78,-244.32,127.44
871,1747592044940,-1.11,-1.045,-1.7000000000000002,-102.51,-274.015,127.715
872,1747592044950,-0.98,-0.94,-1.36,-94.24,-303.71,127.99
873,1747592044960,-0.98,-0.94,-1.36,-94.24,-303.71,127.99
874,1747592044970,-0.98,-0.94,-1.36,-94.24,-303.71,127.99
875,1747592044980,-0.5,-1.19,-1.31,-102.54,-333.37,260.56
876,1747592044990,-0.5,-1.19,-1.31,-102.54,-333.37,260.56
877,1747592045000,-0.5,-1.19,-1.31,-102.54,-333.37,260.56
878,1747592045010,-0.5,-1.19,-1.31,-102.54,-333.37,260.56
879,1747592045020,-0.125,-1.295,-1.27,-126.955,-313.29,288.725
880,1747592045030,0.25,-1.4,-1.23,-151.37,-293.21,316.89
881,1747592045040,0.25,-1.4,-1.23,-151.37,-293.21,316.89
882,1747592045050,0.25,-1.4,-1.23,-151.37,-293.21,316.89
883,1747592045060,0.25,-1.59,-1.23,-140.38,-251.59,317.57
884,1747592045070,0.25,-1.59,-1.23,-140.38,-251.59,317.57
885,1747592045080,0.25,-1.59,-1.23,-140.38,-251.59,317.57
886,1747592045090,0.25,-1.59,-1.23,-140.38,-251.59,317.57
887,1747592045100,0.25,-1.6,-1.36,-145.265,-261.295,331.08500000000004
888,1747592045110,0.25,-1.6,-1.36,-150.15,-271.0,344.6
889,1747592045120,0.25,-1.6,-1.36,-150.15,-271.0,344.6
890,1747592045130,0.25,-1.6,-1.36,-150.15,-271.0,344.6
891,1747592045140,0.22,-1.62,-1.1,-86.91,-327.76,334.59
892,1747592045150,0.22,-1.62,-1.1,-86.91,-327.76,334.59
893,1747592045160,0.22,-1.62,-1.1,-86.91,-327.76,334.59
894,1747592045170,0.22,-1.62,-1.1,-86.91,-327.76,334.59
895,1747592045180,0.12,-1.41,-0.84,-14.1,-358.7,345.83
896,1747592045190,0.12,-1.41,-0.84,-14.1,-358.7,345.83
897,1747592045200,0.12,-1.41,-0.84,-14.1,-358.7,345.83
898,1747592045210,0.12,-1.41,-0.84,-14.1,-358.7,345.83
899,1747592045220,1.37,-1.03,0.32,10.56,-342.77,334.53
900,1747592045230,1.37,-1.03,0.32,10.56,-342.77,334.53
901,1747592045240,1.37,-1.03,0.32,10.56,-342.77,334.53
902,1747592045250,1.37,-1.03,0.32,10.56,-342.77,334.53
903,1747592045260,3.48,0.1,1.12,136.72,-165.53,363.4
904,1747592045270,3.48,0.1,1.12,136.72,-165.53,363.4
905,1747592045280,3.48,0.1,1.12,136.72,-165.53,363.4
906,1747592045290,4.295,0.66,1.04,68.91,-47.79,247.985
907,1747592045300,5.11,1.22,0.96,1.1,69.95,132.57
908,1747592045310,5.11,1.22,0.96,1.1,69.95,132.57
909,1747592045320,5.11,1.22,0.96,1.1,69.95,132.57
910,1747592045330,4.655,0.895,1.15,6.319999999999999,125.46,-49.83500000000001
911,1747592045340,4.2,0.57,1.34,11.54,180.97,-232.24
912,1747592045350,4.2,0.57,1.34,11.54,180.97,-232.24
913,1747592045360,4.2,0.57,1.34,11.54,180.97,-232.24
914,1747592045370,2.77,-0.89,0.21,60.61,337.1,-461.3
915,1747592045380,2.77,-0.89,0.21,60.61,337.1,-461.3
916,1747592045390,2.77,-0.89,0.21,60.61,337.1,-461.3
917,1747592045400,2.77,-0.89,0.21,60.61,337.1,-461.3
918,1747592045410,0.75,-2.74,-1.32,179.2,463.99,-496.28
919,1747592045420,0.75,-2.74,-1.32,179.2,463.99,-496.28
920,1747592045430,0.415,-2.845,-1.91,179.2,463.99,-496.28
921,1747592045440,0.08,-2.95,-2.5,233.15,339.6,-488.89
922,1747592045450,0.08,-2.95,-2.5,233.15,339.6,-488.89
923,1747592045460,0.08,-2.95,-2.5,233.15,339.6,-488.89
924,1747592045470,0.08,-2.95,-2.5,233.15,339.6,-488.89
925,1747592045480,-0.56,-2.68,-2.46,96.19,217.1,-498.41
926,1747592045490,-0.56,-2.68,-2.46,96.19,217.1,-498.41
927,1747592045500,-0.56,-2.68,-2.46,96.19,217.1,-498.41
928,1747592045510,-0.355,-2.3200000000000003,-2.11,96.19,217.1,-498.41
929,1747592045520,-0.15,-1.96,-1.76,21.91,134.7,-444.58
930,1747592045530,-0.15,-1.96,-1.76,21.91,134.7,-444.58
931,1747592045540,-0.15,-1.96,-1.76,21.91,134.7,-444.58
932,1747592045550,-0.1,-1.825,-1.51,3.295,141.415,-441.835
933,1747592045560,-0.05,-1.69,-1.26,-15.32,148.13,-439.09
934,1747592045570,-0.05,-1.69,-1.26,-15.32,148.13,-439.09
935,1747592045580,-0.05,-1.69,-1.26,-15.32,148.13,-439.09
936,1747592045590,-0.22,-1.625,-1.185,-3.695,191.65,-373.84
937,1747592045600,-0.39,-1.56,-1.11,7.93,235.17,-308.59
938,1747592045610,-0.39,-1.56,-1.11,7.93,235.17,-308.59
939,1747592045620,-0.39,-1.56,-1.11,7.93,235.17,-308.59
940,1747592045630,-0.5800000000000001,-1.5550000000000002,-1.3,19.195,273.805,-263.825
941,1747592045640,-0.77,-1.55,-1.49,30.46,312.44,-219.06
942,1747592045650,-0.77,-1.55,-1.49,30.46,312.44,-219.06
943,1747592045660,-0.77,-1.55,-1.49,30.46,312.44,-219.06
944,1747592045670,-1.68,-1.49,-1.77,-45.72,325.26,-121.77
945,1747592045680,-1.68,-1.49,-1.77,-45.72,325.26,-121.77
946,1747592045690,-1.68,-1.49,-1.77,-45.72,325.26,-121.77
947,1747592045700,-1.68,-1.49,-1.77,-45.72,325.26,-121.77
948,1747592045710,-2.315,-1.665,-1.755,-16.634999999999998,340.76,-96.315
949,1747592045720,-2.95,-1.84,-1.74,12.45,356.26,-70.86
950,1747592045730,-2.95,-1.84,-1.74,12.45,356.26,-70.86
951,1747592045740,-2.95,-1.84,-1.74,12.45,356.26,-70.86
952,1747592045750,-4.45,-3.73,-4.43,43.58,116.52,-126.71
953,1747592045760,-4.45,-3.73,-4.43,43.58,116.52,-126.71
954,1747592045770,-4.45,-3.73,-4.43,43.58,116.52,-126.71
955,1747592045780,-4.45,-3.73,-4.43,43.58,116.52,-126.71
956,1747592045790,-2.74,-3.42,-3.37,-12.88,-228.21,129.21
957,1747592045800,-2.74,-3.42,-3.37,-12.88,-228.21,129.21
958,1747592045810,-2.74,-3.42,-3.37,-12.88,-228.21,129.21
959,1747592045820,-1.9250000000000005,-2.695,-2.97,-66.62,-157.655,204.28500000000005
960,1747592045830,-1.11,-1.97,-2.57,-120.36,-87.1,279.36
961,1747592045840,-1.11,-1.97,-2.57,-120.36,-87.1,279.36
962,1747592045850,-1.11,-1.97,-2.57,-120.36,-87.1,279.36
963,1747592045860,-0.63,-1.31,-1.61,-120.36,-87.1,279.36
964,1747592045870,-0.63,-1.31,-1.61,-122.01,-209.78,238.71
965,1747592045880,-0.63,-1.31,-1.61,-122.01,-209.78,238.71
966,1747592045890,-0.63,-1.31,-1.61,-122.01,-209.78,238.71
967,1747592045900,-0.48,-1.24,-1.48,-88.595,-282.29,249.36
968,1747592045910,-0.33,-1.17,-1.35,-55.18,-354.8,260.01
969,1747592045920,-0.33,-1.17,-1.35,-55.18,-354.8,260.01
970,1747592045930,-0.33,-1.17,-1.35,-55.18,-354.8,260.01
971,1747592045940,0.0099999999999999,-1.265,-1.36,-64.335,-344.025,294.435
972,1747592045950,0.35,-1.36,-1.37,-73.49,-333.25,328.86
973,1747592045960,0.35,-1.36,-1.37,-73.49,-333.25,328.86
974,1747592045970,0.35,-1.36,-1.37,-73.49,-333.25,328.86
975,1747592045980,0.41,-1.4,-1.41,-110.29,-280.58,324.77
976,1747592045990,0.41,-1.4,-1.41,-110.29,-280.58,324.77
977,1747592046000,0.41,-1.4,-1.41,-110.29,-280.58,324.77
978,1747592046010,0.41,-1.4,-1.41,-110.29,-280.58,324.77
979,1747592046020,0.405,-1.44,-1.4049999999999998,-101.165,-295.015,333.955
980,1747592046030,0.4,-1.48,-1.4,-92.04,-309.45,343.14
981,1747592046040,0.4,-1.48,-1.4,-92.04,-309.45,343.14
982,1747592046050,0.4,-1.48,-1.4,-92.04,-309.45,343.14
983,1747592046060,0.44,-1.47,-1.42,-57.43,-307.31,351.99
984,1747592046070,0.44,-1.47,-1.42,-57.43,-307.31,351.99
985,1747592046080,0.44,-1.47,-1.42,-57.43,-307.31,351.99
986,1747592046090,0.395,-1.38,-1.39,-57.43,-307.31,351.99
987,1747592046100,0.35,-1.29,-1.36,-52.67,-287.78,338.75
988,1747592046110,0.35,-1.29,-1.36,-52.67,-287.78,338.75
989,1747592046120,0.35,-1.29,-1.36,-52.67,-287.78,338.75
990,1747592046130,0.35,-1.29,-1.36,-52.67,-287.78,338.75
991,1747592046140,0.57,-0.92,-0.82,-86.12,-247.38,316.1
992,1747592046150,0.57,-0.92,-0.82,-86.12,-247.38,316.1
993,1747592046160,0.57,-0.92,-0.82,-86.12,-247.38,316.1
994,1747592046170,0.57,-0.92,-0.82,-86.12,-247.38,316.1
995,1747592046180,1.69,0.17,0.9,-65.55,-347.96,280.94
996,1747592046190,1.69,0.17,0.9,-65.55,-347.96,280.94
997,1747592046200,1.69,0.17,0.9,-65.55,-347.96,280.94
998,1747592046210,1.69,0.17,0.9,-65.55,-347.96,280.94
999,1747592046220,4.37,1.01,0.59,81.73,-118.29,220.7
