id,timestamp,acc_x,acc_y,acc_z,gyro_x,gyro_y,gyro_z
0,1747592167430,-0.34,-0.78,-0.45,-6.9,7.26,-9.58
1,1747592167440,-0.34,-0.78,-0.45,-6.9,7.26,-9.58
2,1747592167450,-0.33,-0.8,-0.39,3.23,34.91,6.16
3,1747592167460,-0.33,-0.8,-0.39,3.23,34.91,6.16
4,1747592167470,-0.33,-0.8,-0.39,3.23,34.91,6.16
5,1747592167480,-0.2,-0.71,-0.16,-1.0399999999999998,76.35499999999999,34.145
6,1747592167490,,,,,,
7,1747592167500,-0.2,-0.71,-0.16,-5.31,117.8,62.13
8,1747592167510,-0.2,-0.71,-0.16,-5.31,117.8,62.13
9,1747592167520,-0.06,-0.72,0.32,67.2,94.54,49.74
10,1747592167530,-0.06,-0.72,0.32,67.2,94.54,49.74
11,1747592167540,-0.06,-0.72,0.32,67.2,94.54,49.74
12,1747592167550,-0.23,-0.99,0.415,108.155,90.085,43.03
13,1747592167560,-0.4,-1.26,0.51,149.11,85.63,36.32
14,1747592167570,-0.4,-1.26,0.51,149.11,85.63,36.32
15,1747592167580,-0.4,-1.26,0.51,149.11,85.63,36.32
16,1747592167590,-0.83,-1.86,0.21,149.11,85.63,36.32
17,1747592167600,-0.83,-1.86,0.21,166.26,208.13,107.12
18,1747592167610,-0.83,-1.86,0.21,166.26,208.13,107.12
19,1747592167620,-0.83,-1.86,0.21,166.26,208.13,107.12
20,1747592167630,-1.615,-1.995,-0.105,175.17000000000002,184.115,120.27
21,1747592167640,-2.4,-2.13,-0.42,184.08,160.1,133.42
22,1747592167650,-2.4,-2.13,-0.42,184.08,160.1,133.42
23,1747592167660,-2.4,-2.13,-0.42,184.08,160.1,133.42
24,1747592167670,-3.02,-2.66,-1.15,187.81,-0.12,190.19
25,1747592167680,-3.02,-2.66,-1.15,187.81,-0.12,190.19
26,1747592167690,-3.02,-2.66,-1.15,187.81,-0.12,190.19
27,1747592167700,-3.02,-2.66,-1.15,187.81,-0.12,190.19
28,1747592167710,-2.25,-2.69,-1.45,149.41,-2.32,303.89
29,1747592167720,-2.25,-2.69,-1.45,149.41,-2.32,303.89
30,1747592167730,-2.25,-2.69,-1.45,149.41,-2.32,303.89
31,1747592167740,-2.25,-2.69,-1.45,149.41,-2.32,303.89
32,1747592167750,-1.9,-2.46,-1.65,153.63,-86.18,273.56
33,1747592167760,-1.9,-2.46,-1.65,153.63,-86.18,273.56
34,1747592167770,-1.9,-2.46,-1.65,153.63,-86.18,273.56
35,1747592167780,-1.9,-2.46,-1.65,153.63,-86.18,273.56
36,1747592167790,-1.3,-1.94,-1.29,58.04,-154.24,353.64
37,1747592167800,-1.3,-1.94,-1.29,58.04,-154.24,353.64
38,1747592167810,-1.3,-1.94,-1.29,58.04,-154.24,353.64
39,1747592167820,-1.3,-1.94,-1.29,58.04,-154.24,353.64
40,1747592167830,-0.7,-1.57,-1.14,88.81,-251.04,276.86
41,1747592167840,-0.7,-1.57,-1.14,88.81,-251.04,276.86
42,1747592167850,-0.7,-1.57,-1.14,88.81,-251.04,276.86
43,1747592167860,-0.51,-1.825,-1.075,51.575,-259.675,313.725
44,1747592167870,-0.32,-2.08,-1.01,14.34,-268.31,350.59
45,1747592167880,-0.32,-2.08,-1.01,14.34,-268.31,350.59
46,1747592167890,-0.32,-2.08,-1.01,14.34,-268.31,350.59
47,1747592167900,0.2,-1.89,-0.8,65.98,-195.8,358.58
48,1747592167910,0.2,-1.89,-0.8,65.98,-195.8,358.58
49,1747592167920,0.2,-1.89,-0.8,65.98,-195.8,358.58
50,1747592167930,0.2,-1.89,-0.8,65.98,-195.8,358.58
51,1747592167940,0.0,-1.89,-1.1,47.55,-167.24,357.6
52,1747592167950,0.0,-1.89,-1.1,47.55,-167.24,357.6
53,1747592167960,0.0,-1.89,-1.1,47.55,-167.24,357.6
54,1747592167970,0.0,-1.89,-1.1,47.55,-167.24,357.6
55,1747592167980,0.4,-1.8,-0.69,49.74,-120.3,386.41
56,1747592167990,0.4,-1.8,-0.69,49.74,-120.3,386.41
57,1747592168000,0.4,-1.8,-0.69,49.74,-120.3,386.41
58,1747592168010,0.4,-1.8,-0.69,49.74,-120.3,386.41
59,1747592168020,0.64,-1.17,-0.44,89.29,-133.67,325.99
60,1747592168030,0.64,-1.17,-0.44,89.29,-133.67,325.99
61,1747592168040,0.64,-1.17,-0.44,89.29,-133.67,325.99
62,1747592168050,0.64,-1.17,-0.44,89.29,-133.67,325.99
63,1747592168060,2.18,0.42,0.89,-54.44,81.36,302.43
64,1747592168070,2.18,0.42,0.89,-54.44,81.36,302.43
65,1747592168080,2.18,0.42,0.89,-54.44,81.36,302.43
66,1747592168090,2.18,0.42,0.89,-54.44,81.36,302.43
67,1747592168100,3.74,1.29,1.53,99.79,-79.96,95.15
68,1747592168110,3.74,1.29,1.53,99.79,-79.96,95.15
69,1747592168120,3.74,1.29,1.53,99.79,-79.96,95.15
70,1747592168130,3.74,1.29,1.53,99.79,-79.96,95.15
71,1747592168140,3.55,1.67,0.37,-51.76,185.67,32.65
72,1747592168150,3.55,1.67,0.37,-51.76,185.67,32.65
73,1747592168160,3.55,1.67,0.37,-51.76,185.67,32.65
74,1747592168170,3.135,1.225,0.5549999999999999,-78.28,154.08499999999998,-70.59
75,1747592168180,2.72,0.78,0.74,-104.8,122.5,-173.83
76,1747592168190,2.72,0.78,0.74,-104.8,122.5,-173.83
77,1747592168200,2.72,0.78,0.74,-104.8,122.5,-173.83
78,1747592168210,1.45,-0.64,-0.18,-27.89,174.62,-255.07
79,1747592168220,1.45,-0.64,-0.18,-27.89,174.62,-255.07
80,1747592168230,1.45,-0.64,-0.18,-27.89,174.62,-255.07
81,1747592168240,1.45,-0.64,-0.18,-27.89,174.62,-255.07
82,1747592168250,0.48,-1.46,-1.15,18.74,191.47,-346.92
83,1747592168260,0.48,-1.46,-1.15,18.74,191.47,-346.92
84,1747592168270,0.48,-1.46,-1.15,18.74,191.47,-346.92
85,1747592168280,0.48,-1.46,-1.15,18.74,191.47,-346.92
86,1747592168290,-0.43,-1.71,-1.65,18.74,191.47,-346.92
87,1747592168300,-0.43,-1.71,-1.65,10.5,184.45,-331.36
88,1747592168310,-0.43,-1.71,-1.65,10.5,184.45,-331.36
89,1747592168320,-0.43,-1.71,-1.65,10.5,184.45,-331.36
90,1747592168330,-0.42,-1.52,-1.56,-49.68,196.41,-285.34
91,1747592168340,-0.42,-1.52,-1.56,-49.68,196.41,-285.34
92,1747592168350,-0.42,-1.52,-1.56,-49.68,196.41,-285.34
93,1747592168360,-0.42,-1.52,-1.56,-49.68,196.41,-285.34
94,1747592168370,-0.42,-1.52,-1.56,-49.68,196.41,-285.34
95,1747592168380,-0.24,-1.28,-1.17,-63.11,191.53,-275.09
96,1747592168390,-0.24,-1.28,-1.17,-63.11,191.53,-275.09
97,1747592168400,-0.24,-1.28,-1.17,-63.11,191.53,-275.09
98,1747592168410,-0.01,-1.12,-0.92,-50.6,222.9,-272.71
99,1747592168420,-0.01,-1.12,-0.92,-50.6,222.9,-272.71
100,1747592168430,-0.01,-1.12,-0.92,-50.6,222.9,-272.71
101,1747592168440,-0.01,-1.12,-0.92,-50.6,222.9,-272.71
102,1747592168450,-0.34,-1.54,-0.93,-0.92,346.62,-255.07
103,1747592168460,-0.34,-1.54,-0.93,-0.92,346.62,-255.07
104,1747592168470,-0.34,-1.54,-0.93,-0.92,346.62,-255.07
105,1747592168480,-0.8,-2.04,-1.99,-0.92,346.62,-255.07
106,1747592168490,-0.8,-2.04,-1.99,146.67,365.97,-245.42
107,1747592168500,-0.8,-2.04,-1.99,146.67,365.97,-245.42
108,1747592168510,-0.8,-2.04,-1.99,146.67,365.97,-245.42
109,1747592168520,-0.8,-2.04,-1.99,146.67,365.97,-245.42
110,1747592168530,-3.9,-2.42,-2.34,53.16,368.47,-234.56
111,1747592168540,-3.9,-2.42,-2.34,53.16,368.47,-234.56
112,1747592168550,-3.9,-2.42,-2.34,53.16,368.47,-234.56
113,1747592168560,-5.29,-1.8,-2.11,58.17,273.01,-61.95
114,1747592168570,-5.29,-1.8,-2.11,58.17,273.01,-61.95
115,1747592168580,-5.29,-1.8,-2.11,58.17,273.01,-61.95
116,1747592168590,-5.29,-1.8,-2.11,58.17,273.01,-61.95
117,1747592168600,-5.29,-1.8,-2.11,58.17,273.01,-61.95
118,1747592168610,-6.22,-2.0,-1.9,22.89,-121.28,-51.76
119,1747592168620,-6.22,-2.0,-1.9,22.89,-121.28,-51.76
120,1747592168630,-4.6,-2.47,-1.41,23.01,-139.28,148.56
121,1747592168640,-4.6,-2.47,-1.41,23.01,-139.28,148.56
122,1747592168650,-4.6,-2.47,-1.41,23.01,-139.28,148.56
123,1747592168660,-4.6,-2.47,-1.41,23.01,-139.28,148.56
124,1747592168670,-2.4,-1.49,-1.56,-36.99,5.62,310.0
125,1747592168680,-2.4,-1.49,-1.56,-36.99,5.62,310.0
126,1747592168690,-2.4,-1.49,-1.56,-36.99,5.62,310.0
127,1747592168700,-2.4,-1.49,-1.56,-36.99,5.62,310.0
128,1747592168710,-2.4,-1.49,-1.56,-36.99,5.62,310.0
129,1747592168720,-2.4,-1.49,-1.56,-36.99,5.62,310.0
130,1747592168730,-1.33,-1.26,-1.36,-83.25,-202.27,296.2
131,1747592168740,-1.33,-1.26,-1.36,-83.25,-202.27,296.2
132,1747592168750,-0.59,-1.61,-1.16,-91.49,-273.56,329.96
133,1747592168760,-0.59,-1.61,-1.16,-91.49,-273.56,329.96
134,1747592168770,-0.59,-1.61,-1.16,-91.49,-273.56,329.96
135,1747592168780,-0.59,-1.61,-1.16,-91.49,-273.56,329.96
136,1747592168790,-0.06,-1.72,-1.28,-67.08,-214.29,350.22
137,1747592168800,-0.06,-1.72,-1.28,-67.08,-214.29,350.22
138,1747592168810,-0.06,-1.72,-1.28,-67.08,-214.29,350.22
139,1747592168820,-0.24,-1.86,-1.38,-67.08,-214.29,350.22
140,1747592168830,-0.24,-1.86,-1.38,-76.11,-257.69,320.86
141,1747592168840,-0.24,-1.86,-1.38,-76.11,-257.69,320.86
142,1747592168850,-0.24,-1.86,-1.38,-76.11,-257.69,320.86
143,1747592168860,-0.19,-1.98,-1.4,-41.87,-253.17,360.29
144,1747592168870,-0.19,-1.98,-1.4,-41.87,-253.17,360.29
145,1747592168880,-0.19,-1.98,-1.4,-41.87,-253.17,360.29
146,1747592168890,-0.19,-1.98,-1.4,-41.87,-253.17,360.29
147,1747592168900,-0.115,-1.875,-1.415,-44.77,-233.61,348.875
148,1747592168910,-0.04,-1.77,-1.43,-47.67,-214.05,337.46
149,1747592168920,-0.04,-1.77,-1.43,-47.67,-214.05,337.46
150,1747592168930,-0.04,-1.77,-1.43,-47.67,-214.05,337.46
151,1747592168940,0.11,-1.51,-1.12,-58.65,-205.87,329.22
152,1747592168950,0.11,-1.51,-1.12,-58.65,-205.87,329.22
153,1747592168960,0.11,-1.51,-1.12,-58.65,-205.87,329.22
154,1747592168970,0.11,-1.51,-1.12,-58.65,-205.87,329.22
155,1747592168980,1.5,-0.27,0.47,-124.21,-158.94,266.36
156,1747592168990,1.5,-0.27,0.47,-124.21,-158.94,266.36
157,1747592169000,1.5,-0.27,0.47,-124.21,-158.94,266.36
158,1747592169010,1.5,-0.27,0.47,-124.21,-158.94,266.36
159,1747592169020,3.67,0.96,1.73,102.66,-194.58,212.71
160,1747592169030,3.67,0.96,1.73,102.66,-194.58,212.71
161,1747592169040,,,,,,
162,1747592169050,4.395,1.405,1.455,48.795,-66.62,130.34
163,1747592169060,5.12,1.85,1.18,-5.07,61.34,47.97
164,1747592169070,5.12,1.85,1.18,-5.07,61.34,47.97
165,1747592169080,5.12,1.85,1.18,-5.07,61.34,47.97
166,1747592169090,4.115,1.15,0.97,-46.540000000000006,114.53,-85.97
167,1747592169100,,,,,,
168,1747592169110,3.11,0.45,0.76,-88.01,167.72,-219.91
169,1747592169120,3.11,0.45,0.76,-88.01,167.72,-219.91
170,1747592169130,1.44,-0.92,-0.15,-38.15,258.36,-263.55
171,1747592169140,1.44,-0.92,-0.15,-38.15,258.36,-263.55
172,1747592169150,1.44,-0.92,-0.15,-38.15,258.36,-263.55
173,1747592169160,1.44,-0.92,-0.15,-38.15,258.36,-263.55
174,1747592169170,0.37,-1.7,-0.92,59.75,234.99,-344.6
175,1747592169180,0.37,-1.7,-0.92,59.75,234.99,-344.6
176,1747592169190,0.37,-1.7,-0.92,59.75,234.99,-344.6
177,1747592169200,0.37,-1.7,-0.92,59.75,234.99,-344.6
178,1747592169210,-0.46,-1.79,-1.53,75.87,221.25,-337.28
179,1747592169220,-0.46,-1.79,-1.53,75.87,221.25,-337.28
180,1747592169230,-0.46,-1.79,-1.53,75.87,221.25,-337.28
181,1747592169240,-0.46,-1.79,-1.53,75.87,221.25,-337.28
182,1747592169250,-0.25,-1.51,-1.32,31.19,250.06,-291.63
183,1747592169260,-0.25,-1.51,-1.32,31.19,250.06,-291.63
184,1747592169270,-0.25,-1.51,-1.32,31.19,250.06,-291.63
185,1747592169280,-0.25,-1.51,-1.32,31.19,250.06,-291.63
186,1747592169290,-0.03,-1.34,-0.98,47.06,200.32,-288.51
187,1747592169300,-0.03,-1.34,-0.98,47.06,200.32,-288.51
188,1747592169310,-0.03,-1.34,-0.98,47.06,200.32,-288.51
189,1747592169320,-0.03,-1.34,-0.98,47.06,200.32,-288.51
190,1747592169330,-0.08,-1.33,-1.07,82.09,187.62,-295.1
191,1747592169340,-0.08,-1.33,-1.07,82.09,187.62,-295.1
192,1747592169350,-0.08,-1.33,-1.07,82.09,187.62,-295.1
193,1747592169360,-0.08,-1.33,-1.07,82.09,187.62,-295.1
194,1747592169370,-0.1,-1.49,-1.06,46.88,335.94,-304.08
195,1747592169380,-0.1,-1.49,-1.06,46.88,335.94,-304.08
196,1747592169390,-0.1,-1.49,-1.06,46.88,335.94,-304.08
197,1747592169400,-0.435,-1.775,-1.445,46.88,335.94,-304.08
198,1747592169410,-0.77,-2.06,-1.83,142.15,374.27,-228.7
199,1747592169420,-0.77,-2.06,-1.83,142.15,374.27,-228.7
200,1747592169430,-0.77,-2.06,-1.83,142.15,374.27,-228.7
201,1747592169440,-2.015,-2.19,-2.13,84.38,377.715,-238.955
202,1747592169450,-3.26,-2.32,-2.43,26.61,381.16,-249.21
203,1747592169460,-3.26,-2.32,-2.43,26.61,381.16,-249.21
204,1747592169470,-3.26,-2.32,-2.43,26.61,381.16,-249.21
205,1747592169480,-4.11,-1.67,-3.26,149.11,388.55,-2.01
206,1747592169490,-4.11,-1.67,-3.26,149.11,388.55,-2.01
207,1747592169500,-4.11,-1.67,-3.26,149.11,388.55,-2.01
208,1747592169510,-4.11,-1.67,-3.26,149.11,388.55,-2.01
209,1747592169520,-6.05,-2.14,-4.58,23.38,-87.4,-69.7
210,1747592169530,-6.05,-2.14,-4.58,23.38,-87.4,-69.7
211,1747592169540,-6.05,-2.14,-4.58,23.38,-87.4,-69.7
212,1747592169550,-4.615,-2.115,-3.885,-1.7700000000000014,-173.98000000000002,57.21999999999999
213,1747592169560,-3.18,-2.09,-3.19,-26.92,-260.56,184.14
214,1747592169570,-3.18,-2.09,-3.19,-26.92,-260.56,184.14
215,1747592169580,-3.18,-2.09,-3.19,-26.92,-260.56,184.14
216,1747592169590,-2.47,-1.61,-2.525,-75.745,-186.95,220.945
217,1747592169600,-1.76,-1.13,-1.86,-124.57,-113.34,257.75
218,1747592169610,-1.76,-1.13,-1.86,-124.57,-113.34,257.75
219,1747592169620,-1.76,-1.13,-1.86,-124.57,-113.34,257.75
220,1747592169630,-1.76,-1.13,-1.86,-124.57,-113.34,257.75
221,1747592169640,-1.13,-1.22,-1.56,-62.44,-351.99,257.63
222,1747592169650,-1.13,-1.22,-1.56,-62.44,-351.99,257.63
223,1747592169660,-1.13,-1.22,-1.56,-62.44,-351.99,257.63
224,1747592169670,-0.73,-1.47,-1.495,-60.365,-328.70500000000004,300.385
225,1747592169680,-0.33,-1.72,-1.43,-58.29,-305.42,343.14
226,1747592169690,-0.33,-1.72,-1.43,-58.29,-305.42,343.14
227,1747592169700,-0.33,-1.72,-1.43,-58.29,-305.42,343.14
228,1747592169710,-0.14,-1.77,-1.37,-68.545,-283.355,341.89
229,1747592169720,0.05,-1.82,-1.31,-78.8,-261.29,340.64
230,1747592169730,0.05,-1.82,-1.31,-78.8,-261.29,340.64
231,1747592169740,0.05,-1.82,-1.31,-78.8,-261.29,340.64
232,1747592169750,-0.01,-1.98,-1.36,-77.58,-263.24,372.86
233,1747592169760,-0.01,-1.98,-1.36,-77.58,-263.24,372.86
234,1747592169770,-0.01,-1.98,-1.36,-77.58,-263.24,372.86
235,1747592169780,-0.01,-1.98,-1.36,-77.58,-263.24,372.86
236,1747592169790,-0.06,-2.04,-1.32,-64.45,-236.76,394.65
237,1747592169800,-0.06,-2.04,-1.32,-64.45,-236.76,394.65
238,1747592169810,-0.06,-2.04,-1.32,-64.45,-236.76,394.65
239,1747592169820,0.0,-1.995,-1.3,-52.915000000000006,-247.96,396.3
240,1747592169830,0.06,-1.95,-1.28,-41.38,-259.16,397.95
241,1747592169840,0.06,-1.95,-1.28,-41.38,-259.16,397.95
242,1747592169850,0.06,-1.95,-1.28,-41.38,-259.16,397.95
243,1747592169860,0.22,-1.71,-1.14,-50.23,-235.47,360.78
244,1747592169870,0.22,-1.71,-1.14,-50.23,-235.47,360.78
245,1747592169880,0.22,-1.71,-1.14,-50.23,-235.47,360.78
246,1747592169890,0.22,-1.71,-1.14,-50.23,-235.47,360.78
247,1747592169900,1.18,-0.93,-0.1,-106.45,-184.94,309.94
248,1747592169910,1.18,-0.93,-0.1,-106.45,-184.94,309.94
249,1747592169920,1.18,-0.93,-0.1,-106.45,-184.94,309.94
250,1747592169930,2.345,0.0149999999999999,0.875,-38.09,-179.63,278.08
251,1747592169940,3.51,0.96,1.85,30.27,-174.32,246.22
252,1747592169950,3.51,0.96,1.85,30.27,-174.32,246.22
253,1747592169960,3.51,0.96,1.85,30.27,-174.32,246.22
254,1747592169970,4.73,1.54,0.57,30.27,-174.32,246.22
255,1747592169980,4.73,1.54,0.57,-31.62,74.95,73.61
256,1747592169990,4.73,1.54,0.57,-31.62,74.95,73.61
257,1747592170000,4.73,1.54,0.57,-31.62,74.95,73.61
258,1747592170010,3.73,0.99,1.18,-68.97,90.91,-58.53
259,1747592170020,3.73,0.99,1.18,-106.32,106.87,-190.67
260,1747592170030,3.73,0.99,1.18,-106.32,106.87,-190.67
261,1747592170040,3.73,0.99,1.18,-106.32,106.87,-190.67
262,1747592170050,2.915,0.365,0.6749999999999999,-101.04,180.295,-225.035
263,1747592170060,2.1,-0.26,0.17,-95.76,253.72,-259.4
264,1747592170070,2.1,-0.26,0.17,-95.76,253.72,-259.4
265,1747592170080,2.1,-0.26,0.17,-95.76,253.72,-259.4
266,1747592170090,1.11,-1.33,-0.55,-25.82,361.63,-305.18
267,1747592170100,1.11,-1.33,-0.55,-25.82,361.63,-305.18
268,1747592170110,1.11,-1.33,-0.55,-25.82,361.63,-305.18
269,1747592170120,1.11,-1.33,-0.55,-25.82,361.63,-305.18
270,1747592170130,0.18,-2.22,-1.71,148.62,374.82,-315.19
271,1747592170140,0.18,-2.22,-1.71,148.62,374.82,-315.19
272,1747592170150,0.18,-2.22,-1.71,148.62,374.82,-315.19
273,1747592170160,0.18,-2.22,-1.71,148.62,374.82,-315.19
274,1747592170170,-0.23,-2.06,-2.13,129.27,357.97,-307.56
275,1747592170180,-0.23,-2.06,-2.13,129.27,357.97,-307.56
276,1747592170190,-0.23,-2.06,-2.13,129.27,357.97,-307.56
277,1747592170200,-0.23,-2.06,-2.13,129.27,357.97,-307.56
278,1747592170210,-0.2,-1.6,-1.66,95.21,211.36,-305.91
279,1747592170220,-0.2,-1.6,-1.66,95.21,211.36,-305.91
280,1747592170230,-0.2,-1.6,-1.66,95.21,211.36,-305.91
281,1747592170240,0.04,-1.4,-1.18,66.65,160.83,-307.68
282,1747592170250,0.04,-1.4,-1.18,66.65,160.83,-307.68
283,1747592170260,0.04,-1.4,-1.18,66.65,160.83,-307.68
284,1747592170270,0.04,-1.4,-1.18,66.65,160.83,-307.68
285,1747592170280,-0.24,-1.66,-1.26,85.39,262.51,-300.84
286,1747592170290,-0.24,-1.66,-1.26,85.39,262.51,-300.84
287,1747592170300,-0.24,-1.66,-1.26,85.39,262.51,-300.84
288,1747592170310,-0.24,-1.66,-1.26,85.39,262.51,-300.84
289,1747592170320,-0.94,-1.76,-1.68,107.635,279.69,-279.48
290,1747592170330,-0.94,-1.76,-1.68,129.88,296.87,-258.12
291,1747592170340,-0.94,-1.76,-1.68,129.88,296.87,-258.12
292,1747592170350,-0.94,-1.76,-1.68,129.88,296.87,-258.12
293,1747592170360,-2.35,-1.63,-2.0,52.73,243.41,-207.58
294,1747592170370,-2.35,-1.63,-2.0,52.73,243.41,-207.58
295,1747592170380,-2.35,-1.63,-2.0,52.73,243.41,-207.58
296,1747592170390,-2.35,-1.63,-2.0,52.73,243.41,-207.58
297,1747592170400,-4.23,-0.72,-1.8,74.89,368.84,-65.06
298,1747592170410,-4.23,-0.72,-1.8,74.89,368.84,-65.06
299,1747592170420,-4.23,-0.72,-1.8,74.89,368.84,-65.06
300,1747592170430,-4.23,-0.72,-1.8,74.89,368.84,-65.06
301,1747592170440,-5.68,-1.88,-3.75,103.27,87.95,-128.6
302,1747592170450,-5.68,-1.88,-3.75,103.27,87.95,-128.6
303,1747592170460,-5.68,-1.88,-3.75,103.27,87.95,-128.6
304,1747592170470,-5.68,-1.88,-3.75,103.27,87.95,-128.6
305,1747592170480,-4.12,-2.82,-3.15,45.9,-284.55,175.23
306,1747592170490,-4.12,-2.82,-3.15,45.9,-284.55,175.23
307,1747592170500,-4.12,-2.82,-3.15,45.9,-284.55,175.23
308,1747592170510,-3.09,-2.26,-2.58,-14.985000000000005,-192.23,218.565
309,1747592170520,-2.06,-1.7,-2.01,-75.87,-99.91,261.9
310,1747592170530,-2.06,-1.7,-2.01,-75.87,-99.91,261.9
311,1747592170540,-2.06,-1.7,-2.01,-75.87,-99.91,261.9
312,1747592170550,-1.75,-1.47,-1.775,-64.03,-182.525,258.45
313,1747592170560,-1.44,-1.24,-1.54,-52.19,-265.14,255.0
314,1747592170570,-1.44,-1.24,-1.54,-52.19,-265.14,255.0
315,1747592170580,-1.44,-1.24,-1.54,-52.19,-265.14,255.0
316,1747592170590,-1.085,-1.325,-1.395,-76.02,-250.55,287.87
317,1747592170600,-0.73,-1.41,-1.25,-99.85,-235.96,320.74
318,1747592170610,-0.73,-1.41,-1.25,-99.85,-235.96,320.74
319,1747592170620,-0.73,-1.41,-1.25,-99.85,-235.96,320.74
320,1747592170630,-0.06,-1.55,-1.07,-99.85,-235.96,320.74
321,1747592170640,-0.06,-1.55,-1.07,-82.21,-223.39,328.06
322,1747592170650,-0.06,-1.55,-1.07,-82.21,-223.39,328.06
323,1747592170660,-0.06,-1.55,-1.07,-82.21,-223.39,328.06
324,1747592170670,-0.07,-1.69,-1.145,-89.35499999999999,-221.16,339.475
325,1747592170680,-0.08,-1.83,-1.22,-96.5,-218.93,350.89
326,1747592170690,-0.08,-1.83,-1.22,-96.5,-218.93,350.89
327,1747592170700,-0.08,-1.83,-1.22,-96.5,-218.93,350.89
328,1747592170710,-0.01,-1.98,-1.28,-96.775,-215.115,376.495
329,1747592170720,-0.01,-1.98,-1.28,-97.05,-211.3,402.1
330,1747592170730,-0.01,-1.98,-1.28,-97.05,-211.3,402.1
331,1747592170740,-0.01,-1.98,-1.28,-97.05,-211.3,402.1
332,1747592170750,0.08,-1.86,-1.1,-83.37,-269.23,394.47
333,1747592170760,0.08,-1.86,-1.1,-83.37,-269.23,394.47
334,1747592170770,0.08,-1.86,-1.1,-83.37,-269.23,394.47
335,1747592170780,0.11,-1.77,-1.07,-57.8,-234.8,397.34
336,1747592170790,0.11,-1.77,-1.07,-57.8,-234.8,397.34
337,1747592170800,0.11,-1.77,-1.07,-57.8,-234.8,397.34
338,1747592170810,0.335,-1.465,-0.775,-71.16499999999999,-212.89,369.845
339,1747592170820,0.56,-1.16,-0.48,-84.53,-190.98,342.35
340,1747592170830,0.56,-1.16,-0.48,-84.53,-190.98,342.35
341,1747592170840,0.56,-1.16,-0.48,-84.53,-190.98,342.35
342,1747592170850,1.39,-0.575,0.145,-78.58,-165.76999999999998,290.985
343,1747592170860,2.22,0.01,0.77,-72.63,-140.56,239.62
344,1747592170870,2.22,0.01,0.77,-72.63,-140.56,239.62
345,1747592170880,2.22,0.01,0.77,-72.63,-140.56,239.62
346,1747592170890,2.22,0.01,0.77,-72.63,-140.56,239.62
347,1747592170900,4.76,1.0,0.98,-29.97,38.82,156.07
348,1747592170910,4.76,1.0,0.98,-29.97,38.82,156.07
349,1747592170920,4.76,1.0,0.98,-29.97,38.82,156.07
350,1747592170930,4.404999999999999,1.09,1.29,-94.36,101.685,30.52
351,1747592170940,4.05,1.18,1.6,-158.75,164.55,-95.03
352,1747592170950,4.05,1.18,1.6,-158.75,164.55,-95.03
353,1747592170960,4.05,1.18,1.6,-158.75,164.55,-95.03
354,1747592170970,2.9,0.14,1.2,-48.77,211.49,-244.2
355,1747592170980,2.9,0.14,1.2,-48.77,211.49,-244.2
356,1747592170990,2.9,0.14,1.2,-48.77,211.49,-244.2
357,1747592171000,2.9,0.14,1.2,-48.77,211.49,-244.2
358,1747592171010,1.69,-0.98,-0.03,3.11,360.53,-326.05
359,1747592171020,1.69,-0.98,-0.03,3.11,360.53,-326.05
360,1747592171030,1.69,-0.98,-0.03,3.11,360.53,-326.05
361,1747592171040,1.69,-0.98,-0.03,3.11,360.53,-326.05
362,1747592171050,0.52,-2.29,-1.41,155.03,521.0,-299.13
363,1747592171060,0.52,-2.29,-1.41,155.03,521.0,-299.13
364,1747592171070,0.52,-2.29,-1.41,155.03,521.0,-299.13
365,1747592171080,0.52,-2.29,-1.41,155.03,521.0,-299.13
366,1747592171090,-0.28,-2.3,-2.56,243.29,306.09,-305.11
367,1747592171100,-0.28,-2.3,-2.56,243.29,306.09,-305.11
368,1747592171110,-0.28,-2.3,-2.56,243.29,306.09,-305.11
369,1747592171120,-0.28,-2.3,-2.56,243.29,306.09,-305.11
370,1747592171130,-0.23,-1.72,-2.01,122.8,249.51,-279.85
371,1747592171140,-0.23,-1.72,-2.01,122.8,249.51,-279.85
372,1747592171150,-0.23,-1.72,-2.01,122.8,249.51,-279.85
373,1747592171160,-0.23,-1.72,-2.01,122.8,249.51,-279.85
374,1747592171170,0.06,-1.35,-1.31,145.26,208.56,-269.23
375,1747592171180,0.06,-1.35,-1.31,145.26,208.56,-269.23
376,1747592171190,0.06,-1.35,-1.31,145.26,208.56,-269.23
377,1747592171200,0.045,-1.35,-1.245,143.70499999999998,230.44,-255.40500000000003
378,1747592171210,0.03,-1.35,-1.18,142.15,252.32,-241.58
379,1747592171220,0.03,-1.35,-1.18,142.15,252.32,-241.58
380,1747592171230,0.03,-1.35,-1.18,142.15,252.32,-241.58
381,1747592171240,-0.42,-1.94,-1.65,171.69,454.1,-183.29
382,1747592171250,-0.42,-1.94,-1.65,171.69,454.1,-183.29
383,1747592171260,-0.42,-1.94,-1.65,171.69,454.1,-183.29
384,1747592171270,-0.42,-1.94,-1.65,171.69,454.1,-183.29
385,1747592171280,-0.42,-1.94,-1.65,171.69,454.1,-183.29
386,1747592171290,-1.62,-0.83,-2.28,137.45,411.74,-153.595
387,1747592171300,-1.62,-0.83,-2.28,103.21,369.38,-123.9
388,1747592171310,-1.62,-0.83,-2.28,103.21,369.38,-123.9
389,1747592171320,-2.5,-0.54,-3.15,118.225,359.495,-88.045
390,1747592171330,-2.5,-0.54,-3.15,133.24,349.61,-52.19
391,1747592171340,-2.5,-0.54,-3.15,133.24,349.61,-52.19
392,1747592171350,-2.5,-0.54,-3.15,133.24,349.61,-52.19
393,1747592171360,-3.435,-1.125,-4.04,80.2,207.58,-116.7
394,1747592171370,-4.37,-1.71,-4.93,27.16,65.55,-181.21
395,1747592171380,-4.37,-1.71,-4.93,27.16,65.55,-181.21
396,1747592171390,-4.37,-1.71,-4.93,27.16,65.55,-181.21
397,1747592171400,-2.97,-2.16,-4.82,-44.43,-223.02,154.36
398,1747592171410,-2.97,-2.16,-4.82,-44.43,-223.02,154.36
399,1747592171420,-2.97,-2.16,-4.82,-44.43,-223.02,154.36
400,1747592171430,-2.97,-2.16,-4.82,-44.43,-223.02,154.36
401,1747592171440,-1.21,-1.38,-2.97,-148.74,-147.34,219.06
402,1747592171450,-1.21,-1.38,-2.97,-148.74,-147.34,219.06
403,1747592171460,-1.21,-1.38,-2.97,-148.74,-147.34,219.06
404,1747592171470,-1.11,-1.075,-2.66,-131.405,-202.425,192.935
405,1747592171480,-1.01,-0.77,-2.35,-114.07,-257.51,166.81
406,1747592171490,-1.01,-0.77,-2.35,-114.07,-257.51,166.81
407,1747592171500,-1.01,-0.77,-2.35,-114.07,-257.51,166.81
408,1747592171510,-0.905,-0.8300000000000001,-2.005,-130.215,-274.04999999999995,172.7
409,1747592171520,-0.8,-0.89,-1.66,-146.36,-290.59,178.59
410,1747592171530,-0.8,-0.89,-1.66,-146.36,-290.59,178.59
411,1747592171540,-0.8,-0.89,-1.66,-146.36,-290.59,178.59
412,1747592171550,-0.47,-1.06,-1.475,-169.8,-292.205,213.075
413,1747592171560,-0.14,-1.23,-1.29,-193.24,-293.82,247.56
414,1747592171570,-0.14,-1.23,-1.29,-193.24,-293.82,247.56
415,1747592171580,-0.14,-1.23,-1.29,-193.24,-293.82,247.56
416,1747592171590,0.0249999999999999,-1.345,-1.245,-161.41000000000005,-306.82,260.165
417,1747592171600,0.19,-1.46,-1.2,-129.58,-319.82,272.77
418,1747592171610,0.19,-1.46,-1.2,-129.58,-319.82,272.77
419,1747592171620,0.19,-1.46,-1.2,-129.58,-319.82,272.77
420,1747592171630,0.305,-1.6949999999999998,-1.4,-128.145,-307.25,299.255
421,1747592171640,0.42,-1.93,-1.6,-126.71,-294.68,325.74
422,1747592171650,0.42,-1.93,-1.6,-126.71,-294.68,325.74
423,1747592171660,0.42,-1.93,-1.6,-126.71,-294.68,325.74
424,1747592171670,0.07,-1.7,-1.21,-162.07999999999998,-294.25,309.17
425,1747592171680,0.07,-1.7,-1.21,-197.45,-293.82,292.6
426,1747592171690,0.07,-1.7,-1.21,-197.45,-293.82,292.6
427,1747592171700,0.07,-1.7,-1.21,-197.45,-293.82,292.6
428,1747592171710,0.23,-1.76,-1.04,-141.42,-280.88,354.86
429,1747592171720,0.23,-1.76,-1.04,-141.42,-280.88,354.86
430,1747592171730,0.23,-1.76,-1.04,-141.42,-280.88,354.86
431,1747592171740,0.62,-1.385,-0.56,-141.42,-280.88,354.86
432,1747592171750,1.01,-1.01,-0.08,-157.35,-258.61,296.94
433,1747592171760,1.01,-1.01,-0.08,-157.35,-258.61,296.94
434,1747592171770,1.01,-1.01,-0.08,-157.35,-258.61,296.94
435,1747592171780,1.5,-0.5,0.505,-122.955,-219.36,258.545
436,1747592171790,1.99,0.01,1.09,-88.56,-180.11,220.15
437,1747592171800,1.99,0.01,1.09,-88.56,-180.11,220.15
438,1747592171810,1.99,0.01,1.09,-88.56,-180.11,220.15
439,1747592171820,2.855,0.525,1.1800000000000002,-52.64,-108.305,166.26
440,1747592171830,3.72,1.04,1.27,-16.72,-36.5,112.37
441,1747592171840,3.72,1.04,1.27,-16.72,-36.5,112.37
442,1747592171850,3.72,1.04,1.27,-16.72,-36.5,112.37
443,1747592171860,3.69,1.36,1.49,-106.14,94.18,-82.89
444,1747592171870,3.69,1.36,1.49,-106.14,94.18,-82.89
445,1747592171880,3.69,1.36,1.49,-106.14,94.18,-82.89
446,1747592171890,3.69,1.36,1.49,-106.14,94.18,-82.89
447,1747592171900,2.79,0.52,1.44,-100.71,219.36,-224.0
448,1747592171910,2.79,0.52,1.44,-100.71,219.36,-224.0
449,1747592171920,2.79,0.52,1.44,-100.71,219.36,-224.0
450,1747592171930,2.79,0.52,1.44,-100.71,219.36,-224.0
451,1747592171940,1.73,-0.65,0.15,-36.93,349.49,-315.43
452,1747592171950,1.73,-0.65,0.15,-36.93,349.49,-315.43
453,1747592171960,1.73,-0.65,0.15,-36.93,349.49,-315.43
454,1747592171970,1.73,-0.65,0.15,-36.93,349.49,-315.43
455,1747592171980,0.79,-1.83,-1.01,106.02,458.13,-316.41
456,1747592171990,0.79,-1.83,-1.01,106.02,458.13,-316.41
457,1747592172000,0.79,-1.83,-1.01,106.02,458.13,-316.41
458,1747592172010,0.35,-2.38,-2.18,218.51,428.41,-284.61
459,1747592172020,0.35,-2.38,-2.18,218.51,428.41,-284.61
460,1747592172030,0.35,-2.38,-2.18,218.51,428.41,-284.61
461,1747592172040,0.35,-2.38,-2.18,218.51,428.41,-284.61
462,1747592172050,-0.02,-2.06,-2.32,163.33,248.11,-328.31
463,1747592172060,-0.02,-2.06,-2.32,163.33,248.11,-328.31
464,1747592172070,-0.02,-2.06,-2.32,163.33,248.11,-328.31
465,1747592172080,-0.02,-2.06,-2.32,163.33,248.11,-328.31
466,1747592172090,-0.09,-1.71,-1.88,85.94,148.44,-335.94
467,1747592172100,-0.09,-1.71,-1.88,85.94,148.44,-335.94
468,1747592172110,-0.09,-1.71,-1.88,85.94,148.44,-335.94
469,1747592172120,-0.11,-1.6,-1.67,52.28,187.075,-317.565
470,1747592172130,-0.13,-1.49,-1.46,18.62,225.71,-299.19
471,1747592172140,-0.13,-1.49,-1.46,18.62,225.71,-299.19
472,1747592172150,-0.13,-1.49,-1.46,18.62,225.71,-299.19
473,1747592172160,-0.165,-1.48,-1.41,35.065,269.565,-259.09000000000003
474,1747592172170,-0.2,-1.47,-1.36,51.51,313.42,-218.99
475,1747592172180,-0.2,-1.47,-1.36,51.51,313.42,-218.99
476,1747592172190,-0.2,-1.47,-1.36,51.51,313.42,-218.99
477,1747592172200,-0.74,-1.345,-1.535,27.065,354.95000000000005,-190.275
478,1747592172210,-1.28,-1.22,-1.71,2.62,396.48,-161.56
479,1747592172220,-1.28,-1.22,-1.71,2.62,396.48,-161.56
480,1747592172230,-1.28,-1.22,-1.71,2.62,396.48,-161.56
481,1747592172240,-2.33,-1.08,-1.61,74.83,336.98,-84.9
482,1747592172250,-2.33,-1.08,-1.61,74.83,336.98,-84.9
483,1747592172260,-2.33,-1.08,-1.61,74.83,336.98,-84.9
484,1747592172270,-2.33,-1.08,-1.61,74.83,336.98,-84.9
485,1747592172280,-3.22,-1.12,-2.48,59.355,290.07,-85.39
486,1747592172290,-3.22,-1.12,-2.48,43.88,243.16,-85.88
487,1747592172300,-3.22,-1.12,-2.48,43.88,243.16,-85.88
488,1747592172310,-3.22,-1.12,-2.48,43.88,243.16,-85.88
489,1747592172320,-4.66,-3.16,-3.94,95.83,-80.02,-20.26
490,1747592172330,-4.66,-3.16,-3.94,95.83,-80.02,-20.26
491,1747592172340,-4.66,-3.16,-3.94,95.83,-80.02,-20.26
492,1747592172350,-4.66,-3.16,-3.94,95.83,-80.02,-20.26
493,1747592172360,-2.33,-2.44,-3.65,-49.32,-84.23,197.75
494,1747592172370,-2.33,-2.44,-3.65,-49.32,-84.23,197.75
495,1747592172380,-2.33,-2.44,-3.65,-49.32,-84.23,197.75
496,1747592172390,-2.33,-2.44,-3.65,-49.32,-84.23,197.75
497,1747592172400,-1.32,-1.36,-2.21,-165.65,-105.65,199.04
498,1747592172410,-1.32,-1.36,-2.21,-165.65,-105.65,199.04
499,1747592172420,-1.32,-1.36,-2.21,-165.65,-105.65,199.04
500,1747592172430,-1.32,-1.36,-2.21,-165.65,-105.65,199.04
501,1747592172440,-1.0,-1.0,-1.7,-108.34,-270.57,202.39
502,1747592172450,-1.0,-1.0,-1.7,-108.34,-270.57,202.39
503,1747592172460,-1.0,-1.0,-1.7,-108.34,-270.57,202.39
504,1747592172470,-0.7849999999999999,-1.09,-1.625,-132.785,-277.68,241.91
505,1747592172480,-0.57,-1.18,-1.55,-157.23,-284.79,281.43
506,1747592172490,-0.57,-1.18,-1.55,-157.23,-284.79,281.43
507,1747592172500,-0.57,-1.18,-1.55,-157.23,-284.79,281.43
508,1747592172510,-0.2099999999999999,-1.2799999999999998,-1.445,-180.88,-268.92,293.67
509,1747592172520,0.15,-1.38,-1.34,-204.53,-253.05,305.91
510,1747592172530,0.15,-1.38,-1.34,-204.53,-253.05,305.91
511,1747592172540,0.15,-1.38,-1.34,-204.53,-253.05,305.91
512,1747592172550,0.2,-1.56,-1.41,-192.75,-267.03,307.43
513,1747592172560,0.2,-1.56,-1.41,-192.75,-267.03,307.43
514,1747592172570,0.2,-1.56,-1.41,-192.75,-267.03,307.43
515,1747592172580,0.3,-1.565,-1.43,-192.75,-267.03,307.43
516,1747592172590,0.4,-1.57,-1.45,-171.2,-293.88,328.98
517,1747592172600,0.4,-1.57,-1.45,-171.2,-293.88,328.98
518,1747592172610,0.4,-1.57,-1.45,-171.2,-293.88,328.98
519,1747592172620,0.4,-1.57,-1.45,-171.2,-293.88,328.98
520,1747592172630,0.33,-1.42,-1.33,-178.04,-296.02,332.03
521,1747592172640,0.33,-1.42,-1.33,-178.04,-296.02,332.03
522,1747592172650,0.33,-1.42,-1.33,-178.04,-296.02,332.03
523,1747592172660,0.33,-1.42,-1.33,-178.04,-296.02,332.03
524,1747592172670,0.51,-1.18,-0.98,-151.43,-259.58,338.32
525,1747592172680,0.51,-1.18,-0.98,-151.43,-259.58,338.32
526,1747592172690,0.51,-1.18,-0.98,-151.43,-259.58,338.32
527,1747592172700,0.905,-0.875,-0.52,-151.43,-259.58,338.32
528,1747592172710,1.3,-0.57,-0.06,-102.84,-291.02,219.24
529,1747592172720,1.3,-0.57,-0.06,-102.84,-291.02,219.24
530,1747592172730,1.3,-0.57,-0.06,-102.84,-291.02,219.24
531,1747592172740,1.755,-0.0249999999999999,0.635,-80.565,-288.33,181.945
532,1747592172750,2.21,0.52,1.33,-58.29,-285.64,144.65
533,1747592172760,2.21,0.52,1.33,-58.29,-285.64,144.65
534,1747592172770,2.21,0.52,1.33,-58.29,-285.64,144.65
535,1747592172780,2.92,0.775,1.255,-35.89,-207.245,76.355
536,1747592172790,3.63,1.03,1.18,-13.49,-128.85,8.06
537,1747592172800,3.63,1.03,1.18,-13.49,-128.85,8.06
538,1747592172810,3.63,1.03,1.18,-13.49,-128.85,8.06
539,1747592172820,3.345,0.86,1.325,-96.225,-0.9799999999999968,-58.41
540,1747592172830,3.06,0.69,1.47,-178.96,126.89,-124.88
541,1747592172840,3.06,0.69,1.47,-178.96,126.89,-124.88
542,1747592172850,3.06,0.69,1.47,-178.96,126.89,-124.88
543,1747592172860,2.01,-0.25,0.81,-105.41,236.63,-223.82
544,1747592172870,2.01,-0.25,0.81,-105.41,236.63,-223.82
545,1747592172880,2.01,-0.25,0.81,-105.41,236.63,-223.82
546,1747592172890,2.01,-0.25,0.81,-105.41,236.63,-223.82
547,1747592172900,1.21,-0.94,-0.07,-28.63,409.0,-271.0
548,1747592172910,1.21,-0.94,-0.07,-28.63,409.0,-271.0
549,1747592172920,1.21,-0.94,-0.07,-28.63,409.0,-271.0
550,1747592172930,0.47,-1.63,-0.81,36.830000000000005,449.19,-271.885
551,1747592172940,0.47,-1.63,-0.81,102.29,489.38,-272.77
552,1747592172950,0.47,-1.63,-0.81,102.29,489.38,-272.77
553,1747592172960,0.245,-1.815,-1.495,102.29,489.38,-272.77
554,1747592172970,0.02,-2.0,-2.18,194.7,485.41,-241.09
555,1747592172980,0.02,-2.0,-2.18,194.7,485.41,-241.09
556,1747592172990,0.02,-2.0,-2.18,194.7,485.41,-241.09
557,1747592173000,-0.07,-1.78,-2.105,180.54,397.37,-249.205
558,1747592173010,-0.16,-1.56,-2.03,166.38,309.33,-257.32
559,1747592173020,-0.16,-1.56,-2.03,166.38,309.33,-257.32
560,1747592173030,-0.16,-1.56,-2.03,166.38,309.33,-257.32
561,1747592173040,-0.16,-1.56,-2.03,166.38,309.33,-257.32
562,1747592173050,0.09,-1.24,-1.55,150.51,193.97,-283.33
563,1747592173060,0.09,-1.24,-1.55,150.51,193.97,-283.33
564,1747592173070,0.09,-1.24,-1.55,150.51,193.97,-283.33
565,1747592173080,0.14,-1.15,-1.3,129.45499999999998,239.35,-275.975
566,1747592173090,0.14,-1.15,-1.3,108.4,284.73,-268.62
567,1747592173100,0.14,-1.15,-1.3,108.4,284.73,-268.62
568,1747592173110,0.14,-1.15,-1.3,108.4,284.73,-268.62
569,1747592173120,-0.045,-1.36,-1.51,134.675,339.08000000000004,-225.405
570,1747592173130,-0.23,-1.57,-1.72,160.95,393.43,-182.19
571,1747592173140,-0.23,-1.57,-1.72,160.95,393.43,-182.19
572,1747592173150,-0.23,-1.57,-1.72,160.95,393.43,-182.19
573,1747592173160,-1.35,-1.15,-2.3,134.51999999999998,338.195,-173.82999999999998
574,1747592173170,-1.35,-1.15,-2.3,108.09,282.96,-165.47
575,1747592173180,-1.35,-1.15,-2.3,108.09,282.96,-165.47
576,1747592173190,-1.35,-1.15,-2.3,108.09,282.96,-165.47
577,1747592173200,-3.38,-1.19,-2.36,86.61,286.74,-83.25
578,1747592173210,-3.38,-1.19,-2.36,86.61,286.74,-83.25
579,1747592173220,-3.38,-1.19,-2.36,86.61,286.74,-83.25
580,1747592173230,-3.495,-1.035,-3.125,93.565,260.495,-57.495
581,1747592173240,-3.61,-0.88,-3.89,100.52,234.25,-31.74
582,1747592173250,-3.61,-0.88,-3.89,100.52,234.25,-31.74
583,1747592173260,-3.61,-0.88,-3.89,100.52,234.25,-31.74
584,1747592173270,-4.015,-1.735,-4.04,51.91,-13.85499999999999,8.209999999999999
585,1747592173280,-4.42,-2.59,-4.19,3.3,-261.96,48.16
586,1747592173290,-4.42,-2.59,-4.19,3.3,-261.96,48.16
587,1747592173300,-4.42,-2.59,-4.19,3.3,-261.96,48.16
588,1747592173310,-3.265,-2.305,-3.5600000000000005,-60.085,-172.42499999999998,146.365
589,1747592173320,-2.11,-2.02,-2.93,-123.47,-82.89,244.57
590,1747592173330,-2.11,-2.02,-2.93,-123.47,-82.89,244.57
591,1747592173340,-2.11,-2.02,-2.93,-123.47,-82.89,244.57
592,1747592173350,-1.68,-1.66,-2.385,-122.13,-130.71,239.2
593,1747592173360,-1.25,-1.3,-1.84,-120.79,-178.53,233.83
594,1747592173370,-1.25,-1.3,-1.84,-120.79,-178.53,233.83
595,1747592173380,-1.25,-1.3,-1.84,-120.79,-178.53,233.83
596,1747592173390,-0.86,-1.07,-1.52,-96.62,-313.23,225.52
597,1747592173400,-0.86,-1.07,-1.52,-96.62,-313.23,225.52
598,1747592173410,-0.86,-1.07,-1.52,-96.62,-313.23,225.52
599,1747592173420,-0.86,-1.07,-1.52,-96.62,-313.23,225.52
600,1747592173430,-0.86,-1.07,-1.52,-96.62,-313.23,225.52
601,1747592173440,-0.27,-1.35,-1.31,-141.72,-286.68,315.8
602,1747592173450,-0.27,-1.35,-1.31,-141.72,-286.68,315.8
603,1747592173460,-0.27,-1.35,-1.31,-141.72,-286.68,315.8
604,1747592173470,0.2,-1.42,-1.3,-134.7,-263.98,314.58
605,1747592173480,0.2,-1.42,-1.3,-134.7,-263.98,314.58
606,1747592173490,0.2,-1.42,-1.3,-134.7,-263.98,314.58
607,1747592173500,0.2,-1.42,-1.3,-134.7,-263.98,314.58
608,1747592173510,0.01,-1.69,-1.54,-160.89,-261.47,346.68
609,1747592173520,0.01,-1.69,-1.54,-160.89,-261.47,346.68
610,1747592173530,0.01,-1.69,-1.54,-160.89,-261.47,346.68
611,1747592173540,0.01,-1.69,-1.54,-160.89,-261.47,346.68
612,1747592173550,0.21,-1.8,-1.4,-158.57,-252.38,363.89
613,1747592173560,0.21,-1.8,-1.4,-158.57,-252.38,363.89
614,1747592173570,0.21,-1.8,-1.4,-158.57,-252.38,363.89
615,1747592173580,0.2249999999999999,-1.745,-1.36,-152.59,-262.45,354.46
616,1747592173590,0.24,-1.69,-1.32,-146.61,-272.52,345.03
617,1747592173600,0.24,-1.69,-1.32,-146.61,-272.52,345.03
618,1747592173610,0.24,-1.69,-1.32,-146.61,-272.52,345.03
619,1747592173620,0.385,-1.53,-1.11,-132.05,-262.175,330.29
620,1747592173630,0.53,-1.37,-0.9,-117.49,-251.83,315.55
621,1747592173640,0.53,-1.37,-0.9,-117.49,-251.83,315.55
622,1747592173650,0.53,-1.37,-0.9,-117.49,-251.83,315.55
623,1747592173660,1.12,-0.76,-0.03,-124.295,-269.165,263.245
624,1747592173670,1.71,-0.15,0.84,-131.1,-286.5,210.94
625,1747592173680,1.71,-0.15,0.84,-131.1,-286.5,210.94
626,1747592173690,1.71,-0.15,0.84,-131.1,-286.5,210.94
627,1747592173700,3.94,0.81,1.7,51.45,-182.86,135.19
628,1747592173710,3.94,0.81,1.7,51.45,-182.86,135.19
629,1747592173720,3.94,0.81,1.7,51.45,-182.86,135.19
630,1747592173730,3.94,0.81,1.7,51.45,-182.86,135.19
631,1747592173740,4.54,1.21,1.32,-84.72,133.61,-11.05
632,1747592173750,4.54,1.21,1.32,-84.72,133.61,-11.05
633,1747592173760,4.54,1.21,1.32,-84.72,133.61,-11.05
634,1747592173770,4.54,1.21,1.32,-84.72,133.61,-11.05
635,1747592173780,3.18,0.4,1.32,-87.22,213.44,-240.11
636,1747592173790,3.18,0.4,1.32,-87.22,213.44,-240.11
637,1747592173800,3.18,0.4,1.32,-87.22,213.44,-240.11
638,1747592173810,3.18,0.4,1.32,-87.22,213.44,-240.11
639,1747592173820,1.76,-0.75,0.04,-52.49,396.42,-300.6
640,1747592173830,1.76,-0.75,0.04,-52.49,396.42,-300.6
641,1747592173840,1.76,-0.75,0.04,-52.49,396.42,-300.6
642,1747592173850,1.76,-0.75,0.04,-52.49,396.42,-300.6
643,1747592173860,0.75,-1.85,-1.07,107.24,498.11,-295.96
644,1747592173870,0.75,-1.85,-1.07,107.24,498.11,-295.96
645,1747592173880,0.75,-1.85,-1.07,107.24,498.11,-295.96
646,1747592173890,0.475,-2.075,-1.765,203.555,418.0,-295.47
647,1747592173900,0.2,-2.3,-2.46,299.87,337.89,-294.98
648,1747592173910,0.2,-2.3,-2.46,299.87,337.89,-294.98
649,1747592173920,0.2,-2.3,-2.46,299.87,337.89,-294.98
650,1747592173930,0.055,-2.095,-2.46,224.885,325.685,-311.765
651,1747592173940,-0.09,-1.89,-2.46,149.9,313.48,-328.55
652,1747592173950,-0.09,-1.89,-2.46,149.9,313.48,-328.55
653,1747592173960,-0.09,-1.89,-2.46,149.9,313.48,-328.55
654,1747592173970,0.03,-1.69,-1.92,129.33,223.94,-332.89
655,1747592173980,0.03,-1.69,-1.92,129.33,223.94,-332.89
656,1747592173990,0.03,-1.69,-1.92,129.33,223.94,-332.89
657,1747592174000,0.03,-1.69,-1.92,129.33,223.94,-332.89
658,1747592174010,-0.07,-1.63,-1.83,118.16,198.7,-322.36
659,1747592174020,-0.17,-1.57,-1.74,106.99,173.46,-311.83
660,1747592174030,-0.17,-1.57,-1.74,106.99,173.46,-311.83
661,1747592174040,-0.17,-1.57,-1.74,106.99,173.46,-311.83
662,1747592174050,-0.22,-1.46,-1.47,62.01,264.77,-267.33
663,1747592174060,-0.22,-1.46,-1.47,62.01,264.77,-267.33
664,1747592174070,-0.22,-1.46,-1.47,62.01,264.77,-267.33
665,1747592174080,-0.22,-1.46,-1.47,62.01,264.77,-267.33
666,1747592174090,-1.07,-1.35,-1.78,92.35,291.02,-221.98
667,1747592174100,-1.07,-1.35,-1.78,92.35,291.02,-221.98
668,1747592174110,-1.07,-1.35,-1.78,92.35,291.02,-221.98
669,1747592174120,-1.07,-1.35,-1.78,92.35,291.02,-221.98
670,1747592174130,-2.72,-1.44,-1.82,52.92,270.57,-178.77
671,1747592174140,-2.72,-1.44,-1.82,52.92,270.57,-178.77
672,1747592174150,-2.72,-1.44,-1.82,52.92,270.57,-178.77
673,1747592174160,-2.72,-1.44,-1.82,52.92,270.57,-178.77
674,1747592174170,-3.83,-1.53,-2.78,107.73,311.46,-50.29
675,1747592174180,-3.83,-1.53,-2.78,107.73,311.46,-50.29
676,1747592174190,-3.83,-1.53,-2.78,107.73,311.46,-50.29
677,1747592174200,-4.475,-2.455,-3.46,79.805,137.635,-21.79
678,1747592174210,-5.12,-3.38,-4.14,51.88,-36.19,6.71
679,1747592174220,-5.12,-3.38,-4.14,51.88,-36.19,6.71
680,1747592174230,-5.12,-3.38,-4.14,51.88,-36.19,6.71
681,1747592174240,-2.43,-2.59,-3.18,8.18,-157.165,99.03
682,1747592174250,-2.43,-2.59,-3.18,-35.52,-278.14,191.35
683,1747592174260,-2.43,-2.59,-3.18,-35.52,-278.14,191.35
684,1747592174270,-2.43,-2.59,-3.18,-35.52,-278.14,191.35
685,1747592174280,-1.67,-1.68,-1.74,-114.2,-143.74,239.75
686,1747592174290,-1.67,-1.68,-1.74,-114.2,-143.74,239.75
687,1747592174300,-1.67,-1.68,-1.74,-114.2,-143.74,239.75
688,1747592174310,-1.67,-1.68,-1.74,-114.2,-143.74,239.75
689,1747592174320,-1.17,-1.33,-1.54,-96.255,-203.645,258.24
690,1747592174330,-1.17,-1.33,-1.54,-78.31,-263.55,276.73
691,1747592174340,-1.17,-1.33,-1.54,-78.31,-263.55,276.73
692,1747592174350,-1.17,-1.33,-1.54,-78.31,-263.55,276.73
693,1747592174360,-0.4,-1.52,-1.4,-135.5,-258.36,342.41
694,1747592174370,-0.4,-1.52,-1.4,-135.5,-258.36,342.41
695,1747592174380,-0.4,-1.52,-1.4,-135.5,-258.36,342.41
696,1747592174390,-0.105,-1.61,-1.36,-135.5,-258.36,342.41
697,1747592174400,0.19,-1.7,-1.32,-120.0,-286.8,345.95
698,1747592174410,0.19,-1.7,-1.32,-120.0,-286.8,345.95
699,1747592174420,0.19,-1.7,-1.32,-120.0,-286.8,345.95
700,1747592174430,0.145,-1.795,-1.395,-100.895,-302.70000000000005,359.1
701,1747592174440,0.1,-1.89,-1.47,-81.79,-318.6,372.25
702,1747592174450,0.1,-1.89,-1.47,-81.79,-318.6,372.25
703,1747592174460,0.14,-1.895,-1.485,-77.64,-304.19500000000005,379.85
704,1747592174470,0.18,-1.9,-1.5,-73.49,-289.79,387.45
705,1747592174480,0.18,-1.9,-1.5,-73.49,-289.79,387.45
706,1747592174490,0.18,-1.9,-1.5,-73.49,-289.79,387.45
707,1747592174500,0.18,-1.9,-1.5,-73.49,-289.79,387.45
708,1747592174510,0.21,-1.74,-1.34,-79.47,-245.36,393.43
709,1747592174520,0.21,-1.74,-1.34,-79.47,-245.36,393.43
710,1747592174530,0.21,-1.74,-1.34,-79.47,-245.36,393.43
711,1747592174540,0.255,-1.565,-1.24,-86.72999999999999,-239.045,388.455
712,1747592174550,0.3,-1.39,-1.14,-93.99,-232.73,383.48
713,1747592174560,0.3,-1.39,-1.14,-93.99,-232.73,383.48
714,1747592174570,0.3,-1.39,-1.14,-93.99,-232.73,383.48
715,1747592174580,1.2,-0.77,-0.21,-121.58,-223.14,349.37
716,1747592174590,1.2,-0.77,-0.21,-121.58,-223.14,349.37
717,1747592174600,1.2,-0.77,-0.21,-121.58,-223.14,349.37
718,1747592174610,1.2,-0.77,-0.21,-121.58,-223.14,349.37
719,1747592174620,2.23,0.38,1.06,-78.95,-212.645,267.795
720,1747592174630,2.23,0.38,1.06,-36.32,-202.15,186.22
721,1747592174640,2.23,0.38,1.06,-36.32,-202.15,186.22
722,1747592174650,2.23,0.38,1.06,-36.32,-202.15,186.22
723,1747592174660,4.42,0.58,0.24,2.01,-10.99,155.21
724,1747592174670,4.42,0.58,0.24,2.01,-10.99,155.21
725,1747592174680,4.42,0.58,0.24,2.01,-10.99,155.21
726,1747592174690,4.27,0.8049999999999999,0.805,2.01,-10.99,155.21
727,1747592174700,4.12,1.03,1.37,-129.39,44.37,-107.6
728,1747592174710,4.12,1.03,1.37,-129.39,44.37,-107.6
729,1747592174720,4.12,1.03,1.37,-129.39,44.37,-107.6
730,1747592174730,4.12,1.03,1.37,-129.39,44.37,-107.6
731,1747592174740,2.42,-0.17,0.48,-102.05,218.44,-228.45
732,1747592174750,2.42,-0.17,0.48,-102.05,218.44,-228.45
733,1747592174760,2.42,-0.17,0.48,-102.05,218.44,-228.45
734,1747592174770,1.915,-0.52,0.245,-81.575,292.57,-270.66
735,1747592174780,1.41,-0.87,0.01,-61.1,366.7,-312.87
736,1747592174790,1.41,-0.87,0.01,-61.1,366.7,-312.87
737,1747592174800,1.41,-0.87,0.01,-61.1,366.7,-312.87
738,1747592174810,0.46,-1.78,-0.83,122.74,433.17,-331.36
739,1747592174820,0.46,-1.78,-0.83,122.74,433.17,-331.36
740,1747592174830,0.46,-1.78,-0.83,122.74,433.17,-331.36
741,1747592174840,0.46,-1.78,-0.83,122.74,433.17,-331.36
742,1747592174850,0.23,-1.88,-1.33,162.07999999999998,422.7000000000001,-322.265
743,1747592174860,0.0,-1.98,-1.83,201.42,412.23,-313.17
744,1747592174870,0.0,-1.98,-1.83,201.42,412.23,-313.17
745,1747592174880,0.0,-1.98,-1.83,201.42,412.23,-313.17
746,1747592174890,0.05,-1.95,-1.42,210.33,323.36,-293.33
747,1747592174900,0.05,-1.95,-1.42,210.33,323.36,-293.33
748,1747592174910,0.05,-1.95,-1.42,210.33,323.36,-293.33
749,1747592174920,0.05,-1.95,-1.42,210.33,323.36,-293.33
750,1747592174930,-0.22,-2.13,-1.9,249.15,201.72,-266.85
751,1747592174940,-0.22,-2.13,-1.9,249.15,201.72,-266.85
752,1747592174950,-0.22,-2.13,-1.9,249.15,201.72,-266.85
753,1747592174960,-0.22,-2.13,-1.9,249.15,201.72,-266.85
754,1747592174970,-0.32,-1.62,-1.57,130.19,229.92,-294.98
755,1747592174980,-0.32,-1.62,-1.57,130.19,229.92,-294.98
756,1747592174990,-0.32,-1.62,-1.57,130.19,229.92,-294.98
757,1747592175000,-0.32,-1.62,-1.57,130.19,229.92,-294.98
758,1747592175010,-0.75,-1.62,-1.62,164.0,182.56,-246.7
759,1747592175020,-0.75,-1.62,-1.62,164.0,182.56,-246.7
760,1747592175030,-0.75,-1.62,-1.62,164.0,182.56,-246.7
761,1747592175040,-0.75,-1.62,-1.62,164.0,182.56,-246.7
762,1747592175050,-0.79,-1.38,-1.98,34.67,290.95,-238.28
763,1747592175060,-0.79,-1.38,-1.98,34.67,290.95,-238.28
764,1747592175070,-0.79,-1.38,-1.98,34.67,290.95,-238.28
765,1747592175080,-3.01,-1.06,-1.13,86.55,225.04,-172.36
766,1747592175090,-3.01,-1.06,-1.13,86.55,225.04,-172.36
767,1747592175100,-3.01,-1.06,-1.13,86.55,225.04,-172.36
768,1747592175110,-3.01,-1.06,-1.13,86.55,225.04,-172.36
769,1747592175120,-4.07,-1.37,-3.72,245.91,331.42,-126.95
770,1747592175130,-4.07,-1.37,-3.72,245.91,331.42,-126.95
771,1747592175140,-4.07,-1.37,-3.72,245.91,331.42,-126.95
772,1747592175150,-4.07,-1.37,-3.72,245.91,331.42,-126.95
773,1747592175160,-4.7,-2.3600000000000003,-4.04,125.58,107.635,-44.89
774,1747592175170,-5.33,-3.35,-4.36,5.25,-116.15,37.17
775,1747592175180,-5.33,-3.35,-4.36,5.25,-116.15,37.17
776,1747592175190,-5.33,-3.35,-4.36,5.25,-116.15,37.17
777,1747592175200,-2.21,-1.86,-3.31,-137.39,-112.98,232.91
778,1747592175210,-2.21,-1.86,-3.31,-137.39,-112.98,232.91
779,1747592175220,-2.21,-1.86,-3.31,-137.39,-112.98,232.91
780,1747592175230,-2.21,-1.86,-3.31,-137.39,-112.98,232.91
781,1747592175240,-1.5,-1.34,-1.92,-153.32,-202.09,230.35
782,1747592175250,-1.5,-1.34,-1.92,-153.32,-202.09,230.35
783,1747592175260,-1.5,-1.34,-1.92,-153.32,-202.09,230.35
784,1747592175270,-1.27,-1.295,-1.79,-144.655,-248.935,246.95
785,1747592175280,-1.04,-1.25,-1.66,-135.99,-295.78,263.55
786,1747592175290,-1.04,-1.25,-1.66,-135.99,-295.78,263.55
787,1747592175300,-1.04,-1.25,-1.66,-135.99,-295.78,263.55
788,1747592175310,-0.625,-1.455,-1.5499999999999998,-150.21,-287.475,294.71000000000004
789,1747592175320,-0.21,-1.66,-1.44,-164.43,-279.17,325.87
790,1747592175330,-0.21,-1.66,-1.44,-164.43,-279.17,325.87
791,1747592175340,-0.21,-1.66,-1.44,-164.43,-279.17,325.87
792,1747592175350,0.2,-1.8,-1.41,-141.54,-287.35,315.61
793,1747592175360,0.2,-1.8,-1.41,-141.54,-287.35,315.61
794,1747592175370,0.2,-1.8,-1.41,-141.54,-287.35,315.61
795,1747592175380,0.2,-1.8,-1.41,-141.54,-287.35,315.61
796,1747592175390,0.145,-1.92,-1.49,-142.33499999999998,-269.345,337.49
797,1747592175400,0.09,-2.04,-1.57,-143.13,-251.34,359.37
798,1747592175410,0.09,-2.04,-1.57,-143.13,-251.34,359.37
799,1747592175420,0.09,-2.04,-1.57,-143.13,-251.34,359.37
800,1747592175430,0.28,-2.0,-1.42,-148.62,-234.62,389.47
801,1747592175440,0.28,-2.0,-1.42,-148.62,-234.62,389.47
802,1747592175450,0.28,-2.0,-1.42,-148.62,-234.62,389.47
803,1747592175460,0.28,-2.0,-1.42,-148.62,-234.62,389.47
804,1747592175470,0.35,-1.8,-1.25,-119.69,-275.57,351.87
805,1747592175480,0.35,-1.8,-1.25,-119.69,-275.57,351.87
806,1747592175490,0.35,-1.8,-1.25,-119.69,-275.57,351.87
807,1747592175500,0.35,-1.8,-1.25,-119.69,-275.57,351.87
808,1747592175510,0.51,-1.38,-0.85,-118.29,-271.18,294.56
809,1747592175520,0.51,-1.38,-0.85,-118.29,-271.18,294.56
810,1747592175530,0.51,-1.38,-0.85,-118.29,-271.18,294.56
811,1747592175540,0.975,-0.93,-0.0949999999999999,-122.59,-258.85,259.735
812,1747592175550,1.44,-0.48,0.66,-126.89,-246.52,224.91
813,1747592175560,1.44,-0.48,0.66,-126.89,-246.52,224.91
814,1747592175570,1.44,-0.48,0.66,-126.89,-246.52,224.91
815,1747592175580,2.565,-0.0199999999999999,0.945,-50.870000000000005,-211.945,211.76
816,1747592175590,3.69,0.44,1.23,25.15,-177.37,198.61
817,1747592175600,3.69,0.44,1.23,25.15,-177.37,198.61
818,1747592175610,3.69,0.44,1.23,25.15,-177.37,198.61
819,1747592175620,4.46,1.23,1.2,-111.21,24.6,37.78
820,1747592175630,4.46,1.23,1.2,-111.21,24.6,37.78
821,1747592175640,4.46,1.23,1.2,-111.21,24.6,37.78
822,1747592175650,4.46,1.23,1.2,-111.21,24.6,37.78
823,1747592175660,3.21,0.49,1.5,-70.74,137.63,-151.79
824,1747592175670,3.21,0.49,1.5,-70.74,137.63,-151.79
825,1747592175680,3.21,0.49,1.5,-70.74,137.63,-151.79
826,1747592175690,3.21,0.49,1.5,-70.74,137.63,-151.79
827,1747592175700,2.02,-0.45,0.44,-18.74,278.02,-264.65
828,1747592175710,2.02,-0.45,0.44,-18.74,278.02,-264.65
829,1747592175720,2.02,-0.45,0.44,-18.74,278.02,-264.65
830,1747592175730,2.02,-0.45,0.44,-18.74,278.02,-264.65
831,1747592175740,1.25,-1.41,-0.66,65.12,398.68,-352.11
832,1747592175750,1.25,-1.41,-0.66,65.12,398.68,-352.11
833,1747592175760,1.25,-1.41,-0.66,65.12,398.68,-352.11
834,1747592175770,0.74,-1.895,-1.39,145.78,404.965,-342.53
835,1747592175780,0.23,-2.38,-2.12,226.44,411.25,-332.95
836,1747592175790,0.23,-2.38,-2.12,226.44,411.25,-332.95
837,1747592175800,0.23,-2.38,-2.12,226.44,411.25,-332.95
838,1747592175810,0.2,-2.22,-2.085,188.08,361.385,-356.475
839,1747592175820,0.17,-2.06,-2.05,149.72,311.52,-380.0
840,1747592175830,0.17,-2.06,-2.05,149.72,311.52,-380.0
841,1747592175840,0.17,-2.06,-2.05,149.72,311.52,-380.0
842,1747592175850,0.25,-2.045,-1.87,152.495,231.72,-402.19
843,1747592175860,0.33,-2.03,-1.69,155.27,151.92,-424.38
844,1747592175870,0.33,-2.03,-1.69,155.27,151.92,-424.38
845,1747592175880,0.33,-2.03,-1.69,155.27,151.92,-424.38
846,1747592175890,0.22,-1.96,-1.3,92.1,138.37,-410.89
847,1747592175900,0.22,-1.96,-1.3,92.09999999999998,138.37,-410.89
848,1747592175910,0.22,-1.96,-1.3,92.1,138.37,-410.89
849,1747592175920,0.22,-1.96,-1.3,92.1,138.37,-410.89
850,1747592175930,0.305,-2.085,-1.255,91.43,175.935,-391.54
851,1747592175940,0.39,-2.21,-1.21,90.76,213.5,-372.19
852,1747592175950,0.39,-2.21,-1.21,90.76,213.5,-372.19
853,1747592175960,0.39,-2.21,-1.21,90.76,213.5,-372.19
854,1747592175970,-1.27,-2.62,-2.17,77.09,241.18,-342.74
855,1747592175980,-1.27,-2.62,-2.17,63.42,268.86,-313.29
856,1747592175990,-1.27,-2.62,-2.17,63.42,268.86,-313.29
857,1747592176000,-1.27,-2.62,-2.17,63.42,268.86,-313.29
858,1747592176010,-2.57,-2.68,-1.45,-27.95,203.92,-226.5
859,1747592176020,-2.57,-2.68,-1.45,-27.95,203.92,-226.5
860,1747592176030,-2.57,-2.68,-1.45,-27.95,203.92,-226.5
861,1747592176040,-3.26,-2.6950000000000003,-1.54,-27.95,203.92,-226.5
862,1747592176050,-3.95,-2.71,-1.63,89.6,236.51,-95.58
863,1747592176060,-3.95,-2.71,-1.63,89.6,236.51,-95.58
864,1747592176070,-3.95,-2.71,-1.63,89.6,236.51,-95.58
865,1747592176080,-3.95,-2.71,-1.63,89.6,236.51,-95.58
866,1747592176090,-5.74,-3.38,-2.89,49.74,82.58,-47.79
867,1747592176100,-5.74,-3.38,-2.89,49.74,82.58,-47.79
868,1747592176110,-5.74,-3.38,-2.89,49.74,82.58,-47.79
869,1747592176120,-4.635,-3.21,-2.73,-5.035,18.005,82.4
870,1747592176130,-3.53,-3.04,-2.57,-59.81,-46.57,212.59
871,1747592176140,-3.53,-3.04,-2.57,-59.81,-46.57,212.59
872,1747592176150,-3.53,-3.04,-2.57,-59.81,-46.57,212.59
873,1747592176160,-2.68,-2.42,-2.235,-97.625,-41.99,244.265
874,1747592176170,-1.83,-1.8,-1.9,-135.44,-37.41,275.94
875,1747592176180,-1.83,-1.8,-1.9,-135.44,-37.41,275.94
876,1747592176190,-1.83,-1.8,-1.9,-135.44,-37.41,275.94
877,1747592176200,-1.17,-1.46,-1.6,-141.3,-205.14,279.24
878,1747592176210,-1.17,-1.46,-1.6,-141.3,-205.14,279.24
879,1747592176220,-1.17,-1.46,-1.6,-141.3,-205.14,279.24
880,1747592176230,-1.17,-1.46,-1.6,-141.3,-205.14,279.24
881,1747592176240,-0.56,-1.72,-1.57,-149.17,-316.35,337.65
882,1747592176250,-0.56,-1.72,-1.57,-149.17,-316.35,337.65
883,1747592176260,-0.56,-1.72,-1.57,-149.17,-316.35,337.65
884,1747592176270,-0.56,-1.72,-1.57,-149.17,-316.35,337.65
885,1747592176280,0.11,-2.14,-1.52,-142.03,-318.48,367.92
886,1747592176290,0.11,-2.14,-1.52,-142.03,-318.48,367.92
887,1747592176300,0.11,-2.14,-1.52,-142.03,-318.48,367.92
888,1747592176310,0.13,-2.27,-1.66,-109.5,-323.55,387.76
889,1747592176320,0.13,-2.27,-1.66,-109.5,-323.55,387.76
890,1747592176330,0.13,-2.27,-1.66,-109.5,-323.55,387.76
891,1747592176340,0.15,-2.31,-1.67,-118.93,-299.41,413.91
892,1747592176350,0.17,-2.35,-1.68,-128.36,-275.27,440.06
893,1747592176360,0.17,-2.35,-1.68,-128.36,-275.27,440.06
894,1747592176370,0.17,-2.35,-1.68,-128.36,-275.27,440.06
895,1747592176380,0.17,-2.35,-1.68,-128.36,-275.27,440.06
896,1747592176390,0.32,-2.12,-1.43,-140.56,-261.35,448.49
897,1747592176400,0.32,-2.12,-1.43,-140.56,-261.35,448.49
898,1747592176410,0.32,-2.12,-1.43,-140.56,-261.35,448.49
899,1747592176420,0.32,-2.12,-1.43,-140.56,-261.35,448.49
900,1747592176430,0.57,-1.74,-1.17,-86.49,-263.67,407.84
901,1747592176440,0.57,-1.74,-1.17,-86.49,-263.67,407.84
902,1747592176450,0.57,-1.74,-1.17,-86.49,-263.67,407.84
903,1747592176460,0.735,-1.41,-0.83,-104.705,-255.37,368.53
904,1747592176470,0.9,-1.08,-0.49,-122.92,-247.07,329.22
905,1747592176480,0.9,-1.08,-0.49,-122.92,-247.07,329.22
906,1747592176490,0.9,-1.08,-0.49,-122.92,-247.07,329.22
907,1747592176500,2.6,-0.05,1.42,-99.605,-242.46,299.225
908,1747592176510,2.6,-0.05,1.42,-76.29,-237.85,269.23
909,1747592176520,2.6,-0.05,1.42,-76.29,-237.85,269.23
910,1747592176530,3.81,0.29,1.135,-76.29,-237.85,269.23
911,1747592176540,5.02,0.63,0.85,74.83,-74.83,192.02
912,1747592176550,5.02,0.63,0.85,74.83,-74.83,192.02
913,1747592176560,5.02,0.63,0.85,74.83,-74.83,192.02
914,1747592176570,4.925,0.7,1.29,13.029999999999998,-37.26,26.125
915,1747592176580,4.83,0.77,1.73,-48.77,0.31,-139.77
916,1747592176590,4.83,0.77,1.73,-48.77,0.31,-139.77
917,1747592176600,4.83,0.77,1.73,-48.77,0.31,-139.77
918,1747592176610,4.83,0.77,1.73,-48.77,0.31,-139.77
919,1747592176620,2.78,-0.46,0.52,-5.07,292.54,-243.65
920,1747592176630,2.78,-0.46,0.52,-5.07,292.54,-243.65
921,1747592176640,2.78,-0.46,0.52,-5.07,292.54,-243.65
922,1747592176650,1.26,-1.71,-0.6,-5.07,292.54,-243.65
923,1747592176660,1.26,-1.71,-0.6,91.06,440.98,-361.33
924,1747592176670,1.26,-1.71,-0.6,91.06,440.98,-361.33
925,1747592176680,1.26,-1.71,-0.6,91.06,440.98,-361.33
926,1747592176690,-0.09,-2.51,-2.07,188.72,417.05,-377.5
927,1747592176700,-0.09,-2.51,-2.07,188.72,417.05,-377.5
928,1747592176710,-0.09,-2.51,-2.07,188.72,417.05,-377.5
929,1747592176720,-0.09,-2.51,-2.07,188.72,417.05,-377.5
930,1747592176730,-0.31,-2.17,-2.17,170.255,376.98,-374.51
931,1747592176740,-0.31,-2.17,-2.17,151.79,336.91,-371.52
932,1747592176750,-0.31,-2.17,-2.17,151.79,336.91,-371.52
933,1747592176760,-0.31,-2.17,-2.17,151.79,336.91,-371.52
934,1747592176770,-0.18,-1.86,-2.0,127.2,232.48,-368.77
935,1747592176780,-0.18,-1.86,-2.0,127.2,232.48,-368.77
936,1747592176790,-0.18,-1.86,-2.0,127.2,232.48,-368.77
937,1747592176800,-0.18,-1.86,-2.0,127.2,232.48,-368.77
938,1747592176810,-0.33,-1.82,-1.54,92.47,228.21,-315.8
939,1747592176820,-0.33,-1.82,-1.54,92.47,228.21,-315.8
940,1747592176830,-0.33,-1.82,-1.54,92.47,228.21,-315.8
941,1747592176840,-0.3399999999999999,-1.715,-1.525,92.47,228.21,-315.8
942,1747592176850,-0.35,-1.61,-1.51,147.46,266.05,-284.3
943,1747592176860,-0.35,-1.61,-1.51,147.46,266.05,-284.3
944,1747592176870,-0.35,-1.61,-1.51,147.46,266.05,-284.3
945,1747592176880,-0.605,-1.535,-1.675,143.125,300.32,-260.16
946,1747592176890,-0.86,-1.46,-1.84,138.79,334.59,-236.02
947,1747592176900,-0.86,-1.46,-1.84,138.79,334.59,-236.02
948,1747592176910,-0.86,-1.46,-1.84,138.79,334.59,-236.02
949,1747592176920,-1.26,-1.305,-1.91,138.79,334.59,-236.02
950,1747592176930,-1.66,-1.15,-1.98,107.85,298.46,-153.32
951,1747592176940,-1.66,-1.15,-1.98,107.85,298.46,-153.32
952,1747592176950,-1.66,-1.15,-1.98,107.85,298.46,-153.32
953,1747592176960,-2.475,-0.92,-2.24,117.155,270.995,-140.015
954,1747592176970,-3.29,-0.69,-2.5,126.46,243.53,-126.71
955,1747592176980,-3.29,-0.69,-2.5,126.46,243.53,-126.71
956,1747592176990,-3.29,-0.69,-2.5,126.46,243.53,-126.71
957,1747592177000,-5.53,-2.04,-4.08,105.955,147.245,-144.44
958,1747592177010,-5.53,-2.04,-4.08,85.45,50.96,-162.17
959,1747592177020,-5.53,-2.04,-4.08,85.45,50.96,-162.17
960,1747592177030,-5.53,-2.04,-4.08,85.45,50.96,-162.17
961,1747592177040,-3.91,-2.62,-3.89,28.87,-271.61,144.29
962,1747592177050,-3.91,-2.62,-3.89,28.87,-271.61,144.29
963,1747592177060,-3.91,-2.62,-3.89,28.87,-271.61,144.29
964,1747592177070,-3.91,-2.62,-3.89,28.87,-271.61,144.29
965,1747592177080,-1.82,-1.66,-2.55,-133.12,-71.78,258.54
966,1747592177090,-1.82,-1.66,-2.55,-133.12,-71.78,258.54
967,1747592177100,-1.82,-1.66,-2.55,-133.12,-71.78,258.54
968,1747592177110,-1.82,-1.66,-2.55,-133.12,-71.78,258.54
969,1747592177120,-1.21,-1.26,-1.85,-134.95,-229.37,227.11
970,1747592177130,-1.21,-1.26,-1.85,-134.95,-229.37,227.11
971,1747592177140,-1.21,-1.26,-1.85,-134.95,-229.37,227.11
972,1747592177150,-1.21,-1.26,-1.85,-134.95,-229.37,227.11
973,1747592177160,-0.72,-1.35,-1.45,-169.98,-289.98,254.88
974,1747592177170,-0.72,-1.35,-1.45,-169.98,-289.98,254.88
975,1747592177180,-0.72,-1.35,-1.45,-169.98,-289.98,254.88
976,1747592177190,-0.72,-1.35,-1.45,-169.98,-289.98,254.88
977,1747592177200,-0.14,-1.4,-1.21,-160.4,-260.74,304.26
978,1747592177210,-0.14,-1.4,-1.21,-160.4,-260.74,304.26
979,1747592177220,-0.14,-1.4,-1.21,-160.4,-260.74,304.26
980,1747592177230,0.23,-1.44,-1.14,-160.4,-260.74,304.26
981,1747592177240,0.23,-1.44,-1.14,-156.74,-218.93,287.48
982,1747592177250,0.23,-1.44,-1.14,-156.74,-218.93,287.48
983,1747592177260,0.23,-1.44,-1.14,-156.74,-218.93,287.48
984,1747592177270,0.04,-1.74,-1.32,-156.74,-218.93,287.48
985,1747592177280,0.04,-1.74,-1.32,-149.9,-243.35,337.59
986,1747592177290,0.04,-1.74,-1.32,-149.9,-243.35,337.59
987,1747592177300,0.04,-1.74,-1.32,-149.9,-243.35,337.59
988,1747592177310,0.21,-1.59,-1.21,-144.65,-252.69,333.62
989,1747592177320,0.21,-1.59,-1.21,-144.65,-252.69,333.62
990,1747592177330,0.21,-1.59,-1.21,-144.65,-252.69,333.62
991,1747592177340,0.21,-1.59,-1.21,-144.65,-252.69,333.62
992,1747592177350,0.18,-1.48,-1.14,-103.64,-254.82,328.0
993,1747592177360,0.18,-1.48,-1.14,-103.64,-254.82,328.0
994,1747592177370,0.18,-1.48,-1.14,-103.64,-254.82,328.0
995,1747592177380,0.18,-1.48,-1.14,-103.64,-254.82,328.0
996,1747592177390,0.48,-1.08,-0.69,-109.92,-227.97,291.56
997,1747592177400,0.48,-1.08,-0.69,-109.92,-227.97,291.56
998,1747592177410,0.48,-1.08,-0.69,-109.92,-227.97,291.56
999,1747592177420,0.95,-0.835,-0.0499999999999999,-142.605,-211.915,267.33
