id,timestamp,acc_x,acc_y,acc_z,gyro_x,gyro_y,gyro_z
0,1747400801400,1.88,-0.53,1.69,-139.77,-100.52,87.52
1,1747400801410,,,,,,
2,1747400801420,1.95,-0.21,1.46,-164.49,-69.95,111.21
3,1747400801430,1.95,-0.21,1.46,-164.49,-69.95,111.21
4,1747400801440,,,,,,
5,1747400801450,1.95,-0.21,1.46,-164.49,-69.95,111.21
6,1747400801460,,,,,,
7,1747400801470,1.65,0.01,1.01,-130.31,-46.63,122.86
8,1747400801480,1.65,0.01,1.01,-130.31,-46.63,122.86
9,1747400801490,,,,,,
10,1747400801500,0.92,0.56,0.67,-105.65,19.96,110.41
11,1747400801510,0.92,0.56,0.67,-105.65,19.96,110.41
12,1747400801520,,,,,,
13,1747400801530,0.92,0.56,0.67,-105.65,19.96,110.41
14,1747400801540,0.47,0.5,0.37,-121.64,-29.48,86.12
15,1747400801550,,,,,,
16,1747400801560,0.47,0.5,0.37,-121.64,-29.48,86.12
17,1747400801570,0.18,0.77,-0.14,-19.71,-8.67,102.72
18,1747400801580,0.18,0.77,-0.14,-19.71,-8.67,102.72
19,1747400801590,0.18,0.77,-0.14,-19.71,-8.67,102.72
20,1747400801600,-0.06,0.71,-0.15,-76.66,37.41,55.42
21,1747400801610,-0.06,0.71,-0.15,-76.66,37.41,55.42
22,1747400801620,-0.06,0.71,-0.15,-76.66,37.41,55.42
23,1747400801630,-0.06,0.71,-0.15,-76.66,37.41,55.42
24,1747400801640,0.21,0.76,-0.09,-82.09,-18.25,28.5
25,1747400801650,0.21,0.76,-0.09,-82.09,-18.25,28.5
26,1747400801660,0.21,0.76,-0.09,-82.09,-18.25,28.5
27,1747400801670,0.21,0.76,-0.09,-82.09,-18.25,28.5
28,1747400801680,0.76,0.72,0.29,-119.38,16.36,30.82
29,1747400801690,0.76,0.72,0.29,-119.38,16.36,30.82
30,1747400801700,0.76,0.72,0.29,-119.38,16.36,30.82
31,1747400801710,0.76,0.72,0.29,-119.38,16.36,30.82
32,1747400801720,0.76,0.39,0.31,-53.28,11.66,-44.25
33,1747400801730,0.76,0.39,0.31,-53.28,11.66,-44.25
34,1747400801740,0.76,0.39,0.31,-53.28,11.66,-44.25
35,1747400801750,0.76,0.39,0.31,-53.28,11.66,-44.25
36,1747400801760,1.05,0.08,0.18,47.61,84.29,-89.84
37,1747400801770,1.05,0.08,0.18,47.61,84.29,-89.84
38,1747400801780,1.05,0.08,0.18,47.61,84.29,-89.84
39,1747400801790,1.05,0.08,0.18,47.61,84.29,-89.84
40,1747400801800,1.47,0.24,0.69,200.38,75.74,-145.87
41,1747400801810,1.47,0.24,0.69,200.38,75.74,-145.87
42,1747400801820,1.47,0.24,0.69,200.38,75.74,-145.87
43,1747400801830,1.47,0.24,0.69,200.38,75.74,-145.87
44,1747400801840,1.47,0.24,0.69,200.38,75.74,-145.87
45,1747400801850,1.28,0.48,1.05,376.46,64.45,-193.6
46,1747400801860,1.28,0.48,1.05,376.46,64.45,-193.6
47,1747400801870,1.28,0.48,1.05,376.46,64.45,-193.6
48,1747400801880,1.47,0.63,0.9,264.89,-9.64,-166.02
49,1747400801890,1.47,0.63,0.9,264.89,-9.64,-166.02
50,1747400801900,1.47,0.63,0.9,264.89,-9.64,-166.02
51,1747400801910,1.205,0.26,0.78,264.89,-9.64,-166.02
52,1747400801920,0.94,-0.11,0.66,213.2,93.32,-101.62
53,1747400801930,0.94,-0.11,0.66,213.2,93.32,-101.62
54,1747400801940,0.94,-0.11,0.66,213.2,93.32,-101.62
55,1747400801950,0.55,-0.35,0.62,213.2,93.32,-101.62
56,1747400801960,0.55,-0.35,0.62,156.01,15.08,-71.59
57,1747400801970,0.55,-0.35,0.62,156.01,15.08,-71.59
58,1747400801980,0.55,-0.35,0.62,156.01,15.08,-71.59
59,1747400801990,0.85,-0.71,0.65,97.26,-24.96,-76.05000000000001
60,1747400802000,0.85,-0.71,0.65,38.51,-65.0,-80.51
61,1747400802010,0.85,-0.71,0.65,38.51,-65.0,-80.51
62,1747400802020,0.85,-0.71,0.65,38.51,-65.0,-80.51
63,1747400802030,1.17,-0.86,0.95,8.0,22.4,-12.88
64,1747400802040,1.17,-0.86,0.95,8.0,22.4,-12.88
65,1747400802050,1.17,-0.86,0.95,8.0,22.4,-12.88
66,1747400802060,1.17,-0.86,0.95,8.0,22.4,-12.88
67,1747400802070,1.42,-0.675,1.385,-17.635,-28.685,10.529999999999998
68,1747400802080,1.67,-0.49,1.82,-43.27,-79.77,33.94
69,1747400802090,1.67,-0.49,1.82,-43.27,-79.77,33.94
70,1747400802100,1.67,-0.49,1.82,-43.27,-79.77,33.94
71,1747400802110,2.39,-0.11,1.64,-225.65,-142.7,97.9
72,1747400802120,2.39,-0.11,1.64,-225.65,-142.7,97.9
73,1747400802130,2.39,-0.11,1.64,-225.65,-142.7,97.9
74,1747400802140,2.39,-0.11,1.64,-225.65,-142.7,97.9
75,1747400802150,2.17,0.46,1.42,-231.87,-130.74,181.03
76,1747400802160,2.17,0.46,1.42,-231.87,-130.74,181.03
77,1747400802170,2.17,0.46,1.42,-231.87,-130.74,181.03
78,1747400802180,2.17,0.46,1.42,-231.87,-130.74,181.03
79,1747400802190,2.02,0.59,1.03,-189.51,-199.46,178.65
80,1747400802200,2.02,0.59,1.03,-189.51,-199.46,178.65
81,1747400802210,2.02,0.59,1.03,-189.51,-199.46,178.65
82,1747400802220,1.54,0.88,0.63,-112.3,-143.74,183.65
83,1747400802230,1.54,0.88,0.63,-112.3,-143.74,183.65
84,1747400802240,1.54,0.88,0.63,-112.3,-143.74,183.65
85,1747400802250,1.54,0.88,0.63,-112.3,-143.74,183.65
86,1747400802260,0.53,0.78,0.41,-112.3,-143.74,183.65
87,1747400802270,0.53,0.78,0.41,-81.36,0.49,201.6
88,1747400802280,0.53,0.78,0.41,-81.36,0.49,201.6
89,1747400802290,0.53,0.78,0.41,-81.36,0.49,201.6
90,1747400802300,-0.08,0.71,0.09,-81.755,-12.785,187.285
91,1747400802310,-0.08,0.71,0.09,-82.15,-26.06,172.97
92,1747400802320,-0.08,0.71,0.09,-82.15,-26.06,172.97
93,1747400802330,-0.32,0.75,-0.07,-82.15,-26.06,172.97
94,1747400802340,-0.32,0.75,-0.07,-59.57,-62.74,112.43
95,1747400802350,-0.32,0.75,-0.07,-59.57,-62.74,112.43
96,1747400802360,-0.32,0.75,-0.07,-59.57,-62.74,112.43
97,1747400802370,-0.215,0.7949999999999999,-0.075,-59.57,-62.74,112.43
98,1747400802380,-0.11,0.84,-0.08,-46.33,-61.16,55.05
99,1747400802390,-0.11,0.84,-0.08,-46.33,-61.16,55.05
100,1747400802400,-0.11,0.84,-0.08,-46.33,-61.16,55.05
101,1747400802410,-0.11,0.84,-0.08,-46.33,-61.16,55.05
102,1747400802420,0.18,0.83,-0.17,-36.93,10.93,7.14
103,1747400802430,0.18,0.83,-0.17,-36.93,10.93,7.14
104,1747400802440,0.18,0.83,-0.17,-36.93,10.93,7.14
105,1747400802450,0.395,0.735,-0.06,2.805,22.585,-22.705
106,1747400802460,0.61,0.64,0.05,42.54,34.24,-52.55
107,1747400802470,0.61,0.64,0.05,42.54,34.24,-52.55
108,1747400802480,0.61,0.64,0.05,42.54,34.24,-52.55
109,1747400802490,1.08,0.48,-0.03,42.54,34.24,-52.55
110,1747400802500,1.08,0.48,-0.03,-9.7,15.26,-135.01
111,1747400802510,1.08,0.48,-0.03,-9.7,15.26,-135.01
112,1747400802520,1.08,0.48,-0.03,-9.7,15.26,-135.01
113,1747400802530,1.57,0.21,-0.12,114.56,124.88,-185.85
114,1747400802540,1.57,0.21,-0.12,114.56,124.88,-185.85
115,1747400802550,1.57,0.21,-0.12,114.56,124.88,-185.85
116,1747400802560,1.57,0.21,-0.12,114.56,124.88,-185.85
117,1747400802570,1.7,0.65,0.49,114.56,124.88,-185.85
118,1747400802580,1.7,0.65,0.49,309.51,152.1,-244.38
119,1747400802590,1.7,0.65,0.49,309.51,152.1,-244.38
120,1747400802600,1.7,0.65,0.49,309.51,152.1,-244.38
121,1747400802610,1.93,0.84,0.97,295.65,50.84,-235.47
122,1747400802620,1.93,0.84,0.97,295.65,50.84,-235.47
123,1747400802630,1.93,0.84,0.97,295.65,50.84,-235.47
124,1747400802640,1.69,0.495,0.84,253.08,92.19,-205.105
125,1747400802650,1.45,0.15,0.71,210.51,133.54,-174.74
126,1747400802660,1.45,0.15,0.71,210.51,133.54,-174.74
127,1747400802670,1.45,0.15,0.71,210.51,133.54,-174.74
128,1747400802680,1.04,-0.135,0.6699999999999999,188.875,131.865,-140.32
129,1747400802690,0.63,-0.42,0.63,167.24,130.19,-105.9
130,1747400802700,0.63,-0.42,0.63,167.24,130.19,-105.9
131,1747400802710,0.63,-0.42,0.63,167.24,130.19,-105.9
132,1747400802720,0.61,-0.51,0.64,114.99,66.01,-100.83
133,1747400802730,0.59,-0.6,0.65,62.74,1.83,-95.76
134,1747400802740,0.59,-0.6,0.65,62.74,1.83,-95.76
135,1747400802750,0.59,-0.6,0.65,62.74,1.83,-95.76
136,1747400802760,1.09,-0.83,0.8,14.22,50.35,-36.99
137,1747400802770,1.09,-0.83,0.8,14.22,50.35,-36.99
138,1747400802780,1.09,-0.83,0.8,14.22,50.35,-36.99
139,1747400802790,1.3050000000000002,-0.675,1.245,14.22,50.35,-36.99
140,1747400802800,1.52,-0.52,1.69,-33.87,23.19,32.84
141,1747400802810,1.52,-0.52,1.69,-33.87,23.19,32.84
142,1747400802820,1.52,-0.52,1.69,-33.87,23.19,32.84
143,1747400802830,1.52,-0.52,1.69,-33.87,23.19,32.84
144,1747400802840,2.31,0.04,1.97,-184.57,-69.76,112.92
145,1747400802850,2.31,0.04,1.97,-184.57,-69.76,112.92
146,1747400802860,2.31,0.04,1.97,-184.57,-69.76,112.92
147,1747400802870,2.255,0.395,1.84,-230.985,-61.31,145.51
148,1747400802880,2.2,0.75,1.71,-277.4,-52.86,178.1
149,1747400802890,2.2,0.75,1.71,-277.4,-52.86,178.1
150,1747400802900,2.2,0.75,1.71,-277.4,-52.86,178.1
151,1747400802910,2.2,0.75,1.71,-277.4,-52.86,178.1
152,1747400802920,2.09,0.75,1.17,-271.18,-161.13,182.25
153,1747400802930,2.09,0.75,1.17,-271.18,-161.13,182.25
154,1747400802940,2.09,0.75,1.17,-271.18,-161.13,182.25
155,1747400802950,1.95,0.815,0.97,-223.39,-169.58499999999998,185.7
156,1747400802960,1.81,0.88,0.77,-175.6,-178.04,189.15
157,1747400802970,1.81,0.88,0.77,-175.6,-178.04,189.15
158,1747400802980,1.81,0.88,0.77,-175.6,-178.04,189.15
159,1747400802990,1.36,0.87,0.635,-147.43,-150.575,204.53
160,1747400803000,0.91,0.86,0.5,-119.26,-123.11,219.91
161,1747400803010,0.91,0.86,0.5,-119.26,-123.11,219.91
162,1747400803020,0.91,0.86,0.5,-119.26,-123.11,219.91
163,1747400803030,0.28,0.85,0.16,-111.76,-107.18,200.56
164,1747400803040,0.28,0.85,0.16,-111.76,-107.18,200.56
165,1747400803050,0.28,0.85,0.16,-111.76,-107.18,200.56
166,1747400803060,0.28,0.85,0.16,-111.76,-107.18,200.56
167,1747400803070,-0.16,0.83,-0.05,-81.67,-44.98,165.41
168,1747400803080,-0.16,0.83,-0.05,-81.67,-44.98,165.41
169,1747400803090,-0.16,0.83,-0.05,-81.67,-44.98,165.41
170,1747400803100,-0.26,0.7849999999999999,-0.15,-81.67,-44.98,165.41
171,1747400803110,-0.36,0.74,-0.25,-67.26,-44.25,96.56
172,1747400803120,-0.36,0.74,-0.25,-67.26,-44.25,96.56
173,1747400803130,-0.36,0.74,-0.25,-67.26,-44.25,96.56
174,1747400803140,-0.36,0.74,-0.25,-67.26,-44.25,96.56
175,1747400803150,-0.3,0.56,-0.41,-35.46,-57.56,32.65
176,1747400803160,-0.3,0.56,-0.41,-35.46,-57.56,32.65
177,1747400803170,-0.3,0.56,-0.41,-35.46,-57.56,32.65
178,1747400803180,-0.3,0.56,-0.41,-35.46,-57.56,32.65
179,1747400803190,0.13,0.57,-0.21,55.24,40.89,-16.24
180,1747400803200,0.13,0.57,-0.21,55.24,40.89,-16.24
181,1747400803210,0.13,0.57,-0.21,55.24,40.89,-16.24
182,1747400803220,0.265,0.485,-0.13,27.1,79.8,-69.005
183,1747400803230,0.4,0.4,-0.05,-1.04,118.71,-121.77
184,1747400803240,0.4,0.4,-0.05,-1.04,118.71,-121.77
185,1747400803250,0.4,0.4,-0.05,-1.04,118.71,-121.77
186,1747400803260,1.15,0.18,-0.16,36.99,94.85,-194.58
187,1747400803270,1.15,0.18,-0.16,36.99,94.85,-194.58
188,1747400803280,1.15,0.18,-0.16,36.99,94.85,-194.58
189,1747400803290,1.15,0.18,-0.16,36.99,94.85,-194.58
190,1747400803300,1.69,0.67,0.34,215.58,113.83,-298.46
191,1747400803310,1.69,0.67,0.34,215.58,113.83,-298.46
192,1747400803320,1.69,0.67,0.34,215.58,113.83,-298.46
193,1747400803330,1.975,0.755,0.54,215.58,113.83,-298.46
194,1747400803340,2.26,0.84,0.74,225.16,58.47,-295.59
195,1747400803350,2.26,0.84,0.74,225.16,58.47,-295.59
196,1747400803360,2.26,0.84,0.74,225.16,58.47,-295.59
197,1747400803370,1.94,0.665,0.78,232.485,109.285,-256.805
198,1747400803380,1.62,0.49,0.82,239.81,160.1,-218.02
199,1747400803390,1.62,0.49,0.82,239.81,160.1,-218.02
200,1747400803400,1.62,0.49,0.82,239.81,160.1,-218.02
201,1747400803410,1.44,0.245,0.83,210.115,117.34,-204.5
202,1747400803420,1.26,0.0,0.84,180.42,74.58,-190.98
203,1747400803430,1.26,0.0,0.84,180.42,74.58,-190.98
204,1747400803440,1.26,0.0,0.84,180.42,74.58,-190.98
205,1747400803450,1.03,-0.5,0.7,140.23,76.595,-163.515
206,1747400803460,1.03,-0.5,0.7,100.04,78.61,-136.05
207,1747400803470,1.03,-0.5,0.7,100.04,78.61,-136.05
208,1747400803480,1.03,-0.5,0.7,100.04,78.61,-136.05
209,1747400803490,0.87,-0.71,0.65,72.97,69.12,-100.1
210,1747400803500,0.87,-0.71,0.65,45.9,59.63,-64.15
211,1747400803510,0.87,-0.71,0.65,45.9,59.63,-64.15
212,1747400803520,0.87,-0.71,0.65,45.9,59.63,-64.15
213,1747400803530,1.32,-0.92,0.86,13.855,42.45,-38.485
214,1747400803540,1.32,-0.92,0.86,-18.19,25.27,-12.82
215,1747400803550,1.32,-0.92,0.86,-18.19,25.27,-12.82
216,1747400803560,1.64,-0.67,1.245,-18.19,25.27,-12.82
217,1747400803570,1.96,-0.42,1.63,-63.66,-21.67,96.98
218,1747400803580,1.96,-0.42,1.63,-63.66,-21.67,96.98
219,1747400803590,1.96,-0.42,1.63,-63.66,-21.67,96.98
220,1747400803600,2.01,-0.1249999999999999,1.625,-145.51,-41.75,121.58
221,1747400803610,2.06,0.17,1.62,-227.36,-61.83,146.18
222,1747400803620,2.06,0.17,1.62,-227.36,-61.83,146.18
223,1747400803630,2.06,0.17,1.62,-227.36,-61.83,146.18
224,1747400803640,2.1100000000000003,0.295,1.455,-232.7,-98.055,167.32999999999998
225,1747400803650,2.16,0.42,1.29,-238.04,-134.28,188.48
226,1747400803660,2.16,0.42,1.29,-238.04,-134.28,188.48
227,1747400803670,2.16,0.42,1.29,-238.04,-134.28,188.48
228,1747400803680,2.17,0.515,1.21,-207.37,-159.275,185.76
229,1747400803690,2.18,0.61,1.13,-176.7,-184.27,183.04
230,1747400803700,2.18,0.61,1.13,-176.7,-184.27,183.04
231,1747400803710,2.18,0.61,1.13,-176.7,-184.27,183.04
232,1747400803720,1.55,0.64,0.76,-143.49,-92.41,203.67
233,1747400803730,1.55,0.64,0.76,-143.49,-92.41,203.67
234,1747400803740,1.55,0.64,0.76,-143.49,-92.41,203.67
235,1747400803750,1.55,0.64,0.76,-143.49,-92.41,203.67
236,1747400803760,0.68,0.64,0.43,-146.73,-17.94,214.42
237,1747400803770,0.68,0.64,0.43,-146.73,-17.94,214.42
238,1747400803780,0.68,0.64,0.43,-146.73,-17.94,214.42
239,1747400803790,0.43,0.71,0.28,-146.73,-17.94,214.42
240,1747400803800,0.18,0.78,0.13,-147.22,-49.62,183.9
241,1747400803810,0.18,0.78,0.13,-147.22,-49.62,183.9
242,1747400803820,0.18,0.78,0.13,-147.22,-49.62,183.9
243,1747400803830,0.18,0.78,0.13,-147.22,-49.62,183.9
244,1747400803840,-0.01,0.69,-0.14,-125.67,-94.24,124.21
245,1747400803850,-0.01,0.69,-0.14,-125.67,-94.24,124.21
246,1747400803860,-0.01,0.69,-0.14,-125.67,-94.24,124.21
247,1747400803870,-0.01,0.69,-0.14,-125.67,-94.24,124.21
248,1747400803880,0.06,0.62,-0.17,-64.03,-83.13,94.06
249,1747400803890,0.06,0.62,-0.17,-64.03,-83.13,94.06
250,1747400803900,0.06,0.62,-0.17,-64.03,-83.13,94.06
251,1747400803910,0.105,0.69,-0.155,-37.205,-61.495,64.915
252,1747400803920,0.15,0.76,-0.14,-10.38,-39.86,35.77
253,1747400803930,0.15,0.76,-0.14,-10.38,-39.86,35.77
254,1747400803940,0.15,0.76,-0.14,-10.38,-39.86,35.77
255,1747400803950,0.36,0.67,-0.06,4.58,-17.03,-8.24
256,1747400803960,0.36,0.67,-0.06,4.58,-17.03,-8.24
257,1747400803970,0.36,0.67,-0.06,4.58,-17.03,-8.24
258,1747400803980,0.36,0.67,-0.06,4.58,-17.03,-8.24
259,1747400803990,0.48,0.515,-0.095,14.895,32.105,-53.805
260,1747400804000,0.6,0.36,-0.13,25.21,81.24,-99.37
261,1747400804010,0.6,0.36,-0.13,25.21,81.24,-99.37
262,1747400804020,0.6,0.36,-0.13,25.21,81.24,-99.37
263,1747400804030,0.91,0.26,-0.1,127.69,123.47,-203.86
264,1747400804040,0.91,0.26,-0.1,127.69,123.47,-203.86
265,1747400804050,0.91,0.26,-0.1,127.69,123.47,-203.86
266,1747400804060,0.91,0.26,-0.1,127.69,123.47,-203.86
267,1747400804070,1.38,0.64,0.4,295.65,200.38,-272.83
268,1747400804080,1.38,0.64,0.4,295.65,200.38,-272.83
269,1747400804090,1.38,0.64,0.4,295.65,200.38,-272.83
270,1747400804100,1.64,0.8300000000000001,0.7150000000000001,295.65,200.38,-272.83
271,1747400804110,1.9,1.02,1.03,308.04,50.84,-293.46
272,1747400804120,1.9,1.02,1.03,308.04,50.84,-293.46
273,1747400804130,1.9,1.02,1.03,308.04,50.84,-293.46
274,1747400804140,1.88,0.71,0.99,276.67,91.58,-253.785
275,1747400804150,1.86,0.4,0.95,245.3,132.32,-214.11
276,1747400804160,1.86,0.4,0.95,245.3,132.32,-214.11
277,1747400804170,1.86,0.4,0.95,245.3,132.32,-214.11
278,1747400804180,1.475,0.03,0.815,218.29,151.12,-171.57
279,1747400804190,1.09,-0.34,0.68,191.28,169.92,-129.03
280,1747400804200,1.09,-0.34,0.68,191.28,169.92,-129.03
281,1747400804210,1.09,-0.34,0.68,191.28,169.92,-129.03
282,1747400804220,0.79,-0.6,0.72,153.99,118.47,-67.02
283,1747400804230,0.79,-0.6,0.72,153.99,118.47,-67.02
284,1747400804240,0.79,-0.6,0.72,153.99,118.47,-67.02
285,1747400804250,0.79,-0.6,0.72,153.99,118.47,-67.02
286,1747400804260,0.855,-0.7849999999999999,0.83,104.31,78.615,-53.745
287,1747400804270,0.92,-0.97,0.94,54.63,38.76,-40.47
288,1747400804280,0.92,-0.97,0.94,54.63,38.76,-40.47
289,1747400804290,0.92,-0.97,0.94,54.63,38.76,-40.47
290,1747400804300,1.64,-0.98,1.47,-14.22,-51.45,17.46
291,1747400804310,1.64,-0.98,1.47,-14.22,-51.45,17.46
292,1747400804320,1.64,-0.98,1.47,-14.22,-51.45,17.46
293,1747400804330,1.64,-0.98,1.47,-14.22,-51.45,17.46
294,1747400804340,2.09,-0.24,1.95,-117.0,-60.49,128.3
295,1747400804350,2.09,-0.24,1.95,-117.0,-60.49,128.3
296,1747400804360,2.09,-0.24,1.95,-117.0,-60.49,128.3
297,1747400804370,2.09,-0.24,1.95,-117.0,-60.49,128.3
298,1747400804380,2.28,0.22,1.86,-240.78,-67.99,163.82
299,1747400804390,2.28,0.22,1.86,-240.78,-67.99,163.82
300,1747400804400,2.28,0.22,1.86,-240.78,-67.99,163.82
301,1747400804410,2.28,0.22,1.86,-240.78,-67.99,163.82
302,1747400804420,2.38,0.56,1.55,-245.785,-118.805,176.85
303,1747400804430,2.38,0.56,1.55,-250.79,-169.62,189.88
304,1747400804440,2.38,0.56,1.55,-250.79,-169.62,189.88
305,1747400804450,1.88,0.75,0.91,-248.625,-151.765,200.195
306,1747400804460,1.88,0.75,0.91,-246.46,-133.91,210.51
307,1747400804470,1.88,0.75,0.91,-246.46,-133.91,210.51
308,1747400804480,1.88,0.75,0.91,-246.46,-133.91,210.51
309,1747400804490,1.415,0.735,0.7150000000000001,-234.985,-105.345,218.66
310,1747400804500,0.95,0.72,0.52,-223.51,-76.78,226.81
311,1747400804510,0.95,0.72,0.52,-223.51,-76.78,226.81
312,1747400804520,0.6499999999999999,0.71,0.4,-223.51,-76.78,226.81
313,1747400804530,0.35,0.7,0.28,-231.51,-116.39,210.45
314,1747400804540,0.35,0.7,0.28,-231.51,-116.39,210.45
315,1747400804550,0.35,0.7,0.28,-231.51,-116.39,210.45
316,1747400804560,0.235,0.6699999999999999,0.21,-221.13,-145.05,192.14
317,1747400804570,0.12,0.64,0.14,-210.75,-173.71,173.83
318,1747400804580,0.12,0.64,0.14,-210.75,-173.71,173.83
319,1747400804590,0.12,0.64,0.14,-210.75,-173.71,173.83
320,1747400804600,0.14,0.5800000000000001,0.09,-202.91,-175.66000000000005,158.51
321,1747400804610,0.16,0.52,0.04,-195.07,-177.61,143.19
322,1747400804620,0.16,0.52,0.04,-195.07,-177.61,143.19
323,1747400804630,0.16,0.52,0.04,-195.07,-177.61,143.19
324,1747400804640,0.16,0.52,0.04,-195.07,-177.61,143.19
325,1747400804650,0.08,0.49,-0.29,-146.55,-13.79,55.3
326,1747400804660,0.08,0.49,-0.29,-146.55,-13.79,55.3
327,1747400804670,0.08,0.49,-0.29,-146.55,-13.79,55.3
328,1747400804680,0.165,0.515,-0.245,-84.595,-27.065,19.075
329,1747400804690,0.25,0.54,-0.2,-22.64,-40.34,-17.15
330,1747400804700,0.25,0.54,-0.2,-22.64,-40.34,-17.15
331,1747400804710,0.25,0.54,-0.2,-22.64,-40.34,-17.15
332,1747400804720,0.39,0.56,-0.22,-22.64,-40.34,-17.15
333,1747400804730,0.53,0.58,-0.24,0.49,-35.1,-15.26
334,1747400804740,0.53,0.58,-0.24,0.49,-35.1,-15.26
335,1747400804750,0.53,0.58,-0.24,0.49,-35.1,-15.26
336,1747400804760,0.45,0.44,-0.43,57.37,157.78,-113.83
337,1747400804770,0.45,0.44,-0.43,57.37,157.78,-113.83
338,1747400804780,0.45,0.44,-0.43,57.37,157.78,-113.83
339,1747400804790,0.545,0.4,-0.425,57.37,157.78,-113.83
340,1747400804800,0.64,0.36,-0.42,142.09,200.68,-209.47
341,1747400804810,0.64,0.36,-0.42,142.09,200.68,-209.47
342,1747400804820,0.64,0.36,-0.42,142.09,200.68,-209.47
343,1747400804830,0.8700000000000001,0.635,-0.0799999999999999,214.965,228.575,-250.09
344,1747400804840,1.1,0.91,0.26,287.84,256.47,-290.71
345,1747400804850,1.1,0.91,0.26,287.84,256.47,-290.71
346,1747400804860,1.1,0.91,0.26,287.84,256.47,-290.71
347,1747400804870,1.515,0.99,0.47,254.15,157.625,-315.67499999999995
348,1747400804880,1.93,1.07,0.68,220.46,58.78,-340.64
349,1747400804890,1.93,1.07,0.68,220.46,58.78,-340.64
350,1747400804900,1.93,1.07,0.68,220.46,58.78,-340.64
351,1747400804910,1.82,0.52,0.51,203.98,144.04,-274.29
352,1747400804920,1.82,0.52,0.51,203.98,144.04,-274.29
353,1747400804930,1.82,0.52,0.51,203.98,144.04,-274.29
354,1747400804940,1.82,0.52,0.51,203.98,144.04,-274.29
355,1747400804950,1.27,0.03,0.48,203.98,144.04,-274.29
356,1747400804960,1.27,0.03,0.48,190.98,137.39,-198.24
357,1747400804970,1.27,0.03,0.48,190.98,137.39,-198.24
358,1747400804980,1.27,0.03,0.48,190.98,137.39,-198.24
359,1747400804990,1.12,-0.53,0.5,132.14,124.51,-141.85
360,1747400805000,1.12,-0.53,0.5,132.14,124.51,-141.85
361,1747400805010,1.12,-0.53,0.5,132.14,124.51,-141.85
362,1747400805020,1.12,-0.53,0.5,132.14,124.51,-141.85
363,1747400805030,1.66,-0.91,1.01,117.67499999999998,108.4,-110.02
364,1747400805040,1.66,-0.91,1.01,103.21,92.29,-78.19
365,1747400805050,1.66,-0.91,1.01,103.21,92.29,-78.19
366,1747400805060,1.66,-0.91,1.01,103.21,92.29,-78.19
367,1747400805070,2.67,-0.87,1.57,-18.8,-109.92,18.68
368,1747400805080,2.67,-0.87,1.57,-18.8,-109.92,18.68
369,1747400805090,2.67,-0.87,1.57,-18.8,-109.92,18.68
370,1747400805100,2.78,-0.63,1.55,-63.6,-78.49000000000001,98.605
371,1747400805110,2.89,-0.39,1.53,-108.4,-47.06,178.53
372,1747400805120,2.89,-0.39,1.53,-108.4,-47.06,178.53
373,1747400805130,2.89,-0.39,1.53,-108.4,-47.06,178.53
374,1747400805140,2.75,-0.0549999999999999,1.535,-129.67000000000002,-53.315,216.46
375,1747400805150,2.61,0.28,1.54,-150.94,-59.57,254.39
376,1747400805160,2.61,0.28,1.54,-150.94,-59.57,254.39
377,1747400805170,2.61,0.28,1.54,-150.94,-59.57,254.39
378,1747400805180,2.23,0.63,1.14,-187.99,-72.63,266.3
379,1747400805190,2.23,0.63,1.14,-187.99,-72.63,266.3
380,1747400805200,2.23,0.63,1.14,-187.99,-72.63,266.3
381,1747400805210,2.23,0.63,1.14,-187.99,-72.63,266.3
382,1747400805220,1.6,0.75,0.84,-154.6,-81.6,280.4
383,1747400805230,1.6,0.75,0.84,-154.6,-81.6,280.4
384,1747400805240,1.6,0.75,0.84,-154.6,-81.6,280.4
385,1747400805250,1.25,0.925,0.825,-167.54,-43.575,295.535
386,1747400805260,0.9,1.1,0.81,-180.48,-5.55,310.67
387,1747400805270,0.9,1.1,0.81,-180.48,-5.55,310.67
388,1747400805280,0.9,1.1,0.81,-180.48,-5.55,310.67
389,1747400805290,0.5800000000000001,1.295,0.625,-180.48,-5.55,310.67
390,1747400805300,0.26,1.49,0.44,-292.79,-28.69,257.32
391,1747400805310,0.26,1.49,0.44,-292.79,-28.69,257.32
392,1747400805320,0.26,1.49,0.44,-292.79,-28.69,257.32
393,1747400805330,0.155,1.24,0.15,-317.66,-60.795,210.02
394,1747400805340,0.05,0.99,-0.14,-342.53,-92.9,162.72
395,1747400805350,0.05,0.99,-0.14,-342.53,-92.9,162.72
396,1747400805360,0.05,0.99,-0.14,-342.53,-92.9,162.72
397,1747400805370,0.05,0.99,-0.14,-342.53,-92.9,162.72
398,1747400805380,-0.1,0.48,-0.36,-227.29,-86.79,117.31
399,1747400805390,-0.1,0.48,-0.36,-227.29,-86.79,117.31
400,1747400805400,-0.1,0.48,-0.36,-227.29,-86.79,117.31
401,1747400805410,0.01,0.61,-0.43,-123.11,-59.02,-0.79
402,1747400805420,0.01,0.61,-0.43,-123.11,-59.02,-0.79
403,1747400805430,0.01,0.61,-0.43,-123.11,-59.02,-0.79
404,1747400805440,0.01,0.61,-0.43,-123.11,-59.02,-0.79
405,1747400805450,0.46,0.5,-0.53,-26.37,34.24,-41.44
406,1747400805460,0.46,0.5,-0.53,-26.37,34.24,-41.44
407,1747400805470,0.46,0.5,-0.53,-26.37,34.24,-41.44
408,1747400805480,0.46,0.5,-0.53,-26.37,34.24,-41.44
409,1747400805490,0.35,0.41,-0.45,139.77,196.96,-85.21
410,1747400805500,0.35,0.41,-0.45,139.77,196.96,-85.21
411,1747400805510,0.35,0.41,-0.45,139.77,196.96,-85.21
412,1747400805520,0.485,0.4549999999999999,-0.335,139.77,196.96,-85.21
413,1747400805530,0.62,0.5,-0.22,242.0,167.66,-210.57
414,1747400805540,0.62,0.5,-0.22,242.0,167.66,-210.57
415,1747400805550,0.62,0.5,-0.22,242.0,167.66,-210.57
416,1747400805560,1.035,0.735,0.175,306.21000000000004,137.45,-241.09
417,1747400805570,1.45,0.97,0.57,370.42,107.24,-271.61
418,1747400805580,1.45,0.97,0.57,370.42,107.24,-271.61
419,1747400805590,1.45,0.97,0.57,370.42,107.24,-271.61
420,1747400805600,1.54,0.97,0.725,351.135,124.85,-271.485
421,1747400805610,1.63,0.97,0.88,331.85,142.46,-271.36
422,1747400805620,1.63,0.97,0.88,331.85,142.46,-271.36
423,1747400805630,1.63,0.97,0.88,331.85,142.46,-271.36
424,1747400805640,1.65,0.5,0.91,300.23,98.45,-238.16
425,1747400805650,1.65,0.5,0.91,300.23,98.45,-238.16
426,1747400805660,1.65,0.5,0.91,300.23,98.45,-238.16
427,1747400805670,1.65,0.5,0.91,300.23,98.45,-238.16
428,1747400805680,1.16,-0.07,0.98,282.925,118.075,-197.05
429,1747400805690,1.16,-0.07,0.98,265.62,137.7,-155.94
430,1747400805700,1.16,-0.07,0.98,265.62,137.7,-155.94
431,1747400805710,0.98,-0.255,1.015,222.29,121.98,-140.315
432,1747400805720,0.8,-0.44,1.05,178.96,106.26,-124.69
433,1747400805730,0.8,-0.44,1.05,178.96,106.26,-124.69
434,1747400805740,0.8,-0.44,1.05,178.96,106.26,-124.69
435,1747400805750,0.8,-0.44,1.05,178.96,106.26,-124.69
436,1747400805760,1.04,-0.86,1.13,129.76,85.08,-67.14
437,1747400805770,1.04,-0.86,1.13,129.76,85.08,-67.14
438,1747400805780,1.04,-0.86,1.13,129.76,85.08,-67.14
439,1747400805790,1.245,-0.835,1.395,82.11999999999999,40.19,-59.97
440,1747400805800,1.45,-0.81,1.66,34.48,-4.7,-52.8
441,1747400805810,1.45,-0.81,1.66,34.48,-4.7,-52.8
442,1747400805820,1.45,-0.81,1.66,34.48,-4.7,-52.8
443,1747400805830,2.59,-0.73,1.79,-89.17,-126.04,42.24
444,1747400805840,2.59,-0.73,1.79,-89.17,-126.04,42.24
445,1747400805850,2.59,-0.73,1.79,-89.17,-126.04,42.24
446,1747400805860,2.7,-0.385,1.9,-89.17,-126.04,42.24
447,1747400805870,2.81,-0.04,2.01,-159.0,16.36,170.78
448,1747400805880,2.81,-0.04,2.01,-159.0,16.36,170.78
449,1747400805890,2.81,-0.04,2.01,-159.0,16.36,170.78
450,1747400805900,2.81,-0.04,2.01,-159.0,16.36,170.78
451,1747400805910,2.31,0.44,1.63,-254.88,-45.65,199.58
452,1747400805920,2.31,0.44,1.63,-254.88,-45.65,199.58
453,1747400805930,2.31,0.44,1.63,-254.88,-45.65,199.58
454,1747400805940,1.89,0.73,1.02,-254.88,-45.65,199.58
455,1747400805950,1.89,0.73,1.02,-291.2,-68.91,207.95
456,1747400805960,1.89,0.73,1.02,-291.2,-68.91,207.95
457,1747400805970,1.89,0.73,1.02,-291.2,-68.91,207.95
458,1747400805980,1.6,0.7749999999999999,0.74,-294.405,-71.045,218.445
459,1747400805990,1.31,0.82,0.46,-297.61,-73.18,228.94
460,1747400806000,1.31,0.82,0.46,-297.61,-73.18,228.94
461,1747400806010,1.31,0.82,0.46,-297.61,-73.18,228.94
462,1747400806020,,,,,,
463,1747400806030,0.74,0.94,0.28,-258.67,-37.23,235.66
464,1747400806040,0.74,0.94,0.28,-258.67,-37.23,235.66
465,1747400806050,0.74,0.94,0.28,-258.67,-37.23,235.66
466,1747400806060,0.2,0.88,0.15,-247.13,-60.49,204.65
467,1747400806070,0.2,0.88,0.15,-247.13,-60.49,204.65
468,1747400806080,0.2,0.88,0.15,-247.13,-60.49,204.65
469,1747400806090,0.2,0.88,0.15,-247.13,-60.49,204.65
470,1747400806100,-0.06,0.53,-0.12,-228.09,-92.65,140.93
471,1747400806110,-0.06,0.53,-0.12,-228.09,-92.65,140.93
472,1747400806120,-0.06,0.53,-0.12,-228.09,-92.65,140.93
473,1747400806130,-0.06,0.53,-0.12,-228.09,-92.65,140.93
474,1747400806140,-0.04,0.4,-0.32,-152.4,-88.81,22.83
475,1747400806150,-0.04,0.4,-0.32,-152.4,-88.81,22.83
476,1747400806160,-0.04,0.4,-0.32,-152.4,-88.81,22.83
477,1747400806170,0.26,0.435,-0.19,-91.52,-105.53,-3.905000000000001
478,1747400806180,0.56,0.47,-0.06,-30.64,-122.25,-30.64
479,1747400806190,0.56,0.47,-0.06,-30.64,-122.25,-30.64
480,1747400806200,0.56,0.47,-0.06,-30.64,-122.25,-30.64
481,1747400806210,0.56,0.47,-0.06,-30.64,-122.25,-30.64
482,1747400806220,0.68,0.5,0.05,29.48,-6.04,-52.06
483,1747400806230,0.68,0.5,0.05,29.48,-6.04,-52.06
484,1747400806240,0.68,0.5,0.05,29.48,-6.04,-52.06
485,1747400806250,0.6100000000000001,0.4,0.025,68.175,44.585,-80.655
486,1747400806260,0.54,0.3,0.0,106.87,95.21,-109.25
487,1747400806270,0.54,0.3,0.0,106.87,95.21,-109.25
488,1747400806280,0.54,0.3,0.0,106.87,95.21,-109.25
489,1747400806290,0.6100000000000001,0.365,0.04,158.265,124.63,-150.36
490,1747400806300,0.68,0.43,0.08,209.66,154.05,-191.47
491,1747400806310,0.68,0.43,0.08,209.66,154.05,-191.47
492,1747400806320,0.68,0.43,0.08,209.66,154.05,-191.47
493,1747400806330,0.875,0.62,0.29,258.73,147.675,-227.935
494,1747400806340,1.07,0.81,0.5,307.8,141.3,-264.4
495,1747400806350,1.07,0.81,0.5,307.8,141.3,-264.4
496,1747400806360,1.07,0.81,0.5,307.8,141.3,-264.4
497,1747400806370,1.77,0.75,0.74,276.73,38.76,-262.76
498,1747400806380,1.77,0.75,0.74,276.73,38.76,-262.76
499,1747400806390,1.77,0.75,0.74,276.73,38.76,-262.76
500,1747400806400,1.69,0.53,0.65,276.73,38.76,-262.76
501,1747400806410,1.61,0.31,0.56,254.09,128.97,-193.6
502,1747400806420,1.61,0.31,0.56,254.09,128.97,-193.6
503,1747400806430,1.61,0.31,0.56,254.09,128.97,-193.6
504,1747400806440,1.61,0.31,0.56,254.09,128.97,-193.6
505,1747400806450,0.99,-0.12,0.52,236.27,192.32,-116.52
506,1747400806460,0.99,-0.12,0.52,236.27,192.32,-116.52
507,1747400806470,0.99,-0.12,0.52,236.27,192.32,-116.52
508,1747400806480,0.99,-0.12,0.52,236.27,192.32,-116.52
509,1747400806490,0.81,-0.35,0.72,214.11,173.58,-80.63
510,1747400806500,0.81,-0.35,0.72,214.11,173.58,-80.63
511,1747400806510,0.81,-0.35,0.72,214.11,173.58,-80.63
512,1747400806520,1.17,-0.91,1.41,144.35,55.48,-86.61
513,1747400806530,1.17,-0.91,1.41,144.35,55.48,-86.61
514,1747400806540,1.17,-0.91,1.41,144.35,55.48,-86.61
515,1747400806550,1.17,-0.91,1.41,144.35,55.48,-86.61
516,1747400806560,2.35,-1.11,2.13,42.11,-65.73,-21.0
517,1747400806570,2.35,-1.11,2.13,42.11,-65.73,-21.0
518,1747400806580,2.35,-1.11,2.13,42.11,-65.73,-21.0
519,1747400806590,2.35,-1.11,2.13,42.11,-65.73,-21.0
520,1747400806600,2.43,-0.8350000000000001,2.155,-40.805,-28.380000000000003,57.400000000000006
521,1747400806610,2.51,-0.56,2.18,-123.72,8.97,135.8
522,1747400806620,2.51,-0.56,2.18,-123.72,8.97,135.8
523,1747400806630,2.51,-0.56,2.18,-123.72,8.97,135.8
524,1747400806640,2.09,-0.05,1.84,-213.07,-69.64,191.1
525,1747400806650,2.09,-0.05,1.84,-213.07,-69.64,191.1
526,1747400806660,2.09,-0.05,1.84,-213.07,-69.64,191.1
527,1747400806670,2.09,-0.05,1.84,-213.07,-69.64,191.1
528,1747400806680,2.01,0.19,1.29,-236.33,-111.82,218.63
529,1747400806690,2.01,0.19,1.29,-236.33,-111.82,218.63
530,1747400806700,2.01,0.19,1.29,-236.33,-111.82,218.63
531,1747400806710,1.715,0.315,1.04,-236.33,-111.82,218.63
532,1747400806720,1.42,0.44,0.79,-240.23,-156.98,235.05
533,1747400806730,1.42,0.44,0.79,-240.23,-156.98,235.05
534,1747400806740,1.42,0.44,0.79,-240.23,-156.98,235.05
535,1747400806750,1.03,0.71,0.42,-239.805,-143.095,250.95
536,1747400806760,1.03,0.71,0.42,-239.38,-129.21,266.85
537,1747400806770,1.03,0.71,0.42,-239.38,-129.21,266.85
538,1747400806780,1.03,0.71,0.42,-239.38,-129.21,266.85
539,1747400806790,0.725,0.88,0.3349999999999999,-244.14,-87.43,260.38
540,1747400806800,0.42,1.05,0.25,-248.9,-45.65,253.91
541,1747400806810,0.42,1.05,0.25,-248.9,-45.65,253.91
542,1747400806820,0.42,1.05,0.25,-248.9,-45.65,253.91
543,1747400806830,0.2299999999999999,0.89,0.125,-243.1,-77.45,213.045
544,1747400806840,0.04,0.73,0.0,-237.3,-109.25,172.18
545,1747400806850,0.04,0.73,0.0,-237.3,-109.25,172.18
546,1747400806860,0.04,0.73,0.0,-237.3,-109.25,172.18
547,1747400806870,-0.08,0.54,-0.31,-213.375,-121.245,118.805
548,1747400806880,-0.08,0.54,-0.31,-189.45,-133.24,65.43
549,1747400806890,-0.08,0.54,-0.31,-189.45,-133.24,65.43
550,1747400806900,-0.08,0.54,-0.31,-189.45,-133.24,65.43
551,1747400806910,0.46,0.47,-0.3,-84.72,-73.36,-20.2
552,1747400806920,0.46,0.47,-0.3,-84.72,-73.36,-20.2
553,1747400806930,0.46,0.47,-0.3,-84.72,-73.36,-20.2
554,1747400806940,0.46,0.47,-0.3,-84.72,-73.36,-20.2
555,1747400806950,0.47,0.57,-0.24,22.64,23.25,6.47
556,1747400806960,0.47,0.57,-0.24,22.64,23.25,6.47
557,1747400806970,0.47,0.57,-0.24,22.64,23.25,6.47
558,1747400806980,0.47,0.57,-0.24,22.64,23.25,6.47
559,1747400806990,0.55,0.32,-0.15,47.36,75.03999999999999,-35.49
560,1747400807000,0.55,0.32,-0.15,72.08,126.83,-77.45
561,1747400807010,0.55,0.32,-0.15,72.08,126.83,-77.45
562,1747400807020,0.585,0.285,-0.19,116.7,155.485,-113.035
563,1747400807030,0.62,0.25,-0.23,161.32,184.14,-148.62
564,1747400807040,0.62,0.25,-0.23,161.32,184.14,-148.62
565,1747400807050,0.62,0.25,-0.23,161.32,184.14,-148.62
566,1747400807060,0.6799999999999999,0.415,-0.03,233.25,210.08,-179.17000000000002
567,1747400807070,0.74,0.58,0.17,305.18,236.02,-209.72
568,1747400807080,0.74,0.58,0.17,305.18,236.02,-209.72
569,1747400807090,0.74,0.58,0.17,305.18,236.02,-209.72
570,1747400807100,1.22,0.87,0.82,334.66,86.24,-262.02
571,1747400807110,1.22,0.87,0.82,334.66,86.24,-262.02
572,1747400807120,1.22,0.87,0.82,334.66,86.24,-262.02
573,1747400807130,1.22,0.87,0.82,334.66,86.24,-262.02
574,1747400807140,1.76,0.38,0.83,244.02,44.43,-224.49
575,1747400807150,1.76,0.38,0.83,244.02,44.43,-224.49
576,1747400807160,1.76,0.38,0.83,244.02,44.43,-224.49
577,1747400807170,1.76,0.38,0.83,244.02,44.43,-224.49
578,1747400807180,1.26,-0.03,0.62,228.94,121.77,-153.75
579,1747400807190,1.26,-0.03,0.62,228.94,121.77,-153.75
580,1747400807200,1.26,-0.03,0.62,228.94,121.77,-153.75
581,1747400807210,1.26,-0.03,0.62,228.94,121.77,-153.75
582,1747400807220,1.06,-0.33,0.66,216.95,134.035,-129.12
583,1747400807230,1.06,-0.33,0.66,204.96,146.3,-104.49
584,1747400807240,1.06,-0.33,0.66,204.96,146.3,-104.49
585,1747400807250,1.065,-0.625,0.8999999999999999,185.7,135.77,-96.71
586,1747400807260,1.07,-0.92,1.14,166.44,125.24,-88.93
587,1747400807270,1.07,-0.92,1.14,166.44,125.24,-88.93
588,1747400807280,1.07,-0.92,1.14,166.44,125.24,-88.93
589,1747400807290,1.58,-0.98,1.7199999999999998,166.44,125.24,-88.93
590,1747400807300,2.09,-1.04,2.3,81.67,-68.54,-46.02
591,1747400807310,2.09,-1.04,2.3,81.67,-68.54,-46.02
592,1747400807320,2.09,-1.04,2.3,81.67,-68.54,-46.02
593,1747400807330,2.365,-0.865,2.39,-7.994999999999997,-73.42500000000001,7.109999999999999
594,1747400807340,2.64,-0.69,2.48,-97.66,-78.31,60.24
595,1747400807350,2.64,-0.69,2.48,-97.66,-78.31,60.24
596,1747400807360,2.64,-0.69,2.48,-97.66,-78.31,60.24
597,1747400807370,2.36,-0.14,1.95,-192.2,-81.36,156.43
598,1747400807380,2.36,-0.14,1.95,-192.2,-81.36,156.43
599,1747400807390,2.36,-0.14,1.95,-192.2,-81.36,156.43
600,1747400807400,2.36,-0.14,1.95,-192.2,-81.36,156.43
601,1747400807410,1.8,0.24,1.3,-219.6,-60.67,205.2
602,1747400807420,1.8,0.24,1.3,-219.6,-60.67,205.2
603,1747400807430,1.8,0.24,1.3,-219.6,-60.67,205.2
604,1747400807440,1.49,0.38,1.035,-231.015,-52.31,208.22
605,1747400807450,1.18,0.52,0.77,-242.43,-43.95,211.24
606,1747400807460,1.18,0.52,0.77,-242.43,-43.95,211.24
607,1747400807470,1.18,0.52,0.77,-242.43,-43.95,211.24
608,1747400807480,0.905,0.625,0.595,-254.395,-48.405,214.505
609,1747400807490,0.63,0.73,0.42,-266.36,-52.86,217.77
610,1747400807500,0.63,0.73,0.42,-266.36,-52.86,217.77
611,1747400807510,0.63,0.73,0.42,-266.36,-52.86,217.77
612,1747400807520,0.395,0.855,0.26,-287.905,-47.915,197.72
613,1747400807530,0.16,0.98,0.1,-309.45,-42.97,177.67
614,1747400807540,0.16,0.98,0.1,-309.45,-42.97,177.67
615,1747400807550,0.16,0.98,0.1,-309.45,-42.97,177.67
616,1747400807560,-0.05,0.52,-0.28,-282.04,-94.12,103.45
617,1747400807570,-0.05,0.52,-0.28,-282.04,-94.12,103.45
618,1747400807580,-0.05,0.52,-0.28,-282.04,-94.12,103.45
619,1747400807590,-0.05,0.52,-0.28,-282.04,-94.12,103.45
620,1747400807600,0.2,0.48,-0.21,-143.13,-68.97,11.6
621,1747400807610,0.2,0.48,-0.21,-143.13,-68.97,11.6
622,1747400807620,0.2,0.48,-0.21,-143.13,-68.97,11.6
623,1747400807630,0.4,0.615,-0.0349999999999999,-99.275,-91.735,-2.9300000000000006
624,1747400807640,0.6,0.75,0.14,-55.42,-114.5,-17.46
625,1747400807650,0.6,0.75,0.14,-55.42,-114.5,-17.46
626,1747400807660,0.6,0.75,0.14,-55.42,-114.5,-17.46
627,1747400807670,0.675,0.7150000000000001,0.09,-24.66,-70.31,-37.75
628,1747400807680,0.75,0.68,0.04,6.1,-26.12,-58.04
629,1747400807690,0.75,0.68,0.04,6.1,-26.12,-58.04
630,1747400807700,0.75,0.68,0.04,6.1,-26.12,-58.04
631,1747400807710,0.755,0.5700000000000001,0.03,6.1,-26.12,-58.04
632,1747400807720,0.76,0.46,0.02,94.91,154.6,-97.66
633,1747400807730,0.76,0.46,0.02,94.91,154.6,-97.66
634,1747400807740,0.76,0.46,0.02,94.91,154.6,-97.66
635,1747400807750,0.84,0.49,0.12,137.725,180.905,-137.73000000000002
636,1747400807760,0.84,0.49,0.12,180.54,207.21,-177.8
637,1747400807770,0.84,0.49,0.12,180.54,207.21,-177.8
638,1747400807780,0.84,0.49,0.12,180.54,207.21,-177.8
639,1747400807790,0.955,0.605,0.335,241.21,203.395,-194.43
640,1747400807800,1.07,0.72,0.55,301.88,199.58,-211.06
641,1747400807810,1.07,0.72,0.55,301.88,199.58,-211.06
642,1747400807820,1.07,0.72,0.55,301.88,199.58,-211.06
643,1747400807830,1.39,0.83,1.0,282.105,129.055,-220.095
644,1747400807840,1.39,0.83,1.0,262.33,58.53,-229.13
645,1747400807850,1.39,0.83,1.0,262.33,58.53,-229.13
646,1747400807860,1.38,0.5449999999999999,0.8400000000000001,228.06,79.435,-205.78
647,1747400807870,1.37,0.26,0.68,193.79,100.34,-182.43
648,1747400807880,1.37,0.26,0.68,193.79,100.34,-182.43
649,1747400807890,1.37,0.26,0.68,193.79,100.34,-182.43
650,1747400807900,1.37,0.26,0.68,193.79,100.34,-182.43
651,1747400807910,1.04,-0.05,0.44,185.97,111.08,-112.85
652,1747400807920,1.04,-0.05,0.44,185.97,111.08,-112.85
653,1747400807930,1.04,-0.05,0.44,185.97,111.08,-112.85
654,1747400807940,0.955,-0.13,0.48,179.04500000000002,112.885,-90.39
655,1747400807950,0.87,-0.21,0.52,172.12,114.69,-67.93
656,1747400807960,0.87,-0.21,0.52,172.12,114.69,-67.93
657,1747400807970,0.87,-0.21,0.52,172.12,114.69,-67.93
658,1747400807980,1.08,-0.68,0.83,157.195,112.645,-58.32000000000001
659,1747400807990,1.08,-0.68,0.83,142.27,110.6,-48.71
660,1747400808000,1.08,-0.68,0.83,142.27,110.6,-48.71
661,1747400808010,1.08,-0.68,0.83,142.27,110.6,-48.71
662,1747400808020,1.75,-0.89,1.77,92.16,4.27,-8.67
663,1747400808030,1.75,-0.89,1.77,92.16,4.27,-8.67
664,1747400808040,1.75,-0.89,1.77,92.16,4.27,-8.67
665,1747400808050,1.75,-0.89,1.77,92.16,4.27,-8.67
666,1747400808060,2.49,-0.7,2.25,-39.49,-77.7,62.62
667,1747400808070,2.49,-0.7,2.25,-39.49,-77.7,62.62
668,1747400808080,2.49,-0.7,2.25,-39.49,-77.7,62.62
669,1747400808090,2.49,-0.7,2.25,-39.49,-77.7,62.62
670,1747400808100,2.55,-0.01,2.21,-137.94,-104.06,156.31
671,1747400808110,2.55,-0.01,2.21,-137.94,-104.06,156.31
672,1747400808120,2.55,-0.01,2.21,-137.94,-104.06,156.31
673,1747400808130,2.305,0.16,1.87,-186.525,-83.37,172.39499999999998
674,1747400808140,2.06,0.33,1.53,-235.11,-62.68,188.48
675,1747400808150,2.06,0.33,1.53,-235.11,-62.68,188.48
676,1747400808160,2.06,0.33,1.53,-235.11,-62.68,188.48
677,1747400808170,2.06,0.33,1.53,-235.11,-62.68,188.48
678,1747400808180,1.43,0.66,0.85,-239.32,-91.98,201.05
679,1747400808190,1.43,0.66,0.85,-239.32,-91.98,201.05
680,1747400808200,1.43,0.66,0.85,-239.32,-91.98,201.05
681,1747400808210,1.1,0.745,0.575,-243.35,-85.39,205.23
682,1747400808220,0.77,0.83,0.3,-247.38,-78.8,209.41
683,1747400808230,0.77,0.83,0.3,-247.38,-78.8,209.41
684,1747400808240,0.77,0.83,0.3,-247.38,-78.8,209.41
685,1747400808250,0.26,0.92,0.11,-240.91,-91.19,202.455
686,1747400808260,0.26,0.92,0.11,-234.44,-103.58,195.5
687,1747400808270,0.26,0.92,0.11,-234.44,-103.58,195.5
688,1747400808280,0.26,0.92,0.11,-234.44,-103.58,195.5
689,1747400808290,0.09,0.72,-0.03,-200.56,-116.94,150.45
690,1747400808300,0.09,0.72,-0.03,-200.56,-116.94,150.45
691,1747400808310,0.09,0.72,-0.03,-200.56,-116.94,150.45
692,1747400808320,0.09,0.72,-0.03,-200.56,-116.94,150.45
693,1747400808330,0.16,0.69,-0.05,-155.21,-109.25,79.28
694,1747400808340,0.16,0.69,-0.05,-155.21,-109.25,79.28
695,1747400808350,0.16,0.69,-0.05,-155.21,-109.25,79.28
696,1747400808360,0.295,0.71,-0.025,-109.985,-96.985,59.81
697,1747400808370,0.43,0.73,0.0,-64.76,-84.72,40.34
698,1747400808380,0.43,0.73,0.0,-64.76,-84.72,40.34
699,1747400808390,0.43,0.73,0.0,-64.76,-84.72,40.34
700,1747400808400,0.52,0.77,-0.01,-11.23,9.77,1.4
701,1747400808410,0.52,0.77,-0.01,-11.23,9.77,1.4
702,1747400808420,0.52,0.77,-0.01,-11.23,9.77,1.4
703,1747400808430,0.52,0.77,-0.01,-11.23,9.77,1.4
704,1747400808440,0.49,0.535,-0.13,21.82,58.14,-20.145
705,1747400808450,0.46,0.3,-0.25,54.87,106.51,-41.69
706,1747400808460,0.46,0.3,-0.25,54.87,106.51,-41.69
707,1747400808470,0.46,0.3,-0.25,54.87,106.51,-41.69
708,1747400808480,0.59,0.29,-0.12,128.6,116.15,-100.435
709,1747400808490,0.59,0.29,-0.12,202.33,125.79,-159.18
710,1747400808500,0.59,0.29,-0.12,202.33,125.79,-159.18
711,1747400808510,0.59,0.29,-0.12,202.33,125.79,-159.18
712,1747400808520,1.2,0.7,0.39,336.0,183.78,-252.32
713,1747400808530,1.2,0.7,0.39,336.0,183.78,-252.32
714,1747400808540,1.2,0.7,0.39,336.0,183.78,-252.32
715,1747400808550,1.28,0.82,0.625,354.86,162.11,-248.87
716,1747400808560,1.36,0.94,0.86,373.72,140.44,-245.42
717,1747400808570,1.36,0.94,0.86,373.72,140.44,-245.42
718,1747400808580,1.36,0.94,0.86,373.72,140.44,-245.42
719,1747400808590,1.395,0.715,0.915,345.92,125.7,-234.86
720,1747400808600,1.43,0.49,0.97,318.12,110.96,-224.3
721,1747400808610,1.43,0.49,0.97,318.12,110.96,-224.3
722,1747400808620,1.43,0.49,0.97,318.12,110.96,-224.3
723,1747400808630,1.43,0.49,0.97,318.12,110.96,-224.3
724,1747400808640,1.28,-0.04,0.99,243.71,95.34,-140.38
725,1747400808650,1.28,-0.04,0.99,243.71,95.34,-140.38
726,1747400808660,1.28,-0.04,0.99,243.71,95.34,-140.38
727,1747400808670,0.94,-0.48,0.92,135.86,113.28,-85.39
728,1747400808680,0.94,-0.48,0.92,135.86,113.28,-85.39
729,1747400808690,0.94,-0.48,0.92,135.86,113.28,-85.39
730,1747400808700,0.94,-0.665,0.91,135.86,113.28,-85.39
731,1747400808710,0.94,-0.85,0.9,64.21,96.68,-36.5
732,1747400808720,0.94,-0.85,0.9,64.21,96.68,-36.5
733,1747400808730,0.94,-0.85,0.9,64.21,96.68,-36.5
734,1747400808740,0.94,-0.85,0.9,64.21,96.68,-36.5
735,1747400808750,,,,,,
736,1747400808760,1.26,-0.81,1.45,42.05,19.78,-15.69
737,1747400808770,1.69,-0.65,1.765,-15.690000000000005,-44.37,-1.2249999999999996
738,1747400808780,2.12,-0.49,2.08,-73.43,-108.52,13.24
739,1747400808790,2.12,-0.49,2.08,-73.43,-108.52,13.24
740,1747400808800,2.12,-0.49,2.08,-73.43,-108.52,13.24
741,1747400808810,2.45,0.09,2.18,-158.57,-98.75,104.55
742,1747400808820,2.45,0.09,2.18,-158.57,-98.75,104.55
743,1747400808830,2.45,0.09,2.18,-158.57,-98.75,104.55
744,1747400808840,2.45,0.09,2.18,-158.57,-98.75,104.55
745,1747400808850,2.3200000000000003,0.355,1.98,-187.105,-108.67,127.105
746,1747400808860,2.19,0.62,1.78,-215.64,-118.59,149.66
747,1747400808870,2.19,0.62,1.78,-215.64,-118.59,149.66
748,1747400808880,2.19,0.62,1.78,-215.64,-118.59,149.66
749,1747400808890,1.77,0.83,1.08,-237.43,-104.98,194.15
750,1747400808900,1.77,0.83,1.08,-237.43,-104.98,194.15
751,1747400808910,1.77,0.83,1.08,-237.43,-104.98,194.15
752,1747400808920,1.77,0.83,1.08,-237.43,-104.98,194.15
753,1747400808930,0.97,0.96,0.61,-235.78,-49.715,219.88
754,1747400808940,0.97,0.96,0.61,-234.13,5.55,245.61
755,1747400808950,0.97,0.96,0.61,-234.13,5.55,245.61
756,1747400808960,0.62,0.975,0.445,-234.13,5.55,245.61
757,1747400808970,0.27,0.99,0.28,-265.38,12.21,225.71
758,1747400808980,0.27,0.99,0.28,-265.38,12.21,225.71
759,1747400808990,0.27,0.99,0.28,-265.38,12.21,225.71
760,1747400809000,0.115,0.91,0.165,-257.96500000000003,-6.955,195.83
761,1747400809010,-0.04,0.83,0.05,-250.55,-26.12,165.95
762,1747400809020,-0.04,0.83,0.05,-250.55,-26.12,165.95
763,1747400809030,-0.04,0.83,0.05,-250.55,-26.12,165.95
764,1747400809040,-0.16,0.56,-0.15,-198.06,-32.59,86.24
765,1747400809050,-0.16,0.56,-0.15,-198.06,-32.59,86.24
766,1747400809060,-0.16,0.56,-0.15,-198.06,-32.59,86.24
767,1747400809070,-0.16,0.56,-0.15,-198.06,-32.59,86.24
768,1747400809080,-0.11,0.56,-0.2299999999999999,-164.70499999999998,-35.885000000000005,31.22
769,1747400809090,-0.06,0.56,-0.31,-131.35,-39.18,-23.8
770,1747400809100,-0.06,0.56,-0.31,-131.35,-39.18,-23.8
771,1747400809110,-0.06,0.56,-0.31,-131.35,-39.18,-23.8
772,1747400809120,0.2,0.66,-0.22,-69.55,-83.86,-27.645
773,1747400809130,0.46,0.76,-0.13,-7.75,-128.54,-31.49
774,1747400809140,0.46,0.76,-0.13,-7.75,-128.54,-31.49
775,1747400809150,0.46,0.76,-0.13,-7.75,-128.54,-31.49
776,1747400809160,0.46,0.76,-0.13,-7.75,-128.54,-31.49
777,1747400809170,0.61,0.79,-0.035,18.83,-57.955,-67.595
778,1747400809180,0.76,0.82,0.06,45.41,12.63,-103.7
779,1747400809190,0.825,0.71,0.115,45.41,12.63,-103.7
780,1747400809200,0.89,0.6,0.17,124.51,108.09,-145.57
781,1747400809210,0.89,0.6,0.17,124.51,108.09,-145.57
782,1747400809220,0.89,0.6,0.17,124.51,108.09,-145.57
783,1747400809230,0.89,0.6,0.17,124.51,108.09,-145.57
784,1747400809240,1.13,0.71,0.38,240.97,183.47,-224.98
785,1747400809250,1.13,0.71,0.38,240.97,183.47,-224.98
786,1747400809260,1.13,0.71,0.38,240.97,183.47,-224.98
787,1747400809270,1.58,1.05,0.89,297.91,83.07,-238.95
788,1747400809280,1.58,1.05,0.89,297.91,83.07,-238.95
789,1747400809290,1.58,1.05,0.89,297.91,83.07,-238.95
790,1747400809300,1.58,1.05,0.89,297.91,83.07,-238.95
791,1747400809310,1.71,0.63,0.79,257.2,97.84,-197.2
792,1747400809320,1.71,0.63,0.79,257.2,97.84,-197.2
793,1747400809330,1.71,0.63,0.79,257.2,97.84,-197.2
794,1747400809340,1.71,0.63,0.79,257.2,97.84,-197.2
795,1747400809350,1.19,0.22,0.61,234.68,160.22,-123.47
796,1747400809360,1.19,0.22,0.61,234.68,160.22,-123.47
797,1747400809370,1.19,0.22,0.61,234.68,160.22,-123.47
798,1747400809380,1.19,0.22,0.61,234.68,160.22,-123.47
799,1747400809390,0.71,-0.06,0.59,215.88,145.75,-68.6
800,1747400809400,0.71,-0.06,0.59,215.88,145.75,-68.6
801,1747400809410,0.71,-0.06,0.59,215.88,145.75,-68.6
802,1747400809420,0.6599999999999999,-0.24,0.6,192.075,134.245,-64.44999999999999
803,1747400809430,0.61,-0.42,0.61,168.27,122.74,-60.3
804,1747400809440,0.61,-0.42,0.61,168.27,122.74,-60.3
805,1747400809450,0.61,-0.42,0.61,168.27,122.74,-60.3
806,1747400809460,0.885,-0.475,0.95,153.99,96.1,-56.73
807,1747400809470,1.16,-0.53,1.29,139.71,69.46,-53.16
808,1747400809480,1.16,-0.53,1.29,139.71,69.46,-53.16
809,1747400809490,1.16,-0.53,1.29,139.71,69.46,-53.16
810,1747400809500,2.46,-0.49,2.19,-15.81,-80.32,-11.41
811,1747400809510,2.46,-0.49,2.19,-15.81,-80.32,-11.41
812,1747400809520,2.46,-0.49,2.19,-15.81,-80.32,-11.41
813,1747400809530,2.46,-0.49,2.19,-15.81,-80.32,-11.41
814,1747400809540,2.46,-0.49,2.19,-15.81,-80.32,-11.41
815,1747400809550,2.32,-0.01,2.48,-123.72,7.63,93.08
816,1747400809560,2.32,-0.01,2.48,-123.72,7.63,93.08
817,1747400809570,2.32,-0.01,2.48,-123.72,7.63,93.08
818,1747400809580,1.86,0.48,2.01,-218.38,-139.1,112.24
819,1747400809590,1.86,0.48,2.01,-218.38,-139.1,112.24
820,1747400809600,1.86,0.48,2.01,-218.38,-139.1,112.24
821,1747400809610,1.86,0.48,2.01,-218.38,-139.1,112.24
822,1747400809620,1.68,0.61,1.31,-260.93,-134.83,150.39
823,1747400809630,1.68,0.61,1.31,-260.93,-134.83,150.39
824,1747400809640,1.68,0.61,1.31,-260.93,-134.83,150.39
825,1747400809650,1.415,0.6499999999999999,1.05,-260.93,-134.83,150.39
826,1747400809660,1.15,0.69,0.79,-256.59,-59.39,214.42
827,1747400809670,1.15,0.69,0.79,-256.59,-59.39,214.42
828,1747400809680,1.15,0.69,0.79,-256.59,-59.39,214.42
829,1747400809690,0.865,0.74,0.61,-261.26,-46.115,232.3
830,1747400809700,0.58,0.79,0.43,-265.93,-32.84,250.18
831,1747400809710,0.58,0.79,0.43,-265.93,-32.84,250.18
832,1747400809720,0.58,0.79,0.43,-265.93,-32.84,250.18
833,1747400809730,0.375,0.78,0.31,-249.605,-36.135000000000005,238.125
834,1747400809740,0.17,0.77,0.19,-233.28,-39.43,226.07
835,1747400809750,0.17,0.77,0.19,-233.28,-39.43,226.07
836,1747400809760,0.17,0.77,0.19,-233.28,-39.43,226.07
837,1747400809770,0.1,0.78,0.14,-206.27,-69.67,186.005
838,1747400809780,0.03,0.79,0.09,-179.26,-99.91,145.94
839,1747400809790,0.03,0.79,0.09,-179.26,-99.91,145.94
840,1747400809800,0.03,0.79,0.09,-179.26,-99.91,145.94
841,1747400809810,0.29,0.76,0.03,-179.26,-99.91,145.94
842,1747400809820,0.29,0.76,0.03,-135.93,-125.37,76.29
843,1747400809830,0.29,0.76,0.03,-135.93,-125.37,76.29
844,1747400809840,0.29,0.76,0.03,-135.93,-125.37,76.29
845,1747400809850,0.44,0.82,0.17,-39.79,-111.08,32.35
846,1747400809860,0.44,0.82,0.17,-39.79,-111.08,32.35
847,1747400809870,0.44,0.82,0.17,-39.79,-111.08,32.35
848,1747400809880,0.44,0.82,0.17,-39.79,-111.08,32.35
849,1747400809890,0.69,0.78,0.18,-26.79,-78.765,7.445
850,1747400809900,0.69,0.78,0.18,-13.79,-46.45,-17.46
851,1747400809910,0.69,0.78,0.18,-13.79,-46.45,-17.46
852,1747400809920,0.69,0.78,0.18,-13.79,-46.45,-17.46
853,1747400809930,0.51,0.48,-0.01,52.06,97.41,-64.94
854,1747400809940,0.51,0.48,-0.01,52.06,97.41,-64.94
855,1747400809950,0.51,0.48,-0.01,52.06,97.41,-64.94
856,1747400809960,0.535,0.435,0.0,98.845,120.025,-129.365
857,1747400809970,0.56,0.39,0.01,145.63,142.64,-193.79
858,1747400809980,0.56,0.39,0.01,145.63,142.64,-193.79
859,1747400809990,0.56,0.39,0.01,145.63,142.64,-193.79
860,1747400810000,0.8150000000000001,0.6000000000000001,0.185,211.365,136.935,-226.32
861,1747400810010,1.07,0.81,0.36,277.1,131.23,-258.85
862,1747400810020,1.07,0.81,0.36,277.1,131.23,-258.85
863,1747400810030,1.07,0.81,0.36,277.1,131.23,-258.85
864,1747400810040,1.27,0.8600000000000001,0.5449999999999999,281.405,109.04,-256.38
865,1747400810050,1.47,0.91,0.73,285.71,86.85,-253.91
866,1747400810060,1.47,0.91,0.73,285.71,86.85,-253.91
867,1747400810070,1.47,0.91,0.73,285.71,86.85,-253.91
868,1747400810080,1.52,0.39,0.79,271.395,120.82,-222.81
869,1747400810090,1.52,0.39,0.79,257.08,154.79,-191.71
870,1747400810100,1.52,0.39,0.79,257.08,154.79,-191.71
871,1747400810110,,,,,,
872,1747400810120,1.11,0.02,0.88,217.53,192.08,-114.44
873,1747400810130,1.11,0.02,0.88,217.53,192.08,-114.44
874,1747400810140,1.11,0.02,0.88,217.53,192.08,-114.44
875,1747400810150,1.11,0.02,0.88,217.53,192.08,-114.44
876,1747400810160,0.83,-0.33,0.85,158.2,152.53,-79.59
877,1747400810170,0.83,-0.33,0.85,158.2,152.53,-79.59
878,1747400810180,0.83,-0.33,0.85,158.2,152.53,-79.59
879,1747400810190,0.83,-0.33,0.85,158.2,152.53,-79.59
880,1747400810200,1.08,-0.7,1.46,119.63,107.06,-50.35
881,1747400810210,1.08,-0.7,1.46,119.63,107.06,-50.35
882,1747400810220,1.08,-0.7,1.46,119.63,107.06,-50.35
883,1747400810230,1.08,-0.7,1.46,119.63,107.06,-50.35
884,1747400810240,1.72,-0.66,2.18,-12.88,-56.03,-46.57
885,1747400810250,1.72,-0.66,2.18,-12.88,-56.03,-46.57
886,1747400810260,1.72,-0.66,2.18,-12.88,-56.03,-46.57
887,1747400810270,2.14,-0.43,2.27,-12.88,-56.03,-46.57
888,1747400810280,2.14,-0.43,2.27,-120.12,-64.94,50.35
889,1747400810290,2.14,-0.43,2.27,-120.12,-64.94,50.35
890,1747400810300,2.14,-0.43,2.27,-120.12,-64.94,50.35
891,1747400810310,2.04,0.28,2.31,-182.01,-100.52,102.72
892,1747400810320,2.04,0.28,2.31,-182.01,-100.52,102.72
893,1747400810330,2.04,0.28,2.31,-182.01,-100.52,102.72
894,1747400810340,2.04,0.28,2.31,-182.01,-100.52,102.72
895,1747400810350,1.84,0.53,1.66,-274.9,-129.82,138.18
896,1747400810360,1.84,0.53,1.66,-274.9,-129.82,138.18
897,1747400810370,1.84,0.53,1.66,-274.9,-129.82,138.18
898,1747400810380,1.84,0.53,1.66,-274.9,-129.82,138.18
899,1747400810390,1.28,0.72,0.95,-276.55,-102.48,186.52
900,1747400810400,1.28,0.72,0.95,-276.55,-102.48,186.52
901,1747400810410,1.28,0.72,0.95,-276.55,-102.48,186.52
902,1747400810420,1.01,0.7849999999999999,0.7849999999999999,-276.55,-102.48,186.52
903,1747400810430,0.74,0.85,0.62,-268.68,-69.46,229.8
904,1747400810440,0.74,0.85,0.62,-268.68,-69.46,229.8
905,1747400810450,0.74,0.85,0.62,-268.68,-69.46,229.8
906,1747400810460,0.495,0.895,0.495,-268.68,-69.46,229.8
907,1747400810470,0.25,0.94,0.37,-273.38,-47.91,231.75
908,1747400810480,0.25,0.94,0.37,-273.38,-47.91,231.75
909,1747400810490,0.25,0.94,0.37,-273.38,-47.91,231.75
910,1747400810500,0.01,0.73,-0.02,-259.95,-80.75,198.545
911,1747400810510,0.01,0.73,-0.02,-246.52,-113.59,165.34
912,1747400810520,0.01,0.73,-0.02,-246.52,-113.59,165.34
913,1747400810530,0.01,0.73,-0.02,-246.52,-113.59,165.34
914,1747400810540,0.075,0.6499999999999999,-0.1149999999999999,-196.105,-123.72,129.12
915,1747400810550,0.14,0.57,-0.21,-145.69,-133.85,92.9
916,1747400810560,0.14,0.57,-0.21,-145.69,-133.85,92.9
917,1747400810570,0.14,0.57,-0.21,-145.69,-133.85,92.9
918,1747400810580,0.41,0.69,0.13,-81.36,-125.7,70.805
919,1747400810590,0.41,0.69,0.13,-17.03,-117.55,48.71
920,1747400810600,0.41,0.69,0.13,-17.03,-117.55,48.71
921,1747400810610,0.41,0.69,0.13,-17.03,-117.55,48.71
922,1747400810620,0.6,0.8,0.21,9.7,-52.06,-4.15
923,1747400810630,0.6,0.8,0.21,9.7,-52.06,-4.15
924,1747400810640,0.6,0.8,0.21,9.7,-52.06,-4.15
925,1747400810650,0.52,0.66,0.145,9.7,-52.06,-4.15
926,1747400810660,0.44,0.52,0.08,99.91,95.89,-66.65
927,1747400810670,0.44,0.52,0.08,99.91,95.89,-66.65
928,1747400810680,0.44,0.52,0.08,99.91,95.89,-66.65
929,1747400810690,0.44,0.49,0.095,133.175,97.9,-131.745
930,1747400810700,0.44,0.46,0.11,166.44,99.91,-196.84
931,1747400810710,0.44,0.46,0.11,166.44,99.91,-196.84
932,1747400810720,0.44,0.46,0.11,166.44,99.91,-196.84
933,1747400810730,0.44,0.46,0.11,166.44,99.91,-196.84
934,1747400810740,1.03,0.75,0.34,263.79,119.57,-278.32
935,1747400810750,1.03,0.75,0.34,263.79,119.57,-278.32
936,1747400810760,1.03,0.75,0.34,263.79,119.57,-278.32
937,1747400810770,1.2000000000000002,0.835,0.56,286.62,101.715,-279.235
938,1747400810780,1.37,0.92,0.78,309.45,83.86,-280.15
939,1747400810790,1.37,0.92,0.78,309.45,83.86,-280.15
940,1747400810800,1.37,0.92,0.78,309.45,83.86,-280.15
941,1747400810810,1.48,0.755,0.845,264.255,56.885,-264.25
942,1747400810820,1.59,0.59,0.91,219.06,29.91,-248.35
943,1747400810830,1.59,0.59,0.91,219.06,29.91,-248.35
944,1747400810840,1.59,0.59,0.91,219.06,29.91,-248.35
945,1747400810850,1.34,0.17,0.69,185.12,68.12,-180.85
946,1747400810860,1.34,0.17,0.69,185.12,68.12,-180.85
947,1747400810870,1.34,0.17,0.69,185.12,68.12,-180.85
948,1747400810880,1.34,0.17,0.69,185.12,68.12,-180.85
949,1747400810890,1.08,-0.07,0.79,142.58,76.42,-146.79
950,1747400810900,1.08,-0.07,0.79,142.58,76.42,-146.79
951,1747400810910,1.08,-0.07,0.79,142.58,76.42,-146.79
952,1747400810920,1.3050000000000002,-0.3299999999999999,0.925,142.58,76.42,-146.79
953,1747400810930,1.53,-0.59,1.06,70.31,27.83,-116.03
954,1747400810940,1.53,-0.59,1.06,70.31,27.83,-116.03
955,1747400810950,1.53,-0.59,1.06,70.31,27.83,-116.03
956,1747400810960,1.795,-0.605,1.475,48.4,49.315,-70.925
957,1747400810970,2.06,-0.62,1.89,26.49,70.8,-25.82
958,1747400810980,2.06,-0.62,1.89,26.49,70.8,-25.82
959,1747400810990,2.06,-0.62,1.89,26.49,70.8,-25.82
960,1747400811000,2.43,-0.42,2.21,-57.220000000000006,7.474999999999998,16.175
961,1747400811010,2.43,-0.42,2.21,-140.93,-55.85,58.17
962,1747400811020,2.43,-0.42,2.21,-140.93,-55.85,58.17
963,1747400811030,2.43,-0.42,2.21,-140.93,-55.85,58.17
964,1747400811040,2.515,-0.12,2.145,-170.5,-79.315,133.455
965,1747400811050,2.6,0.18,2.08,-200.07,-102.78,208.74
966,1747400811060,2.6,0.18,2.08,-200.07,-102.78,208.74
967,1747400811070,2.6,0.18,2.08,-200.07,-102.78,208.74
968,1747400811080,1.85,0.62,1.54,-236.66,-74.215,231.995
969,1747400811090,1.85,0.62,1.54,-273.25,-45.65,255.25
970,1747400811100,1.85,0.62,1.54,-273.25,-45.65,255.25
971,1747400811110,1.85,0.62,1.54,-273.25,-45.65,255.25
972,1747400811120,1.12,0.77,0.85,-263.61,-96.01,251.34
973,1747400811130,1.12,0.77,0.85,-263.61,-96.01,251.34
974,1747400811140,1.12,0.77,0.85,-263.61,-96.01,251.34
975,1747400811150,1.12,0.77,0.85,-263.61,-96.01,251.34
976,1747400811160,0.77,0.95,0.54,-237.0,-106.69,268.62
977,1747400811170,0.77,0.95,0.54,-237.0,-106.69,268.62
978,1747400811180,0.77,0.95,0.54,-237.0,-106.69,268.62
979,1747400811190,0.515,0.92,0.4,-237.0,-106.69,268.62
980,1747400811200,0.26,0.89,0.26,-218.14,-43.27,236.02
981,1747400811210,0.26,0.89,0.26,-218.14,-43.27,236.02
982,1747400811220,0.26,0.89,0.26,-218.14,-43.27,236.02
983,1747400811230,0.165,0.785,0.16,-197.42,-71.745,197.11
984,1747400811240,0.07,0.68,0.06,-176.7,-100.22,158.2
985,1747400811250,0.07,0.68,0.06,-176.69999999999996,-100.21999999999998,158.2
986,1747400811260,0.07,0.68,0.06,-176.7,-100.22,158.2
987,1747400811270,0.1,0.5,-0.23,-158.63,-128.48,109.07
988,1747400811280,0.1,0.5,-0.23,-158.63,-128.48,109.07
989,1747400811290,0.1,0.5,-0.23,-158.63,-128.48,109.07
990,1747400811300,0.1,0.5,-0.23,-158.63,-128.48,109.07
991,1747400811310,0.36,0.63,-0.21,-104.705,-103.06,62.865
992,1747400811320,0.36,0.63,-0.21,-50.78,-77.64,16.66
993,1747400811330,0.36,0.63,-0.21,-50.78,-77.64,16.66
994,1747400811340,0.36,0.63,-0.21,-50.78,-77.64,16.66
995,1747400811350,0.5,0.74,-0.14,8.24,-23.19,-36.62
996,1747400811360,0.5,0.74,-0.14,8.24,-23.19,-36.62
997,1747400811370,0.5,0.74,-0.14,8.24,-23.19,-36.62
998,1747400811380,0.375,0.65,-0.195,8.24,-23.19,-36.62
999,1747400811390,0.25,0.56,-0.25,87.16,99.91,-99.55
1000,1747400811400,0.25,0.56,-0.25,87.16,99.91,-99.55
