id,timestamp,acc_x,acc_y,acc_z,gyro_x,gyro_y,gyro_z
0,1747592080310,-0.34,-0.68,0.1,26.37,88.01,2.14
1,1747592080320,-0.36,-0.49,0.11,45.53,84.47,25.45
2,1747592080330,-0.36,-0.49,0.11,45.53,84.47,25.45
3,1747592080340,-0.36,-0.49,0.11,45.53,84.47,25.45
4,1747592080350,-0.36,-0.49,0.11,45.53,84.47,25.45
5,1747592080360,-0.94,-1.3,0.27,45.53,84.47,25.45
6,1747592080370,-0.94,-1.3,0.27,38.97,104.005,37.81
7,1747592080380,-0.94,-1.3,0.27,32.41,123.54,50.17
8,1747592080390,-0.94,-1.3,0.27,32.41,123.54,50.17
9,1747592080400,-1.86,-2.01,-0.02,80.14,273.68,207.09
10,1747592080410,-1.86,-2.01,-0.02,80.14,273.68,207.09
11,1747592080420,-1.86,-2.01,-0.02,80.14,273.68,207.09
12,1747592080430,-2.135,-1.985,-0.205,108.125,223.295,222.075
13,1747592080440,-2.41,-1.96,-0.39,136.11,172.91,237.06
14,1747592080450,-2.41,-1.96,-0.39,136.11,172.91,237.06
15,1747592080460,-2.41,-1.96,-0.39,136.11,172.91,237.06
16,1747592080470,-2.605,-2.135,-0.5800000000000001,121.49,42.695,221.65
17,1747592080480,-2.8,-2.31,-0.77,106.87,-87.52,206.24
18,1747592080490,-2.8,-2.31,-0.77,106.87,-87.52,206.24
19,1747592080500,-2.8,-2.31,-0.77,106.87,-87.52,206.24
20,1747592080510,-2.35,-2.29,-0.77,81.67,-135.44,249.57
21,1747592080520,-2.35,-2.29,-0.77,81.67,-135.44,249.57
22,1747592080530,-2.35,-2.29,-0.77,81.67,-135.44,249.57
23,1747592080540,-2.35,-2.29,-0.77,81.67,-135.44,249.57
24,1747592080550,-1.72,-1.93,-0.85,94.12,-53.96,275.39
25,1747592080560,-1.72,-1.93,-0.85,94.12,-53.96,275.39
26,1747592080570,-1.72,-1.93,-0.85,94.12,-53.96,275.39
27,1747592080580,-1.72,-1.93,-0.85,94.12,-53.96,275.39
28,1747592080590,-1.27,-1.54,-1.04,43.03,-88.07,320.31
29,1747592080600,-1.27,-1.54,-1.04,43.03,-88.07,320.31
30,1747592080610,-1.27,-1.54,-1.04,43.03,-88.07,320.31
31,1747592080620,-1.27,-1.54,-1.04,43.03,-88.07,320.31
32,1747592080630,-0.47,-1.6,-0.9,50.23,-139.34,364.07
33,1747592080640,-0.47,-1.6,-0.9,50.23,-139.34,364.07
34,1747592080650,-0.47,-1.6,-0.9,50.23,-139.34,364.07
35,1747592080660,-0.47,-1.6,-0.9,50.23,-139.34,364.07
36,1747592080670,-0.15,-1.73,-1.05,-34.0,-98.63,372.25
37,1747592080680,-0.15,-1.73,-1.05,-34.0,-98.63,372.25
38,1747592080690,-0.15,-1.73,-1.05,-34.0,-98.63,372.25
39,1747592080700,-0.12,-1.765,-0.955,-40.56,-99.85,368.225
40,1747592080710,-0.09,-1.8,-0.86,-47.12,-101.07,364.2
41,1747592080720,-0.09,-1.8,-0.86,-47.12,-101.07,364.2
42,1747592080730,-0.09,-1.8,-0.86,-47.12,-101.07,364.2
43,1747592080740,-0.075,-1.775,-0.965,-39.58,-113.43,368.015
44,1747592080750,-0.06,-1.75,-1.07,-32.04,-125.79,371.83
45,1747592080760,-0.06,-1.75,-1.07,-32.04,-125.79,371.83
46,1747592080770,-0.06,-1.75,-1.07,-32.04,-125.79,371.83
47,1747592080780,0.34,-1.63,-0.78,-94.85,-126.95,356.38
48,1747592080790,0.34,-1.63,-0.78,-94.85,-126.95,356.38
49,1747592080800,0.34,-1.63,-0.78,-94.85,-126.95,356.38
50,1747592080810,0.34,-1.63,-0.78,-94.85,-126.95,356.38
51,1747592080820,1.01,-0.85,0.08,-86.72999999999999,-148.345,318.905
52,1747592080830,1.01,-0.85,0.08,-78.61,-169.74,281.43
53,1747592080840,1.01,-0.85,0.08,-78.61,-169.74,281.43
54,1747592080850,1.01,-0.85,0.08,-78.61,-169.74,281.43
55,1747592080860,2.69,0.87,2.06,-15.26,-80.02,238.53
56,1747592080870,2.69,0.87,2.06,-15.26,-80.02,238.53
57,1747592080880,2.69,0.87,2.06,-15.26,-80.02,238.53
58,1747592080890,3.23,0.985,1.53,-15.26,-80.02,238.53
59,1747592080900,3.77,1.1,1.0,7.63,55.97,20.39
60,1747592080910,3.77,1.1,1.0,7.63,55.97,20.39
61,1747592080920,3.77,1.1,1.0,7.63,55.97,20.39
62,1747592080930,3.77,1.1,1.0,7.63,55.97,20.39
63,1747592080940,3.47,1.38,1.5,-66.71,211.73,-39.92
64,1747592080950,3.47,1.38,1.5,-66.71,211.73,-39.92
65,1747592080960,3.47,1.38,1.5,-66.71,211.73,-39.92
66,1747592080970,2.17,0.15,0.59,26.25,123.05,-205.63
67,1747592080980,2.17,0.15,0.59,26.25,123.05,-205.63
68,1747592080990,2.17,0.15,0.59,26.25,123.05,-205.63
69,1747592081000,2.17,0.15,0.59,26.25,123.05,-205.63
70,1747592081010,1.27,-1.19,-0.53,33.2,220.7,-282.04
71,1747592081020,1.27,-1.19,-0.53,33.2,220.7,-282.04
72,1747592081030,1.27,-1.19,-0.53,33.2,220.7,-282.04
73,1747592081040,1.27,-1.19,-0.53,33.2,220.7,-282.04
74,1747592081050,0.675,-1.615,-0.995,44.585,216.065,-321.99
75,1747592081060,0.08,-2.04,-1.46,55.97,211.43,-361.94
76,1747592081070,0.08,-2.04,-1.46,55.97,211.43,-361.94
77,1747592081080,0.08,-2.04,-1.46,55.97,211.43,-361.94
78,1747592081090,-0.66,-2.01,-1.81,32.23,230.22,-331.85
79,1747592081100,-0.66,-2.01,-1.81,32.23,230.22,-331.85
80,1747592081110,-0.66,-2.01,-1.81,32.23,230.22,-331.85
81,1747592081120,-0.66,-2.01,-1.81,32.23,230.22,-331.85
82,1747592081130,-0.52,-1.62,-1.56,27.95,214.36,-284.3
83,1747592081140,-0.52,-1.62,-1.56,27.95,214.36,-284.3
84,1747592081150,-0.52,-1.62,-1.56,27.95,214.36,-284.3
85,1747592081160,-0.52,-1.62,-1.56,27.95,214.36,-284.3
86,1747592081170,-0.19,-1.37,-1.25,56.58,209.41,-266.91
87,1747592081180,-0.19,-1.37,-1.25,56.58,209.41,-266.91
88,1747592081190,-0.19,-1.37,-1.25,56.58,209.41,-266.91
89,1747592081200,-0.19,-1.37,-1.25,56.58,209.41,-266.91
90,1747592081210,0.0,-1.37,-1.07,94.48,237.55,-286.68
91,1747592081220,0.0,-1.37,-1.07,94.48,237.55,-286.68
92,1747592081230,0.0,-1.37,-1.07,94.48,237.55,-286.68
93,1747592081240,-0.24,-1.5550000000000002,-1.25,94.48,237.55,-286.68
94,1747592081250,-0.48,-1.74,-1.43,152.22,353.39,-253.85
95,1747592081260,-0.48,-1.74,-1.43,152.22,353.39,-253.85
96,1747592081270,-0.48,-1.74,-1.43,152.22,353.39,-253.85
97,1747592081280,-1.235,-1.74,-1.7799999999999998,144.315,304.87,-248.325
98,1747592081290,-1.99,-1.74,-2.13,136.41,256.35,-242.8
99,1747592081300,-1.99,-1.74,-2.13,136.41,256.35,-242.8
100,1747592081310,-1.99,-1.74,-2.13,136.41,256.35,-242.8
101,1747592081320,-3.27,-1.515,-2.005,129.91,256.41,-195.405
102,1747592081330,-4.55,-1.29,-1.88,123.41,256.47,-148.01
103,1747592081340,-4.55,-1.29,-1.88,123.41,256.47,-148.01
104,1747592081350,-4.55,-1.29,-1.88,123.41,256.47,-148.01
105,1747592081360,-5.87,-1.58,-2.89,98.69,78.19,-131.77
106,1747592081370,-5.87,-1.58,-2.89,98.69,78.19,-131.77
107,1747592081380,-5.87,-1.58,-2.89,98.69,78.19,-131.77
108,1747592081390,-5.87,-1.58,-2.89,98.69,78.19,-131.77
109,1747592081400,-4.59,-3.07,-2.9,6.53,-230.16,99.37
110,1747592081410,-4.59,-3.07,-2.9,6.53,-230.16,99.37
111,1747592081420,-4.59,-3.07,-2.9,6.53,-230.16,99.37
112,1747592081430,-4.59,-3.07,-2.9,6.53,-230.16,99.37
113,1747592081440,-2.61,-2.05,-1.79,-95.34,-13.0,259.7
114,1747592081450,-2.61,-2.05,-1.79,-95.34,-13.0,259.7
115,1747592081460,-2.61,-2.05,-1.79,-95.34,-13.0,259.7
116,1747592081470,-2.61,-2.05,-1.79,-95.34,-13.0,259.7
117,1747592081480,-1.75,-1.44,-1.48,-28.44,-205.2,243.16
118,1747592081490,-1.75,-1.44,-1.48,-28.44,-205.2,243.16
119,1747592081500,-1.75,-1.44,-1.48,-28.44,-205.2,243.16
120,1747592081510,-1.3,-1.46,-1.325,-28.44,-205.2,243.16
121,1747592081520,-0.85,-1.48,-1.17,-81.42,-214.66,320.37
122,1747592081530,-0.85,-1.48,-1.17,-81.42,-214.66,320.37
123,1747592081540,-0.85,-1.48,-1.17,-81.42,-214.66,320.37
124,1747592081550,-0.85,-1.48,-1.17,-81.42,-214.66,320.37
125,1747592081560,-0.09,-1.77,-1.07,-49.68,-184.33,332.28
126,1747592081570,-0.09,-1.77,-1.07,-49.68,-184.33,332.28
127,1747592081580,-0.09,-1.77,-1.07,-49.68,-184.33,332.28
128,1747592081590,0.11,-1.9,-1.26,-89.72,-186.1,381.41
129,1747592081600,0.11,-1.9,-1.26,-89.72,-186.1,381.41
130,1747592081610,0.11,-1.9,-1.26,-89.72,-186.1,381.41
131,1747592081620,0.07,-1.96,-1.21,-89.72,-186.1,381.41
132,1747592081630,0.07,-1.96,-1.21,-125.06,-119.02,357.06
133,1747592081640,0.07,-1.96,-1.21,-125.06,-119.02,357.06
134,1747592081650,0.07,-1.96,-1.21,-125.06,-119.02,357.06
135,1747592081660,0.07,-1.96,-1.21,-125.06,-119.02,357.06
136,1747592081670,0.15,-2.11,-1.29,-114.38,-153.38,387.02
137,1747592081680,0.15,-2.11,-1.29,-114.38,-153.38,387.02
138,1747592081690,0.15,-2.11,-1.29,-114.38,-153.38,387.02
139,1747592081700,0.2,-1.98,-1.05,-132.14,-182.98,345.09
140,1747592081710,0.2,-1.98,-1.05,-132.14,-182.98,345.09
141,1747592081720,0.2,-1.98,-1.05,-132.14,-182.98,345.09
142,1747592081730,0.2,-1.98,-1.05,-132.14,-182.98,345.09
143,1747592081740,0.58,-1.38,-0.54,-132.17,-170.04,326.565
144,1747592081750,0.58,-1.38,-0.54,-132.2,-157.1,308.04
145,1747592081760,0.58,-1.38,-0.54,-132.2,-157.1,308.04
146,1747592081770,0.58,-1.38,-0.54,-132.2,-157.1,308.04
147,1747592081780,1.49,0.03,0.98,-152.405,-158.935,269.68
148,1747592081790,1.49,0.03,0.98,-172.61,-160.77,231.32
149,1747592081800,1.49,0.03,0.98,-172.61,-160.77,231.32
150,1747592081810,1.49,0.03,0.98,-172.61,-160.77,231.32
151,1747592081820,3.44,0.76,1.81,-2.2,-93.87,159.3
152,1747592081830,3.44,0.76,1.81,-2.2,-93.87,159.3
153,1747592081840,3.44,0.76,1.81,-2.2,-93.87,159.3
154,1747592081850,3.79,1.2,1.785,-21.975,-18.980000000000004,114.32
155,1747592081860,4.14,1.64,1.76,-41.75,55.91,69.34
156,1747592081870,4.14,1.64,1.76,-41.75,55.91,69.34
157,1747592081880,4.14,1.64,1.76,-41.75,55.91,69.34
158,1747592081890,3.1,0.79,1.41,-36.285,76.57,-49.925
159,1747592081900,3.1,0.79,1.41,-30.82,97.23,-169.19
160,1747592081910,3.1,0.79,1.41,-30.82,97.23,-169.19
161,1747592081920,2.59,0.285,0.955,-42.295,154.845,-194.395
162,1747592081930,2.08,-0.22,0.5,-53.77,212.46,-219.6
163,1747592081940,2.08,-0.22,0.5,-53.77,212.46,-219.6
164,1747592081950,2.08,-0.22,0.5,-53.77,212.46,-219.6
165,1747592081960,1.25,-1.25,-0.26,19.71,264.22,-290.16
166,1747592081970,1.25,-1.25,-0.26,19.71,264.22,-290.16
167,1747592081980,1.25,-1.25,-0.26,19.71,264.22,-290.16
168,1747592081990,1.25,-1.25,-0.26,19.71,264.22,-290.16
169,1747592082000,0.07,-2.12,-1.7,192.81,222.29,-369.63
170,1747592082010,0.07,-2.12,-1.7,192.81,222.29,-369.63
171,1747592082020,0.07,-2.12,-1.7,192.81,222.29,-369.63
172,1747592082030,0.07,-2.12,-1.7,192.81,222.29,-369.63
173,1747592082040,-0.36,-1.97,-1.95,94.42,224.67,-342.16
174,1747592082050,-0.36,-1.97,-1.95,94.42,224.67,-342.16
175,1747592082060,-0.36,-1.97,-1.95,94.42,224.67,-342.16
176,1747592082070,-0.28,-1.74,-1.56,94.42,224.67,-342.16
177,1747592082080,-0.28,-1.74,-1.56,71.04,140.08,-342.41
178,1747592082090,-0.28,-1.74,-1.56,71.04,140.08,-342.41
179,1747592082100,-0.28,-1.74,-1.56,71.04,140.08,-342.41
180,1747592082110,-0.28,-1.74,-1.56,71.04,140.08,-342.41
181,1747592082120,-0.27,-1.65,-1.35,50.35,122.01,-346.98
182,1747592082130,-0.27,-1.65,-1.35,50.35,122.01,-346.98
183,1747592082140,-0.27,-1.65,-1.35,50.35,122.01,-346.98
184,1747592082150,-0.24,-1.67,-1.13,29.54,272.46,-308.11
185,1747592082160,-0.24,-1.67,-1.13,29.54,272.46,-308.11
186,1747592082170,-0.24,-1.67,-1.13,29.54,272.46,-308.11
187,1747592082180,-0.24,-1.67,-1.13,29.54,272.46,-308.11
188,1747592082190,-0.87,-1.86,-1.41,74.98,292.665,-292.91
189,1747592082200,-0.87,-1.86,-1.41,120.42,312.87,-277.71
190,1747592082210,-0.87,-1.86,-1.41,120.42,312.87,-277.71
191,1747592082220,-0.87,-1.86,-1.41,120.42,312.87,-277.71
192,1747592082230,-2.45,-1.8,-1.77,55.05,297.24,-203.31
193,1747592082240,-2.45,-1.8,-1.77,55.05,297.24,-203.31
194,1747592082250,-2.45,-1.8,-1.77,55.05,297.24,-203.31
195,1747592082260,-2.45,-1.8,-1.77,55.05,297.24,-203.31
196,1747592082270,-4.67,-1.26,-1.6,82.28,248.05,-81.42
197,1747592082280,-4.67,-1.26,-1.6,82.28,248.05,-81.42
198,1747592082290,-4.67,-1.26,-1.6,82.28,248.05,-81.42
199,1747592082300,-4.67,-1.26,-1.6,82.28,248.05,-81.42
200,1747592082310,-5.74,-1.98,-2.51,25.7,-24.17,-136.23
201,1747592082320,-5.74,-1.98,-2.51,25.7,-24.17,-136.23
202,1747592082330,-5.74,-1.98,-2.51,25.7,-24.17,-136.23
203,1747592082340,-5.050000000000001,-2.565,-2.285,25.7,-24.17,-136.23
204,1747592082350,-4.36,-3.15,-2.06,49.07,-324.04,88.44
205,1747592082360,-4.36,-3.15,-2.06,49.07,-324.04,88.44
206,1747592082370,-4.36,-3.15,-2.06,49.07,-324.04,88.44
207,1747592082380,-4.36,-3.15,-2.06,49.07,-324.04,88.44
208,1747592082390,-2.48,-1.94,-1.53,-21.24,-13.55,261.47
209,1747592082400,-2.48,-1.94,-1.53,-21.24,-13.55,261.47
210,1747592082410,-2.48,-1.94,-1.53,-21.24,-13.55,261.47
211,1747592082420,-2.075,-1.63,-1.4,-15.38,-93.905,267.21000000000004
212,1747592082430,-1.67,-1.32,-1.27,-9.52,-174.26,272.95
213,1747592082440,-1.67,-1.32,-1.27,-9.52,-174.26,272.95
214,1747592082450,-1.67,-1.32,-1.27,-9.52,-174.26,272.95
215,1747592082460,-1.67,-1.32,-1.27,-9.52,-174.26,272.95
216,1747592082470,-1.0,-1.48,-1.18,-49.56,-171.63,349.49
217,1747592082480,-1.0,-1.48,-1.18,-49.56,-171.63,349.49
218,1747592082490,-1.0,-1.48,-1.18,-49.56,-171.63,349.49
219,1747592082500,-1.0,-1.48,-1.18,-49.56,-171.63,349.49
220,1747592082510,-0.07,-1.72,-1.09,-101.87,-147.28,388.98
221,1747592082520,-0.07,-1.72,-1.09,-101.87,-147.28,388.98
222,1747592082530,-0.07,-1.72,-1.09,-101.87,-147.28,388.98
223,1747592082540,0.0,-1.74,-1.13,-68.73,-201.78,333.37
224,1747592082550,0.0,-1.74,-1.13,-68.73,-201.78,333.37
225,1747592082560,0.0,-1.74,-1.13,-68.73,-201.78,333.37
226,1747592082570,0.0,-1.74,-1.13,-68.73,-201.78,333.37
227,1747592082580,0.04,-1.95,-1.26,-115.66,-204.04,393.86
228,1747592082590,0.04,-1.95,-1.26,-115.66,-204.04,393.86
229,1747592082600,0.04,-1.95,-1.26,-115.66,-204.04,393.86
230,1747592082610,0.11,-1.83,-1.14,-94.6,-193.42,387.02
231,1747592082620,0.11,-1.83,-1.14,-94.6,-193.42,387.02
232,1747592082630,0.11,-1.83,-1.14,-94.6,-193.42,387.02
233,1747592082640,0.11,-1.83,-1.14,-94.6,-193.42,387.02
234,1747592082650,0.25,-1.6,-1.04,-110.47,-172.36,377.44
235,1747592082660,0.25,-1.6,-1.04,-110.47,-172.36,377.44
236,1747592082670,0.25,-1.6,-1.04,-110.47,-172.36,377.44
237,1747592082680,0.25,-1.6,-1.04,-110.47,-172.36,377.44
238,1747592082690,0.78,-0.96,-0.18,-131.59,-152.53,306.46
239,1747592082700,0.78,-0.96,-0.18,-131.59,-152.53,306.46
240,1747592082710,0.78,-0.96,-0.18,-131.59,-152.53,306.46
241,1747592082720,1.155,-0.4449999999999999,0.295,-131.59,-152.53,306.46
242,1747592082730,1.53,0.07,0.77,-31.01,-218.08,216.0
243,1747592082740,1.53,0.07,0.77,-31.01,-218.08,216.0
244,1747592082750,1.53,0.07,0.77,-31.01,-218.08,216.0
245,1747592082760,2.385,0.4549999999999999,0.955,1.8899999999999988,-188.815,155.605
246,1747592082770,3.24,0.84,1.14,34.79,-159.55,95.21
247,1747592082780,3.24,0.84,1.14,34.79,-159.55,95.21
248,1747592082790,3.5,1.105,1.03,-14.895,-21.395000000000003,68.845
249,1747592082800,3.76,1.37,0.92,-64.58,116.76,42.48
250,1747592082810,3.76,1.37,0.92,-64.58,116.76,42.48
251,1747592082820,3.76,1.37,0.92,-64.58,116.76,42.48
252,1747592082830,3.55,1.195,1.265,-56.52,105.925,-55.575
253,1747592082840,3.34,1.02,1.61,-48.46,95.09,-153.63
254,1747592082850,3.34,1.02,1.61,-48.46,95.09,-153.63
255,1747592082860,3.34,1.02,1.61,-48.46,95.09,-153.63
256,1747592082870,2.665,0.415,1.0,-15.135,139.555,-207.89
257,1747592082880,1.99,-0.19,0.39,18.19,184.02,-262.15
258,1747592082890,1.99,-0.19,0.39,18.19,184.02,-262.15
259,1747592082900,1.99,-0.19,0.39,18.19,184.02,-262.15
260,1747592082910,1.1,-1.29,-0.45,69.21,299.93,-334.84
261,1747592082920,1.1,-1.29,-0.45,69.21,299.93,-334.84
262,1747592082930,1.1,-1.29,-0.45,69.21,299.93,-334.84
263,1747592082940,1.1,-1.29,-0.45,69.21,299.93,-334.84
264,1747592082950,-0.06,-2.36,-1.88,124.6,298.005,-347.35
265,1747592082960,-0.06,-2.36,-1.88,179.99,296.08,-359.86
266,1747592082970,-0.06,-2.36,-1.88,179.99,296.08,-359.86
267,1747592082980,-0.285,-2.225,-1.94,150.755,232.145,-356.87
268,1747592082990,-0.51,-2.09,-2.0,121.52,168.21,-353.88
269,1747592083000,-0.51,-2.09,-2.0,121.52,168.21,-353.88
270,1747592083010,-0.51,-2.09,-2.0,121.52,168.21,-353.88
271,1747592083020,-0.51,-2.09,-2.0,121.52,168.21,-353.88
272,1747592083030,-0.51,-1.69,-1.58,37.35,92.9,-353.09
273,1747592083040,-0.51,-1.69,-1.58,37.35,92.9,-353.09
274,1747592083050,-0.51,-1.69,-1.58,37.35,92.9,-353.09
275,1747592083060,-0.25,-1.44,-1.15,-19.41,141.97,-334.41
276,1747592083070,-0.25,-1.44,-1.15,-19.41,141.97,-334.41
277,1747592083080,-0.25,-1.44,-1.15,-19.41,141.97,-334.41
278,1747592083090,-0.25,-1.44,-1.15,-19.41,141.97,-334.41
279,1747592083100,-0.32,-1.59,-0.98,-3.2350000000000003,202.945,-326.355
280,1747592083110,-0.32,-1.59,-0.98,12.94,263.92,-318.3
281,1747592083120,-0.32,-1.59,-0.98,12.94,263.92,-318.3
282,1747592083130,-0.32,-1.59,-0.98,12.94,263.92,-318.3
283,1747592083140,-1.16,-1.68,-1.52,80.02,306.46,-274.84
284,1747592083150,-1.16,-1.68,-1.52,80.02,306.46,-274.84
285,1747592083160,-1.16,-1.68,-1.52,80.02,306.46,-274.84
286,1747592083170,-1.16,-1.68,-1.52,80.02,306.46,-274.84
287,1747592083180,-2.76,-1.18,-1.36,12.88,236.27,-197.39
288,1747592083190,-2.76,-1.18,-1.36,12.88,236.27,-197.39
289,1747592083200,-2.76,-1.18,-1.36,12.88,236.27,-197.39
290,1747592083210,-3.51,-1.025,-1.46,12.88,236.27,-197.39
291,1747592083220,-4.26,-0.87,-1.56,49.26,277.28,-77.09
292,1747592083230,-4.26,-0.87,-1.56,49.26,277.28,-77.09
293,1747592083240,-4.26,-0.87,-1.56,49.26,277.28,-77.09
294,1747592083250,-4.26,-0.87,-1.56,49.26,277.28,-77.09
295,1747592083260,-6.31,-2.76,-2.27,-16.6,-205.02,-104.68
296,1747592083270,-6.31,-2.76,-2.27,-16.6,-205.02,-104.68
297,1747592083280,-6.31,-2.76,-2.27,-16.6,-205.02,-104.68
298,1747592083290,-5.045,-2.825,-1.93,-8.91,-228.12,21.60499999999999
299,1747592083300,-3.78,-2.89,-1.59,-1.22,-251.22,147.89
300,1747592083310,-3.78,-2.89,-1.59,-1.22,-251.22,147.89
301,1747592083320,-3.78,-2.89,-1.59,-1.22,-251.22,147.89
302,1747592083330,-3.78,-2.89,-1.59,-1.22,-251.22,147.89
303,1747592083340,-2.31,-1.9,-1.35,27.28,31.98,303.65
304,1747592083350,-2.31,-1.9,-1.35,27.28,31.98,303.65
305,1747592083360,-2.31,-1.9,-1.35,27.28,31.98,303.65
306,1747592083370,-1.9,-1.54,-1.38,15.655,-27.5,309.355
307,1747592083380,-1.49,-1.18,-1.41,4.03,-86.98,315.06
308,1747592083390,-1.49,-1.18,-1.41,4.03,-86.98,315.06
309,1747592083400,-1.49,-1.18,-1.41,4.03,-86.98,315.06
310,1747592083410,-1.14,-1.115,-1.3199999999999998,-28.655,-127.81,324.58500000000004
311,1747592083420,-0.79,-1.05,-1.23,-61.34,-168.64,334.11
312,1747592083430,-0.79,-1.05,-1.23,-61.34,-168.64,334.11
313,1747592083440,-0.79,-1.05,-1.23,-61.34,-168.64,334.11
314,1747592083450,-0.4,-1.16,-1.1949999999999998,-83.89500000000001,-176.545,336.09000000000003
315,1747592083460,-0.01,-1.27,-1.16,-106.45,-184.45,338.07
316,1747592083470,-0.01,-1.27,-1.16,-106.45,-184.45,338.07
317,1747592083480,-0.01,-1.27,-1.16,-106.45,-184.45,338.07
318,1747592083490,-0.08,-1.57,-1.28,-103.15,-191.255,334.105
319,1747592083500,-0.08,-1.57,-1.28,-99.85,-198.06,330.14
320,1747592083510,-0.08,-1.57,-1.28,-99.85,-198.06,330.14
321,1747592083520,-0.08,-1.57,-1.28,-99.85,-198.06,330.14
322,1747592083530,0.05,-1.75,-1.47,-111.33,-212.28,355.1
323,1747592083540,0.05,-1.75,-1.47,-111.33,-212.28,355.1
324,1747592083550,0.05,-1.75,-1.47,-111.33,-212.28,355.1
325,1747592083560,0.05,-1.75,-1.47,-111.33,-212.28,355.1
326,1747592083570,0.07,-1.64,-1.22,-136.72,-213.07,354.68
327,1747592083580,0.07,-1.64,-1.22,-136.72,-213.07,354.68
328,1747592083590,0.07,-1.64,-1.22,-136.72,-213.07,354.68
329,1747592083600,0.07,-1.64,-1.22,-136.72,-213.07,354.68
330,1747592083610,0.32,-1.45,-1.04,-104.61,-210.08,357.6
331,1747592083620,0.32,-1.45,-1.04,-104.61,-210.08,357.6
332,1747592083630,0.32,-1.45,-1.04,-104.61,-210.08,357.6
333,1747592083640,0.32,-1.45,-1.04,-104.61,-210.08,357.6
334,1747592083650,1.07,-0.69,-0.13,-136.78,-198.18,278.08
335,1747592083660,1.07,-0.69,-0.13,-136.78,-198.18,278.08
336,1747592083670,1.07,-0.69,-0.13,-136.78,-198.18,278.08
337,1747592083680,1.07,-0.69,-0.13,-136.78,-198.18,278.08
338,1747592083690,2.54,0.47,1.39,-53.1,-217.9,215.64
339,1747592083700,2.54,0.47,1.39,-53.1,-217.9,215.64
340,1747592083710,3.615,0.73,1.235,-9.095000000000002,-128.27,172.485
341,1747592083720,4.69,0.99,1.08,34.91,-38.64,129.33
342,1747592083730,4.69,0.99,1.08,34.91,-38.64,129.33
343,1747592083740,4.38,1.36,1.2,34.91,-38.64,129.33
344,1747592083750,4.38,1.36,1.2,-88.26,82.58,-82.21
345,1747592083760,4.38,1.36,1.2,-88.26,82.58,-82.21
346,1747592083770,4.38,1.36,1.2,-88.26,82.58,-82.21
347,1747592083780,3.08,0.41,1.25,-77.09,141.85,-254.39
348,1747592083790,3.08,0.41,1.25,-77.09,141.85,-254.39
349,1747592083800,3.08,0.41,1.25,-77.09,141.85,-254.39
350,1747592083810,3.08,0.41,1.25,-77.09,141.85,-254.39
351,1747592083820,1.58,-0.81,0.09,-42.91,331.05,-301.51
352,1747592083830,1.58,-0.81,0.09,-42.91,331.05,-301.51
353,1747592083840,1.58,-0.81,0.09,-42.91,331.05,-301.51
354,1747592083850,1.58,-0.81,0.09,-42.91,331.05,-301.51
355,1747592083860,0.84,-1.8,-0.76,82.7,425.96,-328.8
356,1747592083870,0.84,-1.8,-0.76,82.7,425.96,-328.8
357,1747592083880,0.84,-1.8,-0.76,82.7,425.96,-328.8
358,1747592083890,0.84,-1.8,-0.76,82.7,425.96,-328.8
359,1747592083900,-0.2,-2.55,-2.04,221.25,344.73,-340.82
360,1747592083910,-0.2,-2.55,-2.04,221.25,344.73,-340.82
361,1747592083920,-0.2,-2.55,-2.04,221.25,344.73,-340.82
362,1747592083930,-0.375,-2.45,-2.135,221.25,344.73,-340.82
363,1747592083940,-0.55,-2.35,-2.23,165.95,250.18,-337.46
364,1747592083950,-0.55,-2.35,-2.23,165.95,250.18,-337.46
365,1747592083960,-0.55,-2.35,-2.23,165.95,250.18,-337.46
366,1747592083970,-0.53,-2.075,-1.995,133.94,219.725,-327.42
367,1747592083980,-0.51,-1.8,-1.76,101.93,189.27,-317.38
368,1747592083990,-0.51,-1.8,-1.76,101.93,189.27,-317.38
369,1747592084000,-0.51,-1.8,-1.76,101.93,189.27,-317.38
370,1747592084010,-0.23,-1.45,-1.32,74.465,177.735,-312.805
371,1747592084020,-0.23,-1.45,-1.32,47.0,166.2,-308.23
372,1747592084030,-0.23,-1.45,-1.32,47.0,166.2,-308.23
373,1747592084040,-0.23,-1.45,-1.32,47.0,166.2,-308.23
374,1747592084050,-0.3,-1.465,-1.255,44.71,245.635,-289.52
375,1747592084060,-0.37,-1.48,-1.19,42.42,325.07,-270.81
376,1747592084070,-0.37,-1.48,-1.19,42.42,325.07,-270.81
377,1747592084080,-0.37,-1.48,-1.19,42.42,325.07,-270.81
378,1747592084090,-0.995,-1.31,-1.345,66.985,345.7,-243.375
379,1747592084100,-1.62,-1.14,-1.5,91.55,366.33,-215.94
380,1747592084110,-1.62,-1.14,-1.5,91.55,366.33,-215.94
381,1747592084120,-1.62,-1.14,-1.5,91.55,366.33,-215.94
382,1747592084130,-2.35,-1.13,-1.75,99.76,278.685,-172.73000000000002
383,1747592084140,-3.08,-1.12,-2.0,107.97,191.04,-129.52
384,1747592084150,-3.08,-1.12,-2.0,107.97,191.04,-129.52
385,1747592084160,-3.08,-1.12,-2.0,107.97,191.04,-129.52
386,1747592084170,-5.59,-1.43,-2.43,24.72,52.19,-142.09
387,1747592084180,-5.59,-1.43,-2.43,24.72,52.19,-142.09
388,1747592084190,-5.59,-1.43,-2.43,24.72,52.19,-142.09
389,1747592084200,-5.22,-2.295,-2.805,24.72,52.19,-142.09
390,1747592084210,-4.85,-3.16,-3.18,147.77,-361.39,112.67
391,1747592084220,-4.85,-3.16,-3.18,147.77,-361.39,112.67
392,1747592084230,-4.85,-3.16,-3.18,147.77,-361.39,112.67
393,1747592084240,-4.85,-3.16,-3.18,147.77,-361.39,112.67
394,1747592084250,-2.82,-2.5,-2.24,-23.19,-82.95,292.54
395,1747592084260,-2.82,-2.5,-2.24,-23.19,-82.95,292.54
396,1747592084270,-2.82,-2.5,-2.24,-23.19,-82.95,292.54
397,1747592084280,-2.82,-2.5,-2.24,-23.19,-82.95,292.54
398,1747592084290,-1.95,-1.53,-1.88,-12.27,-191.71,301.21
399,1747592084300,-1.95,-1.53,-1.88,-12.27,-191.71,301.21
400,1747592084310,-1.95,-1.53,-1.88,-12.27,-191.71,301.21
401,1747592084320,-1.95,-1.53,-1.88,-12.27,-191.71,301.21
402,1747592084330,-1.27,-1.09,-1.26,-65.43,-258.54,320.5
403,1747592084340,-1.27,-1.09,-1.26,-65.43,-258.54,320.5
404,1747592084350,-1.27,-1.09,-1.26,-65.43,-258.54,320.5
405,1747592084360,-1.27,-1.09,-1.26,-65.43,-258.54,320.5
406,1747592084370,-0.34,-1.18,-0.92,-98.94,-244.08,344.36
407,1747592084380,-0.34,-1.18,-0.92,-98.94,-244.08,344.36
408,1747592084390,-0.34,-1.18,-0.92,-98.94,-244.08,344.36
409,1747592084400,-0.11,-1.235,-0.985,-98.94,-244.08,344.36
410,1747592084410,0.12,-1.29,-1.05,-64.33,-194.95,330.14
411,1747592084420,0.12,-1.29,-1.05,-64.33,-194.95,330.14
412,1747592084430,0.12,-1.29,-1.05,-64.33,-194.95,330.14
413,1747592084440,0.055,-1.41,-1.17,-69.49000000000001,-198.49,340.42499999999995
414,1747592084450,-0.01,-1.53,-1.29,-74.65,-202.03,350.71
415,1747592084460,-0.01,-1.53,-1.29,-74.65,-202.03,350.71
416,1747592084470,-0.01,-1.53,-1.29,-74.65,-202.03,350.71
417,1747592084480,-0.06,-1.51,-1.32,-59.02,-219.06,356.93
418,1747592084490,-0.06,-1.51,-1.32,-59.02,-219.06,356.93
419,1747592084500,-0.06,-1.51,-1.32,-59.02,-219.06,356.93
420,1747592084510,-0.06,-1.51,-1.32,-59.02,-219.06,356.93
421,1747592084520,0.06,-1.48,-1.21,-70.56,-222.23,348.94
422,1747592084530,0.06,-1.48,-1.21,-70.56,-222.23,348.94
423,1747592084540,0.06,-1.48,-1.21,-70.56,-222.23,348.94
424,1747592084550,0.06,-1.48,-1.21,-70.56,-222.23,348.94
425,1747592084560,0.6,-1.04,-0.38,-78.67,-242.92,292.91
426,1747592084570,0.6,-1.04,-0.38,-78.67,-242.92,292.91
427,1747592084580,0.6,-1.04,-0.38,-78.67,-242.92,292.91
428,1747592084590,1.05,-0.435,0.41,0.644999999999996,-208.62,268.525
429,1747592084600,1.5,0.17,1.2,79.96,-174.32,244.14
430,1747592084610,1.5,0.17,1.2,79.96,-174.32,244.14
431,1747592084620,1.5,0.17,1.2,79.96,-174.32,244.14
432,1747592084630,2.5700000000000003,0.42,0.665,90.855,-83.345,194.03
433,1747592084640,3.64,0.67,0.13,101.75,7.63,143.92
434,1747592084650,3.64,0.67,0.13,101.75,7.63,143.92
435,1747592084660,3.7,0.915,0.215,-6.619999999999997,111.025,44.85999999999999
436,1747592084670,3.76,1.16,0.3,-114.99,214.42,-54.2
437,1747592084680,3.76,1.16,0.3,-114.99,214.42,-54.2
438,1747592084690,3.76,1.16,0.3,-114.99,214.42,-54.2
439,1747592084700,3.13,1.13,1.66,-38.64,117.19,-141.17
440,1747592084710,3.13,1.13,1.66,-38.64,117.19,-141.17
441,1747592084720,3.13,1.13,1.66,-38.64,117.19,-141.17
442,1747592084730,3.13,1.13,1.66,-38.64,117.19,-141.17
443,1747592084740,1.95,-0.07,0.18,-11.47,131.1,-282.71
444,1747592084750,1.95,-0.07,0.18,-11.47,131.1,-282.71
445,1747592084760,1.95,-0.07,0.18,-11.47,131.1,-282.71
446,1747592084770,1.95,-0.07,0.18,-11.47,131.1,-282.71
447,1747592084780,1.59,-0.5950000000000001,-0.0849999999999999,-17.09,215.79,-293.335
448,1747592084790,1.23,-1.12,-0.35,-22.71,300.48,-303.96
449,1747592084800,1.23,-1.12,-0.35,-22.71,300.48,-303.96
450,1747592084810,1.23,-1.12,-0.35,-22.71,300.48,-303.96
451,1747592084820,0.27,-2.07,-1.38,54.5,353.15,-382.39
452,1747592084830,0.27,-2.07,-1.38,54.5,353.15,-382.39
453,1747592084840,0.27,-2.07,-1.38,54.5,353.15,-382.39
454,1747592084850,0.27,-2.07,-1.38,54.5,353.15,-382.39
455,1747592084860,-0.33,-2.45,-2.08,104.74,378.11,-328.55
456,1747592084870,-0.33,-2.45,-2.08,104.74,378.11,-328.55
457,1747592084880,-0.33,-2.45,-2.08,104.74,378.11,-328.55
458,1747592084890,-0.35,-2.25,-2.01,94.88,348.42,-318.175
459,1747592084900,-0.37,-2.05,-1.94,85.02,318.73,-307.8
460,1747592084910,-0.37,-2.05,-1.94,85.02,318.73,-307.8
461,1747592084920,-0.37,-2.05,-1.94,85.02,318.73,-307.8
462,1747592084930,-0.2299999999999999,-1.855,-1.735,87.28,272.74,-301.57500000000005
463,1747592084940,-0.09,-1.66,-1.53,89.54,226.75,-295.35
464,1747592084950,-0.09,-1.66,-1.53,89.54,226.75,-295.35
465,1747592084960,-0.09,-1.66,-1.53,89.54,226.75,-295.35
466,1747592084970,-0.105,-1.66,-1.455,87.22,288.79,-280.12
467,1747592084980,-0.12,-1.66,-1.38,84.9,350.83,-264.89
468,1747592084990,-0.12,-1.66,-1.38,84.9,350.83,-264.89
469,1747592085000,-0.12,-1.66,-1.38,84.9,350.83,-264.89
470,1747592085010,-0.72,-1.48,-1.48,178.04,359.62,-215.03
471,1747592085020,-0.72,-1.48,-1.48,178.04,359.62,-215.03
472,1747592085030,-0.72,-1.48,-1.48,178.04,359.62,-215.03
473,1747592085040,-0.72,-1.48,-1.48,178.04,359.62,-215.03
474,1747592085050,-1.94,-0.69,-1.87,173.33999999999995,269.045,-189.73
475,1747592085060,-1.94,-0.69,-1.87,168.64,178.47,-164.43
476,1747592085070,-1.94,-0.69,-1.87,168.64,178.47,-164.43
477,1747592085080,-1.94,-0.69,-1.87,168.64,178.47,-164.43
478,1747592085090,-3.92,-0.77,-2.55,113.71,156.43,-188.72
479,1747592085100,-3.92,-0.77,-2.55,113.71,156.43,-188.72
480,1747592085110,-3.92,-0.77,-2.55,113.71,156.43,-188.72
481,1747592085120,-3.92,-0.77,-2.55,113.71,156.43,-188.72
482,1747592085130,-5.69,-2.99,-2.27,35.52,-367.37,-111.33
483,1747592085140,-5.69,-2.99,-2.27,35.52,-367.37,-111.33
484,1747592085150,-5.69,-2.99,-2.27,35.52,-367.37,-111.33
485,1747592085160,-4.7,-3.035,-2.345,35.52,-367.37,-111.33
486,1747592085170,-3.71,-3.08,-2.42,36.07,29.54,254.15
487,1747592085180,-3.71,-3.08,-2.42,36.07,29.54,254.15
488,1747592085190,-3.71,-3.08,-2.42,36.07,29.54,254.15
489,1747592085200,-2.685,-2.595,-2.495,36.07,29.54,254.15
490,1747592085210,-1.66,-2.11,-2.57,-16.48,111.94,338.2
491,1747592085220,-1.66,-2.11,-2.57,-16.48,111.94,338.2
492,1747592085230,-1.66,-2.11,-2.57,-16.48,111.94,338.2
493,1747592085240,-1.43,-1.65,-2.42,-51.760000000000005,0.3049999999999997,283.175
494,1747592085250,-1.2,-1.19,-2.27,-87.04,-111.33,228.15
495,1747592085260,-1.2,-1.19,-2.27,-87.04,-111.33,228.15
496,1747592085270,-1.0699999999999998,-1.1949999999999998,-2.025,-135.865,-167.91,235.75
497,1747592085280,-0.94,-1.2,-1.78,-184.69,-224.49,243.35
498,1747592085290,,,,,,
499,1747592085300,-0.94,-1.2,-1.78,-184.69,-224.49,243.35
500,1747592085310,-0.39,-1.38,-1.15,-150.15,-308.23,287.23
501,1747592085320,-0.39,-1.38,-1.15,-150.15,-308.23,287.23
502,1747592085330,-0.39,-1.38,-1.15,-150.15,-308.23,287.23
503,1747592085340,-0.39,-1.38,-1.15,-150.15,-308.23,287.23
504,1747592085350,0.24,-1.64,-1.29,-136.845,-288.21000000000004,316.495
505,1747592085360,0.24,-1.64,-1.29,-123.54,-268.19,345.76
506,1747592085370,0.24,-1.64,-1.29,-123.54,-268.19,345.76
507,1747592085380,0.24,-1.64,-1.29,-123.54,-268.19,345.76
508,1747592085390,0.26,-1.9,-1.29,-159.245,-241.67,342.59000000000003
509,1747592085400,0.26,-1.9,-1.29,-194.95,-215.15,339.42
510,1747592085410,0.26,-1.9,-1.29,-194.95,-215.15,339.42
511,1747592085420,0.26,-1.9,-1.29,-194.95,-215.15,339.42
512,1747592085430,0.29,-1.85,-1.15,-151.67,-265.81,370.54
513,1747592085440,0.29,-1.85,-1.15,-151.67,-265.81,370.54
514,1747592085450,0.29,-1.85,-1.15,-151.67,-265.81,370.54
515,1747592085460,0.375,-1.765,-1.045,-144.225,-270.755,370.635
516,1747592085470,0.46,-1.68,-0.94,-136.78,-275.7,370.73
517,1747592085480,0.46,-1.68,-0.94,-136.78,-275.7,370.73
518,1747592085490,0.46,-1.68,-0.94,-136.78,-275.7,370.73
519,1747592085500,0.5700000000000001,-1.43,-0.6599999999999999,-136.78,-275.7,370.73
520,1747592085510,0.68,-1.18,-0.38,-96.01,-263.92,323.55
521,1747592085520,0.68,-1.18,-0.38,-96.01,-263.92,323.55
522,1747592085530,0.68,-1.18,-0.38,-96.01,-263.92,323.55
523,1747592085540,0.975,-0.7749999999999999,-0.075,-70.71000000000001,-236.085,301.79
524,1747592085550,1.27,-0.37,0.23,-45.41,-208.25,280.03
525,1747592085560,1.27,-0.37,0.23,-45.41,-208.25,280.03
526,1747592085570,1.27,-0.37,0.23,-45.41,-208.25,280.03
527,1747592085580,2.91,0.4,0.87,18.25,-127.01,232.24
528,1747592085590,2.91,0.4,0.87,18.25,-127.01,232.24
529,1747592085600,2.91,0.4,0.87,18.25,-127.01,232.24
530,1747592085610,2.91,0.4,0.87,18.25,-127.01,232.24
531,1747592085620,3.65,0.845,0.945,-19.41,-10.435000000000002,142.7
532,1747592085630,4.39,1.29,1.02,-57.07,106.14,53.16
533,1747592085640,4.39,1.29,1.02,-57.07,106.14,53.16
534,1747592085650,4.39,1.29,1.02,-57.07,106.14,53.16
535,1747592085660,3.59,1.01,1.75,-79.96,103.39,-220.09
536,1747592085670,3.59,1.01,1.75,-79.96,103.39,-220.09
537,1747592085680,3.59,1.01,1.75,-79.96,103.39,-220.09
538,1747592085690,3.59,1.01,1.75,-79.96,103.39,-220.09
539,1747592085700,2.21,-0.44,0.48,-50.6,300.6,-308.23
540,1747592085710,2.21,-0.44,0.48,-50.6,300.6,-308.23
541,1747592085720,2.21,-0.44,0.48,-50.6,300.6,-308.23
542,1747592085730,1.705,-1.06,0.005,-50.6,300.6,-308.23
543,1747592085740,1.2,-1.68,-0.47,46.57,410.89,-380.13
544,1747592085750,1.2,-1.68,-0.47,46.57,410.89,-380.13
545,1747592085760,1.2,-1.68,-0.47,46.57,410.89,-380.13
546,1747592085770,0.61,-2.21,-1.29,132.905,400.755,-365.45
547,1747592085780,0.02,-2.74,-2.11,219.24,390.62,-350.77
548,1747592085790,0.02,-2.74,-2.11,219.24,390.62,-350.77
549,1747592085800,0.02,-2.74,-2.11,219.24,390.62,-350.77
550,1747592085810,-0.34,-2.26,-2.22,219.24,390.62,-350.77
551,1747592085820,-0.34,-2.26,-2.22,144.04,295.72,-343.02
552,1747592085830,-0.34,-2.26,-2.22,144.04,295.72,-343.02
553,1747592085840,-0.34,-2.26,-2.22,144.04,295.72,-343.02
554,1747592085850,-0.32,-1.76,-1.7,144.04,295.72,-343.02
555,1747592085860,-0.32,-1.76,-1.7,90.27,207.89,-316.04
556,1747592085870,-0.32,-1.76,-1.7,90.27,207.89,-316.04
557,1747592085880,-0.32,-1.76,-1.7,90.27,207.89,-316.04
558,1747592085890,-0.08,-1.39,-1.28,64.15,204.59,-308.96
559,1747592085900,-0.08,-1.39,-1.28,64.15,204.59,-308.96
560,1747592085910,-0.08,-1.39,-1.28,64.15,204.59,-308.96
561,1747592085920,-0.08,-1.39,-1.28,64.15,204.59,-308.96
562,1747592085930,-0.17,-1.41,-1.12,73.79,358.4,-263.92
563,1747592085940,-0.17,-1.41,-1.12,73.79,358.4,-263.92
564,1747592085950,-0.17,-1.41,-1.12,73.79,358.4,-263.92
565,1747592085960,-0.17,-1.41,-1.12,73.79,358.4,-263.92
566,1747592085970,-0.49,-1.59,-1.77,142.76,425.66,-217.59
567,1747592085980,-0.49,-1.59,-1.77,142.76,425.66,-217.59
568,1747592085990,-0.49,-1.59,-1.77,142.76,425.66,-217.59
569,1747592086000,-0.49,-1.59,-1.77,142.76,425.66,-217.59
570,1747592086010,-2.04,-0.92,-1.95,102.36,235.23,-142.82
571,1747592086020,-2.04,-0.92,-1.95,102.36,235.23,-142.82
572,1747592086030,-2.04,-0.92,-1.95,102.36,235.23,-142.82
573,1747592086040,-2.04,-0.92,-1.95,102.36,235.23,-142.82
574,1747592086050,-3.57,-0.98,-3.01,118.47,248.6,-139.65
575,1747592086060,-3.57,-0.98,-3.01,118.47,248.6,-139.65
576,1747592086070,-3.57,-0.98,-3.01,118.47,248.6,-139.65
577,1747592086080,-4.48,-2.275,-3.35,83.03999999999999,35.004999999999995,-86.825
578,1747592086090,-5.39,-3.57,-3.69,47.61,-178.59,-34.0
579,1747592086100,-5.39,-3.57,-3.69,47.61,-178.59,-34.0
580,1747592086110,-5.39,-3.57,-3.69,47.61,-178.59,-34.0
581,1747592086120,-5.39,-3.57,-3.69,47.61,-178.59,-34.0
582,1747592086130,-2.42,-2.82,-3.16,-13.79,-111.51,260.86
583,1747592086140,-2.42,-2.82,-3.16,-13.79,-111.51,260.86
584,1747592086150,-2.42,-2.82,-3.16,-13.79,-111.51,260.86
585,1747592086160,-1.79,-2.23,-2.725,-53.375,-63.14,285.58000000000004
586,1747592086170,-1.16,-1.64,-2.29,-92.96,-14.77,310.3
587,1747592086180,-1.16,-1.64,-2.29,-92.96,-14.77,310.3
588,1747592086190,-1.16,-1.64,-2.29,-92.96,-14.77,310.3
589,1747592086200,-0.99,-1.37,-2.125,-108.795,-106.02,286.56
590,1747592086210,-0.82,-1.1,-1.96,-124.63,-197.27,262.82
591,1747592086220,-0.82,-1.1,-1.96,-124.63,-197.27,262.82
592,1747592086230,-0.82,-1.1,-1.96,-124.63,-197.27,262.82
593,1747592086240,-0.82,-1.1,-1.96,-124.63,-197.27,262.82
594,1747592086250,-0.38,-1.15,-1.47,-203.25,-265.2,255.74
595,1747592086260,-0.38,-1.15,-1.47,-203.25,-265.2,255.74
596,1747592086270,-0.38,-1.15,-1.47,-203.25,-265.2,255.74
597,1747592086280,-0.135,-1.2799999999999998,-1.305,-200.805,-284.09000000000003,270.32500000000005
598,1747592086290,0.11,-1.41,-1.14,-198.36,-302.98,284.91
599,1747592086300,0.11,-1.41,-1.14,-198.36,-302.98,284.91
600,1747592086310,0.11,-1.41,-1.14,-198.36,-302.98,284.91
601,1747592086320,0.225,-1.475,-1.15,-175.78,-296.20500000000004,299.83500000000004
602,1747592086330,0.34,-1.54,-1.16,-153.2,-289.43,314.76
603,1747592086340,0.34,-1.54,-1.16,-153.2,-289.43,314.76
604,1747592086350,0.34,-1.54,-1.16,-153.2,-289.43,314.76
605,1747592086360,0.38,-1.59,-1.25,-178.47,-253.23,337.89
606,1747592086370,0.38,-1.59,-1.25,-178.47,-253.23,337.89
607,1747592086380,0.38,-1.59,-1.25,-178.47,-253.23,337.89
608,1747592086390,0.38,-1.59,-1.25,-178.47,-253.23,337.89
609,1747592086400,0.4,-1.47,-1.0,-175.11,-237.73,347.41
610,1747592086410,0.4,-1.47,-1.0,-175.11,-237.73,347.41
611,1747592086420,0.4,-1.47,-1.0,-175.11,-237.73,347.41
612,1747592086430,0.4,-1.47,-1.0,-175.11,-237.73,347.41
613,1747592086440,0.53,-1.17,-0.77,-125.92,-269.53,325.99
614,1747592086450,0.53,-1.17,-0.77,-125.92,-269.53,325.99
615,1747592086460,0.53,-1.17,-0.77,-125.92,-269.53,325.99
616,1747592086470,0.53,-1.17,-0.77,-125.92,-269.53,325.99
617,1747592086480,1.23,-0.48,0.29,-59.08,-327.45,224.67
618,1747592086490,1.23,-0.48,0.29,-59.08,-327.45,224.67
619,1747592086500,1.23,-0.48,0.29,-59.08,-327.45,224.67
620,1747592086510,1.23,-0.48,0.29,-59.08,-327.45,224.67
621,1747592086520,2.65,0.66,1.26,-18.37,-153.99,178.04
622,1747592086530,2.65,0.66,1.26,-18.37,-153.99,178.04
623,1747592086540,2.65,0.66,1.26,-18.37,-153.99,178.04
624,1747592086550,3.555,0.8700000000000001,1.33,-51.82,-46.295,75.74499999999999
625,1747592086560,4.46,1.08,1.4,-85.27,61.4,-26.55
626,1747592086570,4.46,1.08,1.4,-85.27,61.4,-26.55
627,1747592086580,4.46,1.08,1.4,-85.27,61.4,-26.55
628,1747592086590,3.89,0.8300000000000001,1.545,-86.365,84.075,-156.37
629,1747592086600,3.32,0.58,1.69,-87.46,106.75,-286.19
630,1747592086610,3.32,0.58,1.69,-87.46,106.75,-286.19
631,1747592086620,3.32,0.58,1.69,-87.46,106.75,-286.19
632,1747592086630,1.84,-0.79,0.25,-95.76,351.62,-300.29
633,1747592086640,1.84,-0.79,0.25,-95.76,351.62,-300.29
634,1747592086650,1.84,-0.79,0.25,-95.76,351.62,-300.29
635,1747592086660,1.84,-0.79,0.25,-95.76,351.62,-300.29
636,1747592086670,1.0,-1.87,-0.97,152.47,502.32,-280.76
637,1747592086680,1.0,-1.87,-0.97,152.47,502.32,-280.76
638,1747592086690,1.0,-1.87,-0.97,152.47,502.32,-280.76
639,1747592086700,0.595,-2.19,-1.91,152.47,502.32,-280.76
640,1747592086710,0.19,-2.51,-2.85,340.27,280.03,-381.23
641,1747592086720,0.19,-2.51,-2.85,340.27,280.03,-381.23
642,1747592086730,0.19,-2.51,-2.85,340.27,280.03,-381.23
643,1747592086740,-0.135,-2.49,-2.76,247.345,232.91,-411.685
644,1747592086750,-0.46,-2.47,-2.67,154.42,185.79,-442.14
645,1747592086760,-0.46,-2.47,-2.67,154.42,185.79,-442.14
646,1747592086770,-0.46,-2.47,-2.67,154.42,185.79,-442.14
647,1747592086780,-0.505,-2.165,-2.345,85.33,217.5,-398.47
648,1747592086790,-0.55,-1.86,-2.02,16.24,249.21,-354.8
649,1747592086800,-0.55,-1.86,-2.02,16.24,249.21,-354.8
650,1747592086810,-0.55,-1.86,-2.02,16.24,249.21,-354.8
651,1747592086820,-0.55,-1.86,-2.02,16.24,249.21,-354.8
652,1747592086830,-0.38,-1.55,-1.61,-3.85,320.19,-282.53
653,1747592086840,-0.38,-1.55,-1.61,-3.85,320.19,-282.53
654,1747592086850,-0.38,-1.55,-1.61,-3.85,320.19,-282.53
655,1747592086860,-0.96,-1.24,-1.56,-5.37,430.42,-188.9
656,1747592086870,-0.96,-1.24,-1.56,-5.37,430.42,-188.9
657,1747592086880,-0.96,-1.24,-1.56,-5.37,430.42,-188.9
658,1747592086890,-0.96,-1.24,-1.56,-5.37,430.42,-188.9
659,1747592086900,-0.96,-1.24,-1.56,-5.37,430.42,-188.9
660,1747592086910,-2.28,-0.64,-1.12,35.95,284.24,-92.59
661,1747592086920,-2.28,-0.64,-1.12,35.95,284.24,-92.59
662,1747592086930,-2.28,-0.64,-1.12,35.95,284.24,-92.59
663,1747592086940,-2.77,-0.03,-2.11,59.69,384.28,51.21
664,1747592086950,-2.77,-0.03,-2.11,59.69,384.28,51.21
665,1747592086960,-2.77,-0.03,-2.11,59.69,384.28,51.21
666,1747592086970,-2.77,-0.03,-2.11,59.69,384.28,51.21
667,1747592086980,-4.67,-1.91,-2.93,22.77,-162.35,-103.82
668,1747592086990,-4.67,-1.91,-2.93,22.77,-162.35,-103.82
669,1747592087000,-4.67,-1.91,-2.93,22.77,-162.35,-103.82
670,1747592087010,-3.96,-2.355,-3.265,22.77,-162.35,-103.82
671,1747592087020,-3.25,-2.8,-3.6,16.54,-210.45,133.91
672,1747592087030,-3.25,-2.8,-3.6,16.54,-210.45,133.91
673,1747592087040,-3.25,-2.8,-3.6,16.54,-210.45,133.91
674,1747592087050,-3.25,-2.8,-3.6,16.54,-210.45,133.91
675,1747592087060,-1.88,-2.1,-2.51,-78.61,14.95,297.79
676,1747592087070,-1.88,-2.1,-2.51,-78.61,14.95,297.79
677,1747592087080,-1.88,-2.1,-2.51,-78.61,14.95,297.79
678,1747592087090,-1.88,-2.1,-2.51,-78.61,14.95,297.79
679,1747592087100,-1.31,-1.29,-2.48,-57.98,-79.41,269.65
680,1747592087110,-1.31,-1.29,-2.48,-57.98,-79.41,269.65
681,1747592087120,-1.31,-1.29,-2.48,-57.98,-79.41,269.65
682,1747592087130,-0.95,-0.78,-1.9,-142.7,-171.14,219.67
683,1747592087140,-0.95,-0.78,-1.9,-142.7,-171.14,219.67
684,1747592087150,-0.95,-0.78,-1.9,-142.7,-171.14,219.67
685,1747592087160,-0.95,-0.78,-1.9,-142.7,-171.14,219.67
686,1747592087170,-0.695,-0.825,-1.635,-159.575,-218.14,215.855
687,1747592087180,-0.44,-0.87,-1.37,-176.45,-265.14,212.04
688,1747592087190,-0.44,-0.87,-1.37,-176.45,-265.14,212.04
689,1747592087200,-0.44,-0.87,-1.37,-176.45,-265.14,212.04
690,1747592087210,-0.145,-1.045,-1.33,-180.97,-285.92,250.43
691,1747592087220,0.15,-1.22,-1.29,-185.49,-306.7,288.82
692,1747592087230,0.15,-1.22,-1.29,-185.49,-306.7,288.82
693,1747592087240,0.15,-1.22,-1.29,-185.49,-306.7,288.82
694,1747592087250,0.5,-1.31,-1.27,-185.885,-280.79,285.58500000000004
695,1747592087260,0.5,-1.31,-1.27,-186.28,-254.88,282.35
696,1747592087270,0.5,-1.31,-1.27,-186.28,-254.88,282.35
697,1747592087280,0.5,-1.31,-1.27,-186.28,-254.88,282.35
698,1747592087290,0.38,-1.37,-1.23,-186.89,-216.8,281.98
699,1747592087300,0.38,-1.37,-1.23,-186.89,-216.8,281.98
700,1747592087310,0.38,-1.37,-1.23,-186.89,-216.8,281.98
701,1747592087320,0.38,-1.37,-1.23,-186.89,-216.8,281.98
702,1747592087330,0.46,-1.32,-1.12,-194.89,-233.64,288.33
703,1747592087340,0.46,-1.32,-1.12,-194.89,-233.64,288.33
704,1747592087350,0.46,-1.32,-1.12,-194.89,-233.64,288.33
705,1747592087360,0.46,-1.32,-1.12,-194.89,-233.64,288.33
706,1747592087370,0.59,-1.0,-0.73,-190.25,-255.13,242.13
707,1747592087380,0.59,-1.0,-0.73,-190.25,-255.13,242.13
708,1747592087390,0.59,-1.0,-0.73,-190.25,-255.13,242.13
709,1747592087400,0.855,-0.765,-0.185,-190.25,-255.13,242.13
710,1747592087410,1.12,-0.53,0.36,-125.24,-350.34,165.53
711,1747592087420,1.12,-0.53,0.36,-125.24,-350.34,165.53
712,1747592087430,1.12,-0.53,0.36,-125.24,-350.34,165.53
713,1747592087440,1.65,-0.165,0.6699999999999999,-51.085,-344.755,156.89
714,1747592087450,2.18,0.2,0.98,23.07,-339.17,148.25
715,1747592087460,2.18,0.2,0.98,23.07,-339.17,148.25
716,1747592087470,2.18,0.2,0.98,23.07,-339.17,148.25
717,1747592087480,2.18,0.2,0.98,23.07,-339.17,148.25
718,1747592087490,4.18,0.87,1.22,-63.54,2.75,56.82
719,1747592087500,4.18,0.87,1.22,-63.54,2.75,56.82
720,1747592087510,4.18,0.87,1.22,-63.54,2.75,56.82
721,1747592087520,4.18,0.87,1.22,-63.54,2.75,56.82
722,1747592087530,3.55,0.7,2.03,-170.1,205.26,-151.43
723,1747592087540,3.55,0.7,2.03,-170.1,205.26,-151.43
724,1747592087550,3.55,0.7,2.03,-170.1,205.26,-151.43
725,1747592087560,2.96,0.235,1.6149999999999998,-110.93,291.045,-215.12
726,1747592087570,2.37,-0.23,1.2,-51.76,376.83,-278.81
727,1747592087580,2.37,-0.23,1.2,-51.76,376.83,-278.81
728,1747592087590,2.37,-0.23,1.2,-51.76,376.83,-278.81
729,1747592087600,1.27,-1.43,-0.34,83.31,573.0,-288.57
730,1747592087610,1.27,-1.43,-0.34,83.31,573.0,-288.57
731,1747592087620,1.27,-1.43,-0.34,83.31,573.0,-288.57
732,1747592087630,0.58,-2.39,-1.78,337.46,552.25,-208.8
733,1747592087640,0.58,-2.39,-1.78,337.46,552.25,-208.8
734,1747592087650,0.58,-2.39,-1.78,337.46,552.25,-208.8
735,1747592087660,0.58,-2.39,-1.78,337.46,552.25,-208.8
736,1747592087670,0.16,-2.15,-2.8,329.35,263.37,-319.76
737,1747592087680,0.16,-2.15,-2.8,329.35,263.37,-319.76
738,1747592087690,0.16,-2.15,-2.8,329.35,263.37,-319.76
739,1747592087700,-0.06,-2.17,-2.59,274.11,187.5,-359.28
740,1747592087710,-0.28,-2.19,-2.38,218.87,111.63,-398.8
741,1747592087720,-0.28,-2.19,-2.38,218.87,111.63,-398.8
742,1747592087730,-0.28,-2.19,-2.38,218.87,111.63,-398.8
743,1747592087740,-0.38,-1.89,-2.185,129.79,167.965,-358.03
744,1747592087750,-0.48,-1.59,-1.99,40.71,224.3,-317.26
745,1747592087760,-0.48,-1.59,-1.99,40.71,224.3,-317.26
746,1747592087770,-0.48,-1.59,-1.99,40.71,224.3,-317.26
747,1747592087780,-0.14,-1.19,-1.32,40.71,224.3,-317.26
748,1747592087790,-0.14,-1.19,-1.32,-7.57,309.2,-246.22
749,1747592087800,-0.14,-1.19,-1.32,-7.57,309.2,-246.22
750,1747592087810,-0.14,-1.19,-1.32,-7.57,309.2,-246.22
751,1747592087820,-0.405,-1.12,-1.405,29.51,324.095,-200.045
752,1747592087830,-0.67,-1.05,-1.49,66.59,338.99,-153.87
753,1747592087840,-0.67,-1.05,-1.49,66.59,338.99,-153.87
754,1747592087850,-0.67,-1.05,-1.49,66.59,338.99,-153.87
755,1747592087860,-2.29,-0.71,-1.33,-19.41,283.81,-152.47
756,1747592087870,-2.29,-0.71,-1.33,-19.41,283.81,-152.47
757,1747592087880,-2.29,-0.71,-1.33,-19.41,283.81,-152.47
758,1747592087890,-2.29,-0.71,-1.33,-19.41,283.81,-152.47
759,1747592087900,-2.64,-0.725,-1.71,73.76,320.095,-41.23
760,1747592087910,-2.99,-0.74,-2.09,166.93,356.38,70.01
761,1747592087920,-2.99,-0.74,-2.09,166.93,356.38,70.01
762,1747592087930,-2.99,-0.74,-2.09,166.93,356.38,70.01
763,1747592087940,-3.295,-1.26,-3.475,120.42,288.875,67.475
764,1747592087950,-3.6,-1.78,-4.86,73.91,221.37,64.94
765,1747592087960,-3.6,-1.78,-4.86,73.91,221.37,64.94
766,1747592087970,-3.6,-1.78,-4.86,73.91,221.37,64.94
767,1747592087980,-1.51,-2.14,-4.51,-114.75,-192.08,93.69
768,1747592087990,-1.51,-2.14,-4.51,-114.75,-192.08,93.69
769,1747592088000,-1.51,-2.14,-4.51,-114.75,-192.08,93.69
770,1747592088010,-1.51,-2.14,-4.51,-114.75,-192.08,93.69
771,1747592088020,-1.05,-1.65,-2.96,-250.18,-32.59,122.13
772,1747592088030,-1.05,-1.65,-2.96,-250.18,-32.59,122.13
773,1747592088040,-1.05,-1.65,-2.96,-250.18,-32.59,122.13
774,1747592088050,-1.05,-1.65,-2.96,-250.18,-32.59,122.13
775,1747592088060,-0.62,-0.77,-2.26,-213.87,-136.29,103.52
776,1747592088070,-0.62,-0.77,-2.26,-213.87,-136.29,103.52
777,1747592088080,-0.62,-0.77,-2.26,-213.87,-136.29,103.52
778,1747592088090,-0.62,-0.77,-2.26,-213.87,-136.29,103.52
779,1747592088100,-0.28,-0.62,-1.85,-225.65,-280.09,89.36
780,1747592088110,-0.28,-0.62,-1.85,-225.65,-280.09,89.36
781,1747592088120,-0.28,-0.62,-1.85,-225.65,-280.09,89.36
782,1747592088130,-0.08,-0.8500000000000001,-1.695,-239.26,-326.235,118.35
783,1747592088140,0.12,-1.08,-1.54,-252.87,-372.38,147.34
784,1747592088150,0.12,-1.08,-1.54,-252.87,-372.38,147.34
785,1747592088160,0.12,-1.08,-1.54,-252.87,-372.38,147.34
786,1747592088170,0.56,-1.37,-1.3,-236.025,-378.175,168.245
787,1747592088180,0.56,-1.37,-1.3,-219.18,-383.97,189.15
788,1747592088190,0.56,-1.37,-1.3,-219.18,-383.97,189.15
789,1747592088200,0.56,-1.37,-1.3,-219.18,-383.97,189.15
790,1747592088210,0.585,-1.455,-1.34,-214.57,-364.1950000000001,202.88
791,1747592088220,0.61,-1.54,-1.38,-209.96,-344.42,216.61
792,1747592088230,0.61,-1.54,-1.38,-209.96,-344.42,216.61
793,1747592088240,0.61,-1.54,-1.38,-209.96,-344.42,216.61
794,1747592088250,0.46,-1.58,-1.12,-195.07,-358.06,233.49
795,1747592088260,0.46,-1.58,-1.12,-180.18,-371.7,250.37
796,1747592088270,0.46,-1.58,-1.12,-180.18,-371.7,250.37
797,1747592088280,0.48,-1.515,-1.015,-180.18,-371.7,250.37
798,1747592088290,0.5,-1.45,-0.91,-88.07,-399.23,276.49
799,1747592088300,0.5,-1.45,-0.91,-88.07,-399.23,276.49
800,1747592088310,0.5,-1.45,-0.91,-88.07,-399.23,276.49
801,1747592088320,0.5,-1.45,-0.91,-88.07,-399.23,276.49
802,1747592088330,0.7,-0.88,-0.62,-46.33,-378.3,237.0
803,1747592088340,0.7,-0.88,-0.62,-46.33,-378.3,237.0
804,1747592088350,0.7,-0.88,-0.62,-46.33,-378.3,237.0
805,1747592088360,0.7,-0.88,-0.62,-46.33,-378.3,237.0
806,1747592088370,1.69,0.08,0.91,-148.07,-209.84,206.73
807,1747592088380,1.69,0.08,0.91,-148.07,-209.84,206.73
808,1747592088390,1.69,0.08,0.91,-148.07,-209.84,206.73
809,1747592088400,2.47,0.4649999999999999,1.535,-148.07,-209.84,206.73
810,1747592088410,3.25,0.85,2.16,-72.02,-91.31,82.34
811,1747592088420,3.25,0.85,2.16,-72.02,-91.31,82.34
812,1747592088430,3.25,0.85,2.16,-72.02,-91.31,82.34
813,1747592088440,3.465,1.08,2.17,-44.645,-24.565,18.65
814,1747592088450,3.68,1.31,2.18,-17.27,42.18,-45.04
815,1747592088460,3.68,1.31,2.18,-17.27,42.18,-45.04
816,1747592088470,3.68,1.31,2.18,-17.27,42.18,-45.04
817,1747592088480,2.71,0.69,1.75,35.16,88.5,-262.88
818,1747592088490,2.71,0.69,1.75,35.16,88.5,-262.88
819,1747592088500,2.71,0.69,1.75,35.16,88.5,-262.88
820,1747592088510,2.71,0.69,1.75,35.16,88.5,-262.88
821,1747592088520,2.295,0.1899999999999999,1.065,24.14,194.335,-300.235
822,1747592088530,1.88,-0.31,0.38,13.12,300.17,-337.59
823,1747592088540,1.88,-0.31,0.38,13.12,300.17,-337.59
824,1747592088550,1.88,-0.31,0.38,13.12,300.17,-337.59
825,1747592088560,1.07,-1.57,-0.82,41.135000000000005,364.41,-354.89
826,1747592088570,1.07,-1.57,-0.82,69.15,428.65,-372.19
827,1747592088580,1.07,-1.57,-0.82,69.15,428.65,-372.19
828,1747592088590,0.755,-1.955,-1.4349999999999998,166.015,399.75,-327.725
829,1747592088600,0.44,-2.34,-2.05,262.88,370.85,-283.26
830,1747592088610,0.44,-2.34,-2.05,262.88,370.85,-283.26
831,1747592088620,0.44,-2.34,-2.05,262.88,370.85,-283.26
832,1747592088630,0.44,-2.34,-2.05,262.88,370.85,-283.26
833,1747592088640,0.09,-2.18,-2.48,139.89,282.35,-332.03
834,1747592088650,0.09,-2.18,-2.48,139.89,282.35,-332.03
835,1747592088660,0.09,-2.18,-2.48,139.89,282.35,-332.03
836,1747592088670,-0.005,-1.93,-2.185,99.03,272.83000000000004,-316.07
837,1747592088680,-0.1,-1.68,-1.89,58.17,263.31,-300.11
838,1747592088690,-0.1,-1.68,-1.89,58.17,263.31,-300.11
839,1747592088700,-0.1,-1.68,-1.89,58.17,263.31,-300.11
840,1747592088710,-0.01,-1.495,-1.67,53.41,257.45,-284.515
841,1747592088720,0.08,-1.31,-1.45,48.65,251.59,-268.92
842,1747592088730,0.08,-1.31,-1.45,48.65,251.59,-268.92
843,1747592088740,0.08,-1.31,-1.45,48.65,251.59,-268.92
844,1747592088750,-0.0199999999999999,-1.275,-1.46,55.085,288.21,-255.92
845,1747592088760,-0.12,-1.24,-1.47,61.52,324.83,-242.92
846,1747592088770,-0.12,-1.24,-1.47,61.52,324.83,-242.92
847,1747592088780,-0.12,-1.24,-1.47,61.52,324.83,-242.92
848,1747592088790,-0.855,-0.95,-1.565,26.915000000000003,332.03,-207.275
849,1747592088800,-1.59,-0.66,-1.66,-7.69,339.23,-171.63
850,1747592088810,-1.59,-0.66,-1.66,-7.69,339.23,-171.63
851,1747592088820,-1.59,-0.66,-1.66,-7.69,339.23,-171.63
852,1747592088830,-1.925,-1.095,-2.015,-3.0200000000000005,328.33500000000004,-142.975
853,1747592088840,-2.26,-1.53,-2.37,1.65,317.44,-114.32
854,1747592088850,-2.26,-1.53,-2.37,1.65,317.44,-114.32
855,1747592088860,-2.26,-1.53,-2.37,1.65,317.44,-114.32
856,1747592088870,-2.87,-1.785,-2.935,46.235,195.92,-128.57
857,1747592088880,-3.48,-2.04,-3.5,90.82,74.4,-142.82
858,1747592088890,-3.48,-2.04,-3.5,90.82,74.4,-142.82
859,1747592088900,-3.48,-2.04,-3.5,90.82,74.4,-142.82
860,1747592088910,-3.48,-2.04,-3.5,90.82,74.4,-142.82
861,1747592088920,-3.27,-2.565,-4.01,64.66499999999999,-40.71,-53.285
862,1747592088930,-3.06,-3.09,-4.52,38.51,-155.82,36.25
863,1747592088940,-3.06,-3.09,-4.52,38.51,-155.82,36.25
864,1747592088950,-1.35,-1.83,-3.29,-157.71,-15.14,211.73
865,1747592088960,-1.35,-1.83,-3.29,-157.71,-15.14,211.73
866,1747592088970,-1.35,-1.83,-3.29,-157.71,-15.14,211.73
867,1747592088980,-1.35,-1.83,-3.29,-157.71,-15.14,211.73
868,1747592088990,-0.88,-0.95,-2.21,-154.97,-165.77,190.43
869,1747592089000,-0.88,-0.95,-2.21,-154.97,-165.77,190.43
870,1747592089010,-0.88,-0.95,-2.21,-154.97,-165.77,190.43
871,1747592089020,-0.88,-0.95,-2.21,-154.97,-165.77,190.43
872,1747592089030,-0.52,-0.81,-1.68,-160.22,-272.4,194.09
873,1747592089040,-0.52,-0.81,-1.68,-160.22,-272.4,194.09
874,1747592089050,-0.52,-0.81,-1.68,-160.22,-272.4,194.09
875,1747592089060,-0.215,-0.92,-1.505,-160.22,-272.4,194.09
876,1747592089070,0.09,-1.03,-1.33,-152.89,-334.9,234.13
877,1747592089080,0.09,-1.03,-1.33,-152.89,-334.9,234.13
878,1747592089090,0.09,-1.03,-1.33,-152.89,-334.9,234.13
879,1747592089100,0.3399999999999999,-1.115,-1.34,-159.36,-343.535,245.76
880,1747592089110,0.59,-1.2,-1.35,-165.83,-352.17,257.39
881,1747592089120,0.59,-1.2,-1.35,-165.83,-352.17,257.39
882,1747592089130,0.59,-1.2,-1.35,-165.83,-352.17,257.39
883,1747592089140,0.56,-1.2999999999999998,-1.3450000000000002,-165.83,-352.17,257.39
884,1747592089150,0.53,-1.4,-1.34,-170.17,-322.69,273.74
885,1747592089160,0.53,-1.4,-1.34,-170.17,-322.69,273.74
886,1747592089170,0.53,-1.4,-1.34,-170.17,-322.69,273.74
887,1747592089180,0.56,-1.41,-1.41,-170.17,-322.69,273.74
888,1747592089190,0.56,-1.41,-1.41,-169.8,-323.36,293.4
889,1747592089200,0.56,-1.41,-1.41,-169.8,-323.36,293.4
890,1747592089210,0.56,-1.41,-1.41,-169.8,-323.36,293.4
891,1747592089220,0.5700000000000001,-1.42,-1.325,-159.67000000000002,-333.035,293.215
892,1747592089230,0.58,-1.43,-1.24,-149.54,-342.71,293.03
893,1747592089240,0.58,-1.43,-1.24,-149.54,-342.71,293.03
894,1747592089250,0.58,-1.43,-1.24,-149.54,-342.71,293.03
895,1747592089260,0.67,-1.1,-0.81,-149.54,-342.71,293.03
896,1747592089270,0.67,-1.1,-0.81,-92.22,-360.66,266.85
897,1747592089280,0.67,-1.1,-0.81,-92.22,-360.66,266.85
898,1747592089290,0.67,-1.1,-0.81,-92.22,-360.66,266.85
899,1747592089300,1.3,-0.56,0.12,-90.115,-365.755,261.66
900,1747592089310,1.93,-0.02,1.05,-88.01,-370.85,256.47
901,1747592089320,1.93,-0.02,1.05,-88.01,-370.85,256.47
902,1747592089330,1.93,-0.02,1.05,-88.01,-370.85,256.47
903,1747592089340,4.54,0.94,1.96,38.39,-74.95,225.65
904,1747592089350,4.54,0.94,1.96,38.39,-74.95,225.65
905,1747592089360,4.54,0.94,1.96,38.39,-74.95,225.65
906,1747592089370,4.49,1.45,1.78,-35.22,50.9,-76.9
907,1747592089380,4.49,1.45,1.78,-35.22,50.9,-76.9
908,1747592089390,4.49,1.45,1.78,-35.22,50.9,-76.9
909,1747592089400,4.49,1.45,1.78,-35.22,50.9,-76.9
910,1747592089410,3.24,0.4,1.6,-63.05,253.72,-315.37
911,1747592089420,3.24,0.4,1.6,-63.05,253.72,-315.37
912,1747592089430,3.24,0.4,1.6,-63.05,253.72,-315.37
913,1747592089440,3.24,0.4,1.6,-63.05,253.72,-315.37
914,1747592089450,2.17,-0.9,0.18,-8.36,449.46,-393.8
915,1747592089460,2.17,-0.9,0.18,-8.36,449.46,-393.8
916,1747592089470,2.17,-0.9,0.18,-8.36,449.46,-393.8
917,1747592089480,1.55,-1.65,-0.5950000000000001,-8.36,449.46,-393.8
918,1747592089490,0.93,-2.4,-1.37,200.38,547.12,-347.35
919,1747592089500,0.93,-2.4,-1.37,200.38,547.12,-347.35
920,1747592089510,0.93,-2.4,-1.37,200.38,547.12,-347.35
921,1747592089520,0.825,-2.6,-2.245,258.545,471.04,-329.285
922,1747592089530,0.72,-2.8,-3.12,316.71,394.96,-311.22
923,1747592089540,0.72,-2.8,-3.12,316.71,394.96,-311.22
924,1747592089550,0.72,-2.8,-3.12,316.71,394.96,-311.22
925,1747592089560,0.2,-2.24,-2.36,128.05,337.46,-340.52
926,1747592089570,0.2,-2.24,-2.36,128.05,337.46,-340.52
927,1747592089580,0.2,-2.24,-2.36,128.05,337.46,-340.52
928,1747592089590,0.2,-2.24,-2.36,128.05,337.46,-340.52
929,1747592089600,0.185,-2.095,-2.17,125.245,290.71,-336.67
930,1747592089610,0.17,-1.95,-1.98,122.44,243.96,-332.82
931,1747592089620,0.17,-1.95,-1.98,122.44,243.96,-332.82
932,1747592089630,0.17,-1.95,-1.98,122.44,243.96,-332.82
933,1747592089640,0.07,-1.62,-1.68,87.04,234.86,-308.78
934,1747592089650,0.07,-1.62,-1.68,87.04,234.86,-308.78
935,1747592089660,0.07,-1.62,-1.68,87.04,234.86,-308.78
936,1747592089670,0.07,-1.62,-1.68,87.04,234.86,-308.78
937,1747592089680,-0.73,-1.45,-1.57,96.62,284.18,-243.9
938,1747592089690,-0.73,-1.45,-1.57,96.62,284.18,-243.9
939,1747592089700,-0.73,-1.45,-1.57,96.62,284.18,-243.9
940,1747592089710,-0.73,-1.45,-1.57,96.62,284.18,-243.9
941,1747592089720,-2.14,-0.85,-1.82,-20.32,348.14,-138.73
942,1747592089730,-2.14,-0.85,-1.82,-20.32,348.14,-138.73
943,1747592089740,-2.14,-0.85,-1.82,-20.32,348.14,-138.73
944,1747592089750,-2.14,-0.85,-1.82,-20.32,348.14,-138.73
945,1747592089760,-2.7,-0.68,-2.89,70.31,435.79,-18.55
946,1747592089770,-2.7,-0.68,-2.89,70.31,435.79,-18.55
947,1747592089780,-2.7,-0.68,-2.89,70.31,435.79,-18.55
948,1747592089790,-3.285,-1.875,-3.505,70.31,435.79,-18.55
949,1747592089800,-3.87,-3.07,-4.12,176.03,-337.04,-65.55
950,1747592089810,-3.87,-3.07,-4.12,176.03,-337.04,-65.55
951,1747592089820,-3.87,-3.07,-4.12,176.03,-337.04,-65.55
952,1747592089830,-2.91,-2.98,-3.885,47.7,-229.92,68.33000000000001
953,1747592089840,-1.95,-2.89,-3.65,-80.63,-122.8,202.21
954,1747592089850,-1.95,-2.89,-3.65,-80.63,-122.8,202.21
955,1747592089860,-1.95,-2.89,-3.65,-80.63,-122.8,202.21
956,1747592089870,-1.475,-2.46,-3.03,-79.07,-101.315,234.255
957,1747592089880,-1.0,-2.03,-2.41,-77.51,-79.83,266.3
958,1747592089890,-1.0,-2.03,-2.41,-77.51,-79.83,266.3
959,1747592089900,-1.0,-2.03,-2.41,-77.51,-79.83,266.3
960,1747592089910,-0.85,-1.25,-2.32,-54.5,-173.83,252.32
961,1747592089920,-0.85,-1.25,-2.32,-54.5,-173.83,252.32
962,1747592089930,-0.85,-1.25,-2.32,-54.5,-173.83,252.32
963,1747592089940,-0.85,-1.25,-2.32,-54.5,-173.83,252.32
964,1747592089950,-0.35,-1.05,-1.66,-54.5,-173.83,252.32
965,1747592089960,-0.35,-1.05,-1.66,-140.26,-211.0,231.87
966,1747592089970,-0.35,-1.05,-1.66,-140.26,-211.0,231.87
967,1747592089980,-0.35,-1.05,-1.66,-140.26,-211.0,231.87
968,1747592089990,0.03,-1.2,-1.3,-164.06,-328.06,251.59
969,1747592090000,0.03,-1.2,-1.3,-164.06,-328.06,251.59
970,1747592090010,0.03,-1.2,-1.3,-164.06,-328.06,251.59
971,1747592090020,0.03,-1.2,-1.3,-164.06,-328.06,251.59
972,1747592090030,0.57,-1.37,-1.18,-154.875,-328.915,278.14
973,1747592090040,0.57,-1.37,-1.18,-145.69,-329.77,304.69
974,1747592090050,0.57,-1.37,-1.18,-145.69,-329.77,304.69
975,1747592090060,0.57,-1.37,-1.18,-145.69,-329.77,304.69
976,1747592090070,0.65,-1.39,-1.21,-159.06,-286.99,292.66
977,1747592090080,0.65,-1.39,-1.21,-159.06,-286.99,292.66
978,1747592090090,0.65,-1.39,-1.21,-159.06,-286.99,292.66
979,1747592090100,0.65,-1.39,-1.21,-159.06,-286.99,292.66
980,1747592090110,0.63,-1.54,-1.24,-150.45,-293.95,290.53
981,1747592090120,0.63,-1.54,-1.24,-150.45,-293.95,290.53
982,1747592090130,0.63,-1.54,-1.24,-150.45,-293.95,290.53
983,1747592090140,0.63,-1.54,-1.24,-150.45,-293.95,290.53
984,1747592090150,0.54,-1.49,-0.89,-120.79,-411.68,256.29
985,1747592090160,0.54,-1.49,-0.89,-120.79,-411.68,256.29
986,1747592090170,0.54,-1.49,-0.89,-120.79,-411.68,256.29
987,1747592090180,0.7150000000000001,-1.205,-0.49,-42.42,-458.71,241.305
988,1747592090190,0.89,-0.92,-0.09,35.95,-505.74,226.32
989,1747592090200,0.89,-0.92,-0.09,35.95,-505.74,226.32
990,1747592090210,0.89,-0.92,-0.09,35.95,-505.74,226.32
991,1747592090220,0.89,-0.92,-0.09,35.95,-505.74,226.32
992,1747592090230,2.51,0.74,1.13,159.55,-185.0,302.37
993,1747592090240,2.51,0.74,1.13,159.55,-185.0,302.37
994,1747592090250,2.51,0.74,1.13,159.55,-185.0,302.37
995,1747592090260,3.31,1.13,0.865,61.28,-56.855,185.76
996,1747592090270,4.11,1.52,0.6,-36.99,71.29,69.15
997,1747592090280,4.11,1.52,0.6,-36.99,71.29,69.15
998,1747592090290,3.88,1.5550000000000002,0.8500000000000001,-96.225,126.345,-20.965
999,1747592090300,3.65,1.59,1.1,-155.46,181.4,-111.08
