id,timestamp,acc_x,acc_y,acc_z,gyro_x,gyro_y,gyro_z
0,1747592228590,-0.03,-0.88,-0.51,-18.68,-10.19,-15.32
1,1747592228600,-0.05,-0.86,-0.37,-3.54,1.4,5.37
2,1747592228610,,,,,,
3,1747592228620,-0.05,-0.86,-0.37,-3.54,1.4,5.37
4,1747592228630,-0.05,-0.86,-0.37,-3.54,1.4,5.37
5,1747592228640,-0.12,-0.79,-0.18,10.25,58.59,55.42
6,1747592228650,-0.12,-0.79,-0.18,10.25,58.59,55.42
7,1747592228660,-0.12,-0.79,-0.18,10.25,58.59,55.42
8,1747592228670,,,,,,
9,1747592228680,0.41,-0.59,0.45,6.47,205.63,135.5
10,1747592228690,0.41,-0.59,0.45,6.47,205.63,135.5
11,1747592228700,0.41,-0.59,0.45,6.47,205.63,135.5
12,1747592228710,0.35,-1.4,1.04,132.63,226.99,85.69
13,1747592228720,0.35,-1.4,1.04,132.63,226.99,85.69
14,1747592228730,0.35,-1.4,1.04,132.63,226.99,85.69
15,1747592228740,-0.02,-2.34,0.66,154.32999999999998,306.49,127.59
16,1747592228750,-0.02,-2.34,0.66,176.03,385.99,169.49
17,1747592228760,-0.02,-2.34,0.66,176.03,385.99,169.49
18,1747592228770,-0.02,-2.34,0.66,176.03,385.99,169.49
19,1747592228780,-1.11,-2.89,-0.19,178.22,417.05,207.76
20,1747592228790,-1.11,-2.89,-0.19,178.22,417.05,207.76
21,1747592228800,-1.11,-2.89,-0.19,178.22,417.05,207.76
22,1747592228810,-1.605,-3.2750000000000004,-0.525,194.55,293.18,223.785
23,1747592228820,-2.1,-3.66,-0.86,210.88,169.31,239.81
24,1747592228830,-2.1,-3.66,-0.86,210.88,169.31,239.81
25,1747592228840,-2.1,-3.66,-0.86,210.88,169.31,239.81
26,1747592228850,-2.1,-3.66,-0.86,210.88,169.31,239.81
27,1747592228860,-2.01,-3.21,-1.26,220.46,-28.14,300.11
28,1747592228870,-2.01,-3.21,-1.26,220.46,-28.14,300.11
29,1747592228880,-2.01,-3.21,-1.26,220.46,-28.14,300.11
30,1747592228890,-1.845,-2.92,-1.165,204.68,-116.76,302.095
31,1747592228900,-1.68,-2.63,-1.07,188.9,-205.38,304.08
32,1747592228910,-1.68,-2.63,-1.07,188.9,-205.38,304.08
33,1747592228920,-1.68,-2.63,-1.07,188.9,-205.38,304.08
34,1747592228930,-1.68,-2.63,-1.07,188.9,-205.38,304.08
35,1747592228940,-1.31,-2.29,-0.64,212.83,-208.13,324.04
36,1747592228950,-1.31,-2.29,-0.64,212.83,-208.13,324.04
37,1747592228960,-1.31,-2.29,-0.64,212.83,-208.13,324.04
38,1747592228970,-0.83,-2.35,-0.86,203.98,-196.35,406.56
39,1747592228980,-0.83,-2.35,-0.86,203.98,-196.35,406.56
40,1747592228990,-0.83,-2.35,-0.86,203.98,-196.35,406.56
41,1747592229000,-0.83,-2.35,-0.86,203.98,-196.35,406.56
42,1747592229010,-0.14,-2.59,-1.02,203.55,-183.53,454.71
43,1747592229020,-0.14,-2.59,-1.02,203.55,-183.53,454.71
44,1747592229030,-0.14,-2.59,-1.02,203.55,-183.53,454.71
45,1747592229040,-0.14,-2.59,-1.02,203.55,-183.53,454.71
46,1747592229050,-0.03,-2.47,-1.21,217.04,-153.2,454.96
47,1747592229060,-0.03,-2.47,-1.21,217.04,-153.2,454.96
48,1747592229070,-0.03,-2.47,-1.21,217.04,-153.2,454.96
49,1747592229080,0.11,-2.37,-1.07,192.32,-147.155,464.115
50,1747592229090,0.25,-2.27,-0.93,167.6,-141.11,473.27
51,1747592229100,0.25,-2.27,-0.93,167.6,-141.11,473.27
52,1747592229110,0.25,-2.27,-0.93,167.6,-141.11,473.27
53,1747592229120,0.25,-2.27,-0.93,167.6,-141.11,473.27
54,1747592229130,0.67,-1.8,-0.85,172.06,-105.9,448.43
55,1747592229140,0.67,-1.8,-0.85,172.06,-105.9,448.43
56,1747592229150,0.67,-1.8,-0.85,172.06,-105.9,448.43
57,1747592229160,0.67,-1.8,-0.85,172.06,-105.9,448.43
58,1747592229170,1.13,-0.83,-0.55,72.88,-45.04,371.64
59,1747592229180,1.13,-0.83,-0.55,72.88,-45.04,371.64
60,1747592229190,1.13,-0.83,-0.55,72.88,-45.04,371.64
61,1747592229200,2.91,0.49,0.07,24.48,36.44,360.53
62,1747592229210,2.91,0.49,0.07,24.48,36.44,360.53
63,1747592229220,2.91,0.49,0.07,24.48,36.44,360.53
64,1747592229230,2.91,0.49,0.07,24.48,36.44,360.53
65,1747592229240,3.82,0.765,-0.285,36.655,28.38,217.285
66,1747592229250,4.73,1.04,-0.64,48.83,20.32,74.04
67,1747592229260,4.73,1.04,-0.64,48.83,20.32,74.04
68,1747592229270,4.73,1.04,-0.64,48.83,20.32,74.04
69,1747592229280,4.14,0.92,0.48,-157.41,146.73,-118.29
70,1747592229290,4.14,0.92,0.48,-157.41,146.73,-118.29
71,1747592229300,4.14,0.92,0.48,-157.41,146.73,-118.29
72,1747592229310,4.14,0.92,0.48,-157.41,146.73,-118.29
73,1747592229320,2.47,-0.28,-0.1,-146.26999999999998,179.14,-214.785
74,1747592229330,2.47,-0.28,-0.1,-135.13,211.55,-311.28
75,1747592229340,2.47,-0.28,-0.1,-135.13,211.55,-311.28
76,1747592229350,2.47,-0.28,-0.1,-135.13,211.55,-311.28
77,1747592229360,1.01,-1.73,-0.84,-97.17,448.0,-374.45
78,1747592229370,1.01,-1.73,-0.84,-97.17,448.0,-374.45
79,1747592229380,1.01,-1.73,-0.84,-97.17,448.0,-374.45
80,1747592229390,1.01,-1.73,-0.84,-97.17,448.0,-374.45
81,1747592229400,-0.41,-2.54,-2.08,48.03,356.2,-401.49
82,1747592229410,-0.41,-2.54,-2.08,48.03,356.2,-401.49
83,1747592229420,-0.41,-2.54,-2.08,48.03,356.2,-401.49
84,1747592229430,-0.655,-2.26,-2.09,16.05,284.425,-390.745
85,1747592229440,-0.9,-1.98,-2.1,-15.93,212.65,-380.0
86,1747592229450,-0.9,-1.98,-2.1,-15.93,212.65,-380.0
87,1747592229460,-0.9,-1.98,-2.1,-15.93,212.65,-380.0
88,1747592229470,-0.44,-1.47,-1.41,-44.035,200.685,-358.15
89,1747592229480,-0.44,-1.47,-1.41,-72.14,188.72,-336.3
90,1747592229490,-0.44,-1.47,-1.41,-72.14,188.72,-336.3
91,1747592229500,-0.44,-1.47,-1.41,-72.14,188.72,-336.3
92,1747592229510,-0.12,-1.2,-1.07,-69.27,249.63,-312.62
93,1747592229520,-0.12,-1.2,-1.07,-69.27,249.63,-312.62
94,1747592229530,-0.12,-1.2,-1.07,-69.27,249.63,-312.62
95,1747592229540,-0.12,-1.2,-1.07,-69.27,249.63,-312.62
96,1747592229550,-0.06,-1.24,-0.83,-47.85,349.49,-297.61
97,1747592229560,-0.06,-1.24,-0.83,-47.85,349.49,-297.61
98,1747592229570,-0.06,-1.24,-0.83,-47.85,349.49,-297.61
99,1747592229580,-0.06,-1.24,-0.83,-47.85,349.49,-297.61
100,1747592229590,-0.25,-1.87,-1.25,59.33,427.92,-228.09
101,1747592229600,-0.25,-1.87,-1.25,59.33,427.92,-228.09
102,1747592229610,-0.25,-1.87,-1.25,59.33,427.92,-228.09
103,1747592229620,-0.97,-2.28,-1.715,66.99000000000001,447.085,-220.795
104,1747592229630,-1.69,-2.69,-2.18,74.65,466.25,-213.5
105,1747592229640,-1.69,-2.69,-2.18,74.65,466.25,-213.5
106,1747592229650,-1.69,-2.69,-2.18,74.65,466.25,-213.5
107,1747592229660,-2.6950000000000003,-2.725,-2.505,115.97,481.995,-152.22
108,1747592229670,-3.7,-2.76,-2.83,157.29,497.74,-90.94
109,1747592229680,-3.7,-2.76,-2.83,157.29,497.74,-90.94
110,1747592229690,-3.7,-2.76,-2.83,157.29,497.74,-90.94
111,1747592229700,-6.19,-2.9,-3.76,157.29,497.74,-90.94
112,1747592229710,-6.19,-2.9,-3.76,90.76,79.59,-151.06
113,1747592229720,-6.19,-2.9,-3.76,90.76,79.59,-151.06
114,1747592229730,-6.19,-2.9,-3.76,90.76,79.59,-151.06
115,1747592229740,-5.295,-3.155,-3.315,63.14,-75.865,15.379999999999995
116,1747592229750,-4.4,-3.41,-2.87,35.52,-231.32,181.82
117,1747592229760,-4.4,-3.41,-2.87,35.52,-231.32,181.82
118,1747592229770,-4.4,-3.41,-2.87,35.52,-231.32,181.82
119,1747592229780,-3.045,-2.59,-2.35,-34.17999999999999,-111.02,277.065
120,1747592229790,-1.69,-1.77,-1.83,-103.88,9.28,372.31
121,1747592229800,-1.69,-1.77,-1.83,-103.88,9.28,372.31
122,1747592229810,-1.69,-1.77,-1.83,-103.88,9.28,372.31
123,1747592229820,-0.88,-1.39,-1.58,-102.385,-98.355,354.305
124,1747592229830,-0.88,-1.39,-1.58,-100.89,-205.99,336.3
125,1747592229840,-0.88,-1.39,-1.58,-100.89,-205.99,336.3
126,1747592229850,-0.88,-1.39,-1.58,-100.89,-205.99,336.3
127,1747592229860,-0.3,-1.76,-1.51,-100.28,-345.03,342.22
128,1747592229870,-0.3,-1.76,-1.51,-100.28,-345.03,342.22
129,1747592229880,-0.3,-1.76,-1.51,-100.28,-345.03,342.22
130,1747592229890,-0.3,-1.76,-1.51,-100.28,-345.03,342.22
131,1747592229900,0.13,-1.96,-1.39,-84.23,-347.38,357.115
132,1747592229910,0.13,-1.96,-1.39,-68.18,-349.73,372.01
133,1747592229920,0.13,-1.96,-1.39,-68.18,-349.73,372.01
134,1747592229930,-0.08,-2.15,-1.55,-68.18,-349.73,372.01
135,1747592229940,-0.08,-2.15,-1.55,-47.06,-313.84,401.43
136,1747592229950,-0.08,-2.15,-1.55,-47.06,-313.84,401.43
137,1747592229960,-0.08,-2.15,-1.55,-47.06,-313.84,401.43
138,1747592229970,-0.08,-2.15,-1.55,-47.06,-313.84,401.43
139,1747592229980,-0.09,-2.25,-1.61,-35.16,-289.25,443.91
140,1747592229990,-0.09,-2.25,-1.61,-35.16,-289.25,443.91
141,1747592230000,-0.09,-2.25,-1.61,-35.16,-289.25,443.91
142,1747592230010,-0.07,-2.165,-1.515,-25.97,-301.18,444.03
143,1747592230020,-0.05,-2.08,-1.42,-16.78,-313.11,444.15
144,1747592230030,-0.05,-2.08,-1.42,-16.78,-313.11,444.15
145,1747592230040,-0.05,-2.08,-1.42,-16.78,-313.11,444.15
146,1747592230050,0.2,-1.65,-1.05,12.88,-317.81,434.57
147,1747592230060,0.2,-1.65,-1.05,12.88,-317.81,434.57
148,1747592230070,0.2,-1.65,-1.05,12.88,-317.81,434.57
149,1747592230080,0.2,-1.65,-1.05,12.88,-317.81,434.57
150,1747592230090,2.14,-0.3,-0.4,57.74,-439.15,330.38
151,1747592230100,2.14,-0.3,-0.4,57.74,-439.15,330.38
152,1747592230110,2.14,-0.3,-0.4,57.74,-439.15,330.38
153,1747592230120,2.14,-0.3,-0.4,57.74,-439.15,330.38
154,1747592230130,4.51,0.88,-1.5,6.1,-38.33,256.04
155,1747592230140,4.51,0.88,-1.5,6.1,-38.33,256.04
156,1747592230150,4.51,0.88,-1.5,6.1,-38.33,256.04
157,1747592230160,4.51,0.88,-1.5,6.1,-38.33,256.04
158,1747592230170,4.76,1.27,-0.31,-231.87,0.18,-22.03
159,1747592230180,4.76,1.27,-0.31,-231.87,0.18,-22.03
160,1747592230190,4.76,1.27,-0.31,-231.87,0.18,-22.03
161,1747592230200,4.76,1.27,-0.31,-231.87,0.18,-22.03
162,1747592230210,3.47,0.11,-0.31,-282.41,162.78,-226.2
163,1747592230220,3.47,0.11,-0.31,-282.41,162.78,-226.2
164,1747592230230,3.47,0.11,-0.31,-282.41,162.78,-226.2
165,1747592230240,1.78,-1.19,-0.32,-295.5,297.82,-267.09000000000003
166,1747592230250,1.78,-1.19,-0.32,-308.59,432.86,-307.98
167,1747592230260,1.78,-1.19,-0.32,-308.59,432.86,-307.98
168,1747592230270,1.78,-1.19,-0.32,-308.59,432.86,-307.98
169,1747592230280,0.18,-2.51,-1.3,-102.48,584.9,-414.12
170,1747592230290,0.18,-2.51,-1.3,-102.48,584.9,-414.12
171,1747592230300,0.18,-2.51,-1.3,-102.48,584.9,-414.12
172,1747592230310,0.18,-2.51,-1.3,-102.48,584.9,-414.12
173,1747592230320,-1.09,-2.58,-2.24,-25.45,528.38,-341.86
174,1747592230330,-1.09,-2.58,-2.24,-25.45,528.38,-341.86
175,1747592230340,-1.09,-2.58,-2.24,-25.45,528.38,-341.86
176,1747592230350,-1.09,-2.58,-2.24,-25.45,528.38,-341.86
177,1747592230360,-0.63,-1.67,-1.71,11.41,408.14,-279.66
178,1747592230370,-0.63,-1.67,-1.71,11.41,408.14,-279.66
179,1747592230380,-0.63,-1.67,-1.71,11.41,408.14,-279.66
180,1747592230390,-0.335,-1.48,-1.475,31.615,351.775,-287.93
181,1747592230400,-0.04,-1.29,-1.24,51.82,295.41,-296.2
182,1747592230410,-0.04,-1.29,-1.24,51.82,295.41,-296.2
183,1747592230420,-0.04,-1.29,-1.24,51.82,295.41,-296.2
184,1747592230430,-0.04,-1.29,-1.24,51.82,295.41,-296.2
185,1747592230440,0.39,-1.21,-1.07,53.28,370.06,-308.53
186,1747592230450,0.39,-1.21,-1.07,53.28,370.06,-308.53
187,1747592230460,0.39,-1.21,-1.07,53.28,370.06,-308.53
188,1747592230470,-0.14,-1.7,-1.24,53.28,370.06,-308.53
189,1747592230480,-0.14,-1.7,-1.24,104.0,476.87,-267.03
190,1747592230490,-0.14,-1.7,-1.24,104.0,476.87,-267.03
191,1747592230500,-0.14,-1.7,-1.24,104.0,476.87,-267.03
192,1747592230510,-0.14,-1.7,-1.24,104.0,476.87,-267.03
193,1747592230520,-1.14,-1.65,-2.12,146.24,463.01,-156.01
194,1747592230530,-1.14,-1.65,-2.12,146.24,463.01,-156.01
195,1747592230540,-1.14,-1.65,-2.12,146.24,463.01,-156.01
196,1747592230550,-1.14,-1.65,-2.12,146.24,463.01,-156.01
197,1747592230560,-2.54,-2.04,-1.97,216.55,81.24,-111.82
198,1747592230570,-2.54,-2.04,-1.97,216.55,81.24,-111.82
199,1747592230580,-4.02,-1.71,-2.54,151.0,42.79,-183.9
200,1747592230590,-4.02,-1.71,-2.54,151.0,42.79,-183.9
201,1747592230600,-4.02,-1.71,-2.54,151.0,42.79,-183.9
202,1747592230610,-4.02,-1.71,-2.54,151.0,42.79,-183.9
203,1747592230620,-5.69,-4.33,-1.95,113.92,-33.81,-55.025000000000006
204,1747592230630,-5.69,-4.33,-1.95,76.84,-110.41,73.85
205,1747592230640,-5.69,-4.33,-1.95,76.84,-110.41,73.85
206,1747592230650,-5.69,-4.33,-1.95,76.84,-110.41,73.85
207,1747592230660,-2.57,-2.94,-1.9,-71.47,96.56,307.25
208,1747592230670,-2.57,-2.94,-1.9,-71.47,96.56,307.25
209,1747592230680,-2.57,-2.94,-1.9,-71.47,96.56,307.25
210,1747592230690,-2.57,-2.94,-1.9,-71.47,96.56,307.25
211,1747592230700,-1.48,-1.66,-1.63,-101.44,46.39,317.38
212,1747592230710,-1.48,-1.66,-1.63,-101.44,46.39,317.38
213,1747592230720,-1.48,-1.66,-1.63,-101.44,46.39,317.38
214,1747592230730,-1.12,-1.35,-1.44,-101.44,46.39,317.38
215,1747592230740,-1.12,-1.35,-1.44,-177.8,-124.08,265.38
216,1747592230750,-1.12,-1.35,-1.44,-177.8,-124.08,265.38
217,1747592230760,-1.12,-1.35,-1.44,-177.8,-124.08,265.38
218,1747592230770,-0.8,-1.93,-1.27,-177.8,-124.08,265.38
219,1747592230780,-0.8,-1.93,-1.27,-198.3,-221.44,331.73
220,1747592230790,-0.8,-1.93,-1.27,-198.3,-221.44,331.73
221,1747592230800,-0.8,-1.93,-1.27,-198.3,-221.44,331.73
222,1747592230810,-0.05,-2.27,-1.2,-187.93,-307.92,380.07
223,1747592230820,-0.05,-2.27,-1.2,-187.93,-307.92,380.07
224,1747592230830,-0.05,-2.27,-1.2,-187.93,-307.92,380.07
225,1747592230840,-0.05,-2.27,-1.2,-187.93,-307.92,380.07
226,1747592230850,-0.05,-2.27,-1.2,-187.93,-307.92,380.07
227,1747592230860,0.12,-2.43,-1.33,-146.67,-303.1,401.31
228,1747592230870,0.12,-2.43,-1.33,-146.67,-303.1,401.31
229,1747592230880,0.12,-2.43,-1.33,-146.67,-303.1,401.31
230,1747592230890,0.15,-2.32,-1.33,-146.67,-303.1,401.31
231,1747592230900,0.15,-2.32,-1.33,-151.92,-228.58,425.84
232,1747592230910,0.15,-2.32,-1.33,-151.92,-228.58,425.84
233,1747592230920,0.15,-2.32,-1.33,-151.92,-228.58,425.84
234,1747592230930,0.27,-2.1,-1.21,-93.93,-312.99,442.08
235,1747592230940,0.27,-2.1,-1.21,-93.93,-312.99,442.08
236,1747592230950,0.27,-2.1,-1.21,-93.93,-312.99,442.08
237,1747592230960,0.27,-2.1,-1.21,-93.93,-312.99,442.08
238,1747592230970,0.5,-1.66,-0.97,-20.94,-328.19,424.93
239,1747592230980,0.5,-1.66,-0.97,-20.94,-328.19,424.93
240,1747592230990,0.5,-1.66,-0.97,-20.94,-328.19,424.93
241,1747592231000,0.5,-1.66,-0.97,-20.94,-328.19,424.93
242,1747592231010,1.35,-0.76,-0.52,50.66,-328.0,350.77
243,1747592231020,1.35,-0.76,-0.52,50.66,-328.0,350.77
244,1747592231030,1.35,-0.76,-0.52,50.66,-328.0,350.77
245,1747592231040,1.35,-0.76,-0.52,50.66,-328.0,350.77
246,1747592231050,3.4,0.66,0.03,-43.76,-78.19,279.97
247,1747592231060,3.4,0.66,0.03,-43.76,-78.19,279.97
248,1747592231070,3.4,0.66,0.03,-43.76,-78.19,279.97
249,1747592231080,5.23,1.26,0.38,-43.76,-78.19,279.97
250,1747592231090,5.23,1.26,0.38,-138.0,26.49,90.21
251,1747592231100,5.23,1.26,0.38,-138.0,26.49,90.21
252,1747592231110,5.23,1.26,0.38,-138.0,26.49,90.21
253,1747592231120,4.960000000000001,1.06,0.415,-145.475,73.94500000000001,-78.245
254,1747592231130,4.69,0.86,0.45,-152.95,121.4,-246.7
255,1747592231140,4.69,0.86,0.45,-152.95,121.4,-246.7
256,1747592231150,4.69,0.86,0.45,-152.95,121.4,-246.7
257,1747592231160,3.515,-0.035,0.075,-173.765,264.22,-320.22
258,1747592231170,2.34,-0.93,-0.3,-194.58,407.04,-393.74
259,1747592231180,2.34,-0.93,-0.3,-194.58,407.04,-393.74
260,1747592231190,2.34,-0.93,-0.3,-194.58,407.04,-393.74
261,1747592231200,0.15,-2.73,-1.54,-94.515,452.545,-417.42
262,1747592231210,0.15,-2.73,-1.54,5.55,498.05,-441.1
263,1747592231220,0.15,-2.73,-1.54,5.55,498.05,-441.1
264,1747592231230,0.15,-2.73,-1.54,5.55,498.05,-441.1
265,1747592231240,-0.55,-2.5,-1.97,20.63,395.14,-394.71
266,1747592231250,-0.55,-2.5,-1.97,20.63,395.14,-394.71
267,1747592231260,-0.55,-2.5,-1.97,20.63,395.14,-394.71
268,1747592231270,-0.55,-2.5,-1.97,20.63,395.14,-394.71
269,1747592231280,-0.16,-1.84,-1.56,21.97,355.22,-337.04
270,1747592231290,-0.16,-1.84,-1.56,21.97,355.22,-337.04
271,1747592231300,-0.16,-1.84,-1.56,21.97,355.22,-337.04
272,1747592231310,-0.1,-1.815,-1.535,30.395,327.635,-343.845
273,1747592231320,-0.04,-1.79,-1.51,38.82,300.05,-350.65
274,1747592231330,-0.04,-1.79,-1.51,38.82,300.05,-350.65
275,1747592231340,-0.04,-1.79,-1.51,38.82,300.05,-350.65
276,1747592231350,-0.135,-1.785,-1.475,49.315,302.43,-325.565
277,1747592231360,-0.23,-1.78,-1.44,59.81,304.81,-300.48
278,1747592231370,-0.23,-1.78,-1.44,59.81,304.81,-300.48
279,1747592231380,-0.23,-1.78,-1.44,59.81,304.81,-300.48
280,1747592231390,-0.2,-1.635,-1.375,60.85,298.495,-293.305
281,1747592231400,-0.17,-1.49,-1.31,61.89,292.18,-286.13
282,1747592231410,-0.17,-1.49,-1.31,61.89,292.18,-286.13
283,1747592231420,-0.17,-1.49,-1.31,61.89,292.18,-286.13
284,1747592231430,-1.06,-1.83,-1.7,96.56,165.71,-277.65
285,1747592231440,-1.06,-1.83,-1.7,96.56,165.71,-277.65
286,1747592231450,-1.06,-1.83,-1.7,96.56,165.71,-277.65
287,1747592231460,-1.06,-1.83,-1.7,96.56,165.71,-277.65
288,1747592231470,-2.22,-1.93,-1.5,-19.78,297.79,-193.54
289,1747592231480,-2.22,-1.93,-1.5,-19.78,297.79,-193.54
290,1747592231490,-2.22,-1.93,-1.5,-19.78,297.79,-193.54
291,1747592231500,-2.22,-1.93,-1.5,-19.78,297.79,-193.54
292,1747592231510,-3.6,-1.55,-1.74,122.01,327.94,-63.35
293,1747592231520,-3.6,-1.55,-1.74,122.01,327.94,-63.35
294,1747592231530,-3.6,-1.55,-1.74,122.01,327.94,-63.35
295,1747592231540,-4.835,-2.79,-2.22,122.01,327.94,-63.35
296,1747592231550,-6.07,-4.03,-2.7,61.77,-85.82,-69.82
297,1747592231560,-6.07,-4.03,-2.7,61.77,-85.82,-69.82
298,1747592231570,-6.07,-4.03,-2.7,61.77,-85.82,-69.82
299,1747592231580,-4.565,-3.555,-2.7750000000000004,75.595,-156.22,80.2
300,1747592231590,-3.06,-3.08,-2.85,89.42,-226.62,230.22
301,1747592231600,-3.06,-3.08,-2.85,89.42,-226.62,230.22
302,1747592231610,-3.06,-3.08,-2.85,89.42,-226.62,230.22
303,1747592231620,-3.06,-3.08,-2.85,89.42,-226.62,230.22
304,1747592231630,-1.71,-1.76,-1.59,-82.28,-40.16,320.68
305,1747592231640,-1.71,-1.76,-1.59,-82.28,-40.16,320.68
306,1747592231650,-1.71,-1.76,-1.59,-82.28,-40.16,320.68
307,1747592231660,-1.22,-1.42,-1.39,-82.28,-40.16,320.68
308,1747592231670,-1.22,-1.42,-1.39,-88.07,-245.06,324.65
309,1747592231680,-1.22,-1.42,-1.39,-88.07,-245.06,324.65
310,1747592231690,-1.22,-1.42,-1.39,-88.07,-245.06,324.65
311,1747592231700,-0.67,-1.69,-1.19,-88.07,-245.06,324.65
312,1747592231710,-0.67,-1.69,-1.19,-106.81,-256.29,393.74
313,1747592231720,-0.67,-1.69,-1.19,-106.81,-256.29,393.74
314,1747592231730,-0.67,-1.69,-1.19,-106.81,-256.29,393.74
315,1747592231740,-0.06,-1.83,-1.18,-101.26,-245.06,396.85
316,1747592231750,-0.06,-1.83,-1.18,-101.26,-245.06,396.85
317,1747592231760,-0.06,-1.83,-1.18,-101.26,-245.06,396.85
318,1747592231770,-0.06,-1.83,-1.18,-101.26,-245.06,396.85
319,1747592231780,-0.1,-1.99,-1.23,-52.73,-261.96,401.61
320,1747592231790,-0.1,-1.99,-1.23,-52.73,-261.96,401.61
321,1747592231800,-0.1,-1.99,-1.23,-52.73,-261.96,401.61
322,1747592231810,-0.1,-1.99,-1.23,-52.73,-261.96,401.61
323,1747592231820,0.03,-2.0,-1.44,-83.13,-222.35,445.43
324,1747592231830,0.03,-2.0,-1.44,-83.13,-222.35,445.43
325,1747592231840,0.03,-2.0,-1.44,-83.13,-222.35,445.43
326,1747592231850,0.03,-2.0,-1.44,-83.13,-222.35,445.43
327,1747592231860,0.1,-1.75,-1.17,-88.62,-253.66,420.17
328,1747592231870,0.1,-1.75,-1.17,-88.62,-253.66,420.17
329,1747592231880,0.1,-1.75,-1.17,-88.62,-253.66,420.17
330,1747592231890,0.1,-1.75,-1.17,-88.62,-253.66,420.17
331,1747592231900,0.25,-1.39,-1.08,-64.51,-292.72,379.15
332,1747592231910,0.25,-1.39,-1.08,-64.51,-292.72,379.15
333,1747592231920,0.25,-1.39,-1.08,-64.51,-292.72,379.15
334,1747592231930,1.48,-0.66,-0.2,-64.51,-292.72,379.15
335,1747592231940,1.48,-0.66,-0.2,-52.43,-399.9,257.87
336,1747592231950,1.48,-0.66,-0.2,-52.43,-399.9,257.87
337,1747592231960,1.48,-0.66,-0.2,-52.43,-399.9,257.87
338,1747592231970,3.73,0.7,0.23,13.98,-94.79,237.3
339,1747592231980,3.73,0.7,0.23,13.98,-94.79,237.3
340,1747592231990,3.73,0.7,0.23,13.98,-94.79,237.3
341,1747592232000,3.73,0.7,0.23,13.98,-94.79,237.3
342,1747592232010,4.35,0.965,0.19,-50.995,-21.485000000000003,99.365
343,1747592232020,4.97,1.23,0.15,-115.97,51.82,-38.57
344,1747592232030,4.97,1.23,0.15,-115.97,51.82,-38.57
345,1747592232040,4.97,1.23,0.15,-115.97,51.82,-38.57
346,1747592232050,3.95,0.47,0.65,-117.13,31.8,-294.98
347,1747592232060,3.95,0.47,0.65,-117.13,31.8,-294.98
348,1747592232070,3.95,0.47,0.65,-117.13,31.8,-294.98
349,1747592232080,3.95,0.47,0.65,-117.13,31.8,-294.98
350,1747592232090,2.15,-0.88,-0.38,-159.0,356.02,-354.86
351,1747592232100,2.15,-0.88,-0.38,-159.0,356.02,-354.86
352,1747592232110,2.15,-0.88,-0.38,-159.0,356.02,-354.86
353,1747592232120,0.89,-2.11,-1.04,-51.15,484.01,-409.55
354,1747592232130,0.89,-2.11,-1.04,-51.15,484.01,-409.55
355,1747592232140,0.89,-2.11,-1.04,-51.15,484.01,-409.55
356,1747592232150,0.89,-2.11,-1.04,-51.15,484.01,-409.55
357,1747592232160,-0.73,-2.87,-2.35,112.61,289.06,-428.1
358,1747592232170,-0.73,-2.87,-2.35,112.61,289.06,-428.1
359,1747592232180,-0.73,-2.87,-2.35,112.61,289.06,-428.1
360,1747592232190,-0.73,-2.87,-2.35,112.61,289.06,-428.1
361,1747592232200,-1.2,-2.2,-2.02,-53.77,254.7,-382.69
362,1747592232210,-1.2,-2.2,-2.02,-53.77,254.7,-382.69
363,1747592232220,-1.2,-2.2,-2.02,-53.77,254.7,-382.69
364,1747592232230,-0.905,-1.895,-1.73,-70.74,262.08500000000004,-349.58000000000004
365,1747592232240,-0.61,-1.59,-1.44,-87.71,269.47,-316.47
366,1747592232250,-0.61,-1.59,-1.44,-87.71,269.47,-316.47
367,1747592232260,-0.61,-1.59,-1.44,-87.71,269.47,-316.47
368,1747592232270,-0.41,-1.51,-1.315,-73.75999999999999,230.195,-330.66
369,1747592232280,-0.21,-1.43,-1.19,-59.81,190.92,-344.85
370,1747592232290,-0.21,-1.43,-1.19,-59.81,190.92,-344.85
371,1747592232300,-0.21,-1.43,-1.19,-59.81,190.92,-344.85
372,1747592232310,-0.31,-1.53,-1.27,-50.78,273.74,-306.27
373,1747592232320,-0.31,-1.53,-1.27,-50.78,273.74,-306.27
374,1747592232330,-0.31,-1.53,-1.27,-50.78,273.74,-306.27
375,1747592232340,-0.31,-1.53,-1.27,-50.78,273.74,-306.27
376,1747592232350,-1.29,-1.69,-1.55,-41.08,345.28,-277.65
377,1747592232360,-1.29,-1.69,-1.55,-41.08,345.28,-277.65
378,1747592232370,-1.29,-1.69,-1.55,-41.08,345.28,-277.65
379,1747592232380,-1.935,-1.795,-1.52,-41.08,345.28,-277.65
380,1747592232390,-2.58,-1.9,-1.49,-50.84,210.63,-186.89
381,1747592232400,-2.58,-1.9,-1.49,-50.84,210.63,-186.89
382,1747592232410,-2.58,-1.9,-1.49,-50.84,210.63,-186.89
383,1747592232420,-3.36,-1.85,-1.225,-50.84,210.63,-186.89
384,1747592232430,-4.14,-1.8,-0.96,-74.46,264.53,-53.34
385,1747592232440,-4.14,-1.8,-0.96,-74.46,264.53,-53.34
386,1747592232450,-4.14,-1.8,-0.96,-74.46,264.53,-53.34
387,1747592232460,-4.915,-2.51,-1.03,-41.595,46.75499999999998,-107.45
388,1747592232470,-5.69,-3.22,-1.1,-8.73,-171.02,-161.56
389,1747592232480,-5.69,-3.22,-1.1,-8.73,-171.02,-161.56
390,1747592232490,-5.69,-3.22,-1.1,-8.73,-171.02,-161.56
391,1747592232500,-3.9,-3.24,-1.56,83.44,-138.31,148.86
392,1747592232510,-3.9,-3.24,-1.56,83.44,-138.31,148.86
393,1747592232520,-3.9,-3.24,-1.56,83.44,-138.31,148.86
394,1747592232530,-3.9,-3.24,-1.56,83.44,-138.31,148.86
395,1747592232540,-3.9,-3.24,-1.56,83.44,-138.31,148.86
396,1747592232550,-1.98,-2.11,-1.78,-19.1,141.54,366.52
397,1747592232560,-1.98,-2.11,-1.78,-19.1,141.54,366.52
398,1747592232570,-1.98,-2.11,-1.78,-19.1,141.54,366.52
399,1747592232580,-1.18,-1.3,-1.76,-28.32,0.2449999999999903,331.085
400,1747592232590,-1.18,-1.3,-1.76,-37.54,-141.05,295.65
401,1747592232600,-1.18,-1.3,-1.76,-37.54,-141.05,295.65
402,1747592232610,-1.18,-1.3,-1.76,-37.54,-141.05,295.65
403,1747592232620,-0.73,-1.36,-1.42,-120.48,-233.58,316.47
404,1747592232630,-0.73,-1.36,-1.42,-120.48,-233.58,316.47
405,1747592232640,-0.73,-1.36,-1.42,-120.48,-233.58,316.47
406,1747592232650,-0.44,-1.475,-1.31,-120.48,-233.58,316.47
407,1747592232660,-0.15,-1.59,-1.2,-92.65,-310.91,336.79
408,1747592232670,-0.15,-1.59,-1.2,-92.65,-310.91,336.79
409,1747592232680,-0.15,-1.59,-1.2,-92.65,-310.91,336.79
410,1747592232690,-0.105,-1.645,-1.245,-92.65,-310.91,336.79
411,1747592232700,-0.06,-1.7,-1.29,-32.23,-327.94,330.51
412,1747592232710,-0.06,-1.7,-1.29,-32.23,-327.94,330.51
413,1747592232720,-0.06,-1.7,-1.29,-32.23,-327.94,330.51
414,1747592232730,-0.06,-1.7,-1.29,-32.23,-327.94,330.51
415,1747592232740,0.03,-1.85,-1.42,-44.07,-273.99,405.33
416,1747592232750,0.03,-1.85,-1.42,-44.07,-273.99,405.33
417,1747592232760,0.03,-1.85,-1.42,-44.07,-273.99,405.33
418,1747592232770,0.105,-1.775,-1.295,-40.74,-265.75,401.365
419,1747592232780,0.18,-1.7,-1.17,-37.41,-257.51,397.4
420,1747592232790,0.18,-1.7,-1.17,-37.41,-257.51,397.4
421,1747592232800,0.18,-1.7,-1.17,-37.41,-257.51,397.4
422,1747592232810,0.235,-1.53,-1.005,-8.969999999999999,-269.195,367.525
423,1747592232820,0.29,-1.36,-0.84,19.47,-280.88,337.65
424,1747592232830,0.29,-1.36,-0.84,19.47,-280.88,337.65
425,1747592232840,0.29,-1.36,-0.84,19.47,-280.88,337.65
426,1747592232850,0.66,-0.99,-0.475,46.385,-325.985,308.655
427,1747592232860,1.03,-0.62,-0.11,73.3,-371.09,279.66
428,1747592232870,1.03,-0.62,-0.11,73.3,-371.09,279.66
429,1747592232880,1.03,-0.62,-0.11,73.3,-371.09,279.66
430,1747592232890,2.25,0.54,0.17,97.29,-275.6,247.62
431,1747592232900,2.25,0.54,0.17,121.28,-180.11,215.58
432,1747592232910,2.25,0.54,0.17,121.28,-180.11,215.58
433,1747592232920,2.25,0.54,0.17,121.28,-180.11,215.58
434,1747592232930,4.04,1.1,-0.58,2.93,5.31,48.95
435,1747592232940,4.04,1.1,-0.58,2.93,5.31,48.95
436,1747592232950,4.04,1.1,-0.58,2.93,5.31,48.95
437,1747592232960,4.04,1.1,-0.58,2.93,5.31,48.95
438,1747592232970,4.12,1.61,0.31,-128.05,-40.47,-134.95
439,1747592232980,4.12,1.61,0.31,-128.05,-40.47,-134.95
440,1747592232990,4.12,1.61,0.31,-128.05,-40.47,-134.95
441,1747592233000,3.425,0.935,0.0,-128.05,-40.47,-134.95
442,1747592233010,2.73,0.26,-0.31,-143.01,162.41,-306.4
443,1747592233020,2.73,0.26,-0.31,-143.01,162.41,-306.4
444,1747592233030,2.73,0.26,-0.31,-143.01,162.41,-306.4
445,1747592233040,1.46,-1.3,-0.66,-143.01,162.41,-306.4
446,1747592233050,1.46,-1.3,-0.66,-173.4,368.1,-397.77
447,1747592233060,1.46,-1.3,-0.66,-173.4,368.1,-397.77
448,1747592233070,1.46,-1.3,-0.66,-173.4,368.1,-397.77
449,1747592233080,0.74,-1.995,-1.175,-86.12,366.085,-424.015
450,1747592233090,0.02,-2.69,-1.69,1.16,364.07,-450.26
451,1747592233100,0.02,-2.69,-1.69,1.16,364.07,-450.26
452,1747592233110,0.02,-2.69,-1.69,1.16,364.07,-450.26
453,1747592233120,-0.2749999999999999,-2.64,-1.875,-9.735,309.75,-441.59
454,1747592233130,-0.57,-2.59,-2.06,-20.63,255.43,-432.92
455,1747592233140,-0.57,-2.59,-2.06,-20.63,255.43,-432.92
456,1747592233150,-0.57,-2.59,-2.06,-20.63,255.43,-432.92
457,1747592233160,-0.475,-2.34,-1.855,-55.39,291.81,-397.645
458,1747592233170,-0.38,-2.09,-1.65,-90.15,328.19,-362.37
459,1747592233180,-0.38,-2.09,-1.65,-90.15,328.19,-362.37
460,1747592233190,-0.38,-2.09,-1.65,-90.15,328.19,-362.37
461,1747592233200,0.05,-1.76,-1.22,-36.44,304.69,-351.01
462,1747592233210,0.05,-1.76,-1.22,-36.44,304.69,-351.01
463,1747592233220,0.05,-1.76,-1.22,-36.44,304.69,-351.01
464,1747592233230,0.05,-1.76,-1.22,-36.44,304.69,-351.01
465,1747592233240,-0.45,-1.95,-1.33,54.44,182.01,-363.83
466,1747592233250,-0.45,-1.95,-1.33,54.44,182.01,-363.83
467,1747592233260,-0.45,-1.95,-1.33,54.44,182.01,-363.83
468,1747592233270,-0.45,-1.95,-1.33,54.44,182.01,-363.83
469,1747592233280,-0.98,-1.92,-1.76,22.43,248.355,-315.54999999999995
470,1747592233290,-0.98,-1.92,-1.76,-9.58,314.7,-267.27
471,1747592233300,-0.98,-1.92,-1.76,-9.58,314.7,-267.27
472,1747592233310,-0.98,-1.92,-1.76,-9.58,314.7,-267.27
473,1747592233320,-2.13,-2.05,-1.68,-10.31,209.47,-172.67
474,1747592233330,-2.13,-2.05,-1.68,-10.31,209.47,-172.67
475,1747592233340,-2.13,-2.05,-1.68,-10.31,209.47,-172.67
476,1747592233350,-3.54,-1.57,-1.15,-55.18,241.09,-109.44
477,1747592233360,-3.54,-1.57,-1.15,-55.18,241.09,-109.44
478,1747592233370,-3.54,-1.57,-1.15,-55.18,241.09,-109.44
479,1747592233380,-4.279999999999999,-2.135,-1.35,-6.23,156.005,-134.86
480,1747592233390,-5.02,-2.7,-1.55,42.72,70.92,-160.28
481,1747592233400,-5.02,-2.7,-1.55,42.72,70.92,-160.28
482,1747592233410,-5.02,-2.7,-1.55,42.72,70.92,-160.28
483,1747592233420,-4.61,-3.81,-1.44,42.72,70.92,-160.28
484,1747592233430,-4.61,-3.81,-1.44,93.57,-299.32,97.6
485,1747592233440,-4.61,-3.81,-1.44,93.57,-299.32,97.6
486,1747592233450,-4.61,-3.81,-1.44,93.57,-299.32,97.6
487,1747592233460,-3.47,-3.18,-1.5,54.05,-66.865,224.735
488,1747592233470,-2.33,-2.55,-1.56,14.53,165.59,351.87
489,1747592233480,-2.33,-2.55,-1.56,14.53,165.59,351.87
490,1747592233490,-2.33,-2.55,-1.56,14.53,165.59,351.87
491,1747592233500,-1.975,-2.075,-1.57,12.33,27.620000000000005,337.83000000000004
492,1747592233510,-1.62,-1.6,-1.58,10.13,-110.35,323.79
493,1747592233520,-1.62,-1.6,-1.58,10.13,-110.35,323.79
494,1747592233530,-1.62,-1.6,-1.58,10.13,-110.35,323.79
495,1747592233540,-0.99,-1.4,-1.42,-26.55,-244.75,323.79
496,1747592233550,-0.99,-1.4,-1.42,-26.55,-244.75,323.79
497,1747592233560,-0.99,-1.4,-1.42,-26.55,-244.75,323.79
498,1747592233570,-0.99,-1.4,-1.42,-26.55,-244.75,323.79
499,1747592233580,-0.49,-1.78,-1.28,-26.55,-244.75,323.79
500,1747592233590,-0.49,-1.78,-1.28,-45.17,-254.09,360.96
501,1747592233600,-0.49,-1.78,-1.28,-45.17,-254.09,360.96
502,1747592233610,-0.49,-1.78,-1.28,-45.17,-254.09,360.96
503,1747592233620,-0.05,-1.83,-1.41,-7.69,-259.64,398.25
504,1747592233630,-0.05,-1.83,-1.41,-7.69,-259.64,398.25
505,1747592233640,-0.05,-1.83,-1.41,-7.69,-259.64,398.25
506,1747592233650,-0.05,-1.83,-1.41,-7.69,-259.64,398.25
507,1747592233660,0.04,-2.01,-1.47,-27.53,-252.14,427.92
508,1747592233670,0.04,-2.01,-1.47,-27.53,-252.14,427.92
509,1747592233680,0.04,-2.01,-1.47,-27.53,-252.14,427.92
510,1747592233690,0.09,-1.975,-1.4249999999999998,-15.075,-256.38,430.5750000000001
511,1747592233700,0.14,-1.94,-1.38,-2.62,-260.62,433.23
512,1747592233710,0.14,-1.94,-1.38,-2.62,-260.62,433.23
513,1747592233720,0.14,-1.94,-1.38,-2.62,-260.62,433.23
514,1747592233730,0.215,-1.79,-1.31,6.045,-263.43,423.31
515,1747592233740,0.29,-1.64,-1.24,14.71,-266.24,413.39
516,1747592233750,0.29,-1.64,-1.24,14.71,-266.24,413.39
517,1747592233760,0.29,-1.64,-1.24,14.71,-266.24,413.39
518,1747592233770,0.405,-1.395,-1.105,14.62,-257.815,389.925
519,1747592233780,0.52,-1.15,-0.97,14.53,-249.39,366.46
520,1747592233790,0.52,-1.15,-0.97,14.53,-249.39,366.46
521,1747592233800,0.52,-1.15,-0.97,14.53,-249.39,366.46
522,1747592233810,1.22,-0.6649999999999999,-0.71,-25.785,-211.12,370.575
523,1747592233820,1.92,-0.18,-0.45,-66.1,-172.85,374.69
524,1747592233830,1.92,-0.18,-0.45,-66.1,-172.85,374.69
525,1747592233840,1.92,-0.18,-0.45,-66.1,-172.85,374.69
526,1747592233850,4.293333333333334,0.4266666666666667,-0.2966666666666667,-69.6,-124.18333333333332,308.2033333333333
527,1747592233860,5.48,0.73,-0.22,-71.35,-99.85,274.96
528,1747592233870,5.48,0.73,-0.22,-71.35,-99.85,274.96
529,1747592233880,5.295,0.745,0.005,-71.35,-99.85,274.96
530,1747592233890,5.11,0.76,0.23,-185.24,0.61,-118.16
531,1747592233900,5.11,0.76,0.23,-185.24,0.61,-118.16
532,1747592233910,5.11,0.76,0.23,-185.24,0.61,-118.16
533,1747592233920,5.11,0.76,0.23,-185.24,0.61,-118.16
534,1747592233930,3.48,-0.33,-0.06,-202.51,274.9,-325.68
535,1747592233940,3.48,-0.33,-0.06,-202.51,274.9,-325.68
536,1747592233950,3.48,-0.33,-0.06,-202.51,274.9,-325.68
537,1747592233960,3.48,-0.33,-0.06,-202.51,274.9,-325.68
538,1747592233970,1.15,-2.08,-0.87,-117.92,549.01,-400.7
539,1747592233980,1.15,-2.08,-0.87,-117.92,549.01,-400.7
540,1747592233990,1.15,-2.08,-0.87,-117.92,549.01,-400.7
541,1747592234000,0.1649999999999999,-2.595,-1.595,2.3800000000000026,474.21,-425.905
542,1747592234010,-0.82,-3.11,-2.32,122.68,399.41,-451.11
543,1747592234020,-0.82,-3.11,-2.32,122.68,399.41,-451.11
544,1747592234030,-0.82,-3.11,-2.32,122.68,399.41,-451.11
545,1747592234040,-0.82,-3.11,-2.32,122.68,399.41,-451.11
546,1747592234050,-1.38,-2.54,-2.21,15.63,336.61,-432.25
547,1747592234060,-1.38,-2.54,-2.21,15.63,336.61,-432.25
548,1747592234070,-1.38,-2.54,-2.21,15.63,336.61,-432.25
549,1747592234080,-1.125,-2.165,-2.01,-6.985,335.45000000000005,-393.25
550,1747592234090,-0.87,-1.79,-1.81,-29.6,334.29,-354.25
551,1747592234100,-0.87,-1.79,-1.81,-29.6,334.29,-354.25
552,1747592234110,-0.87,-1.79,-1.81,-29.6,334.29,-354.25
553,1747592234120,-0.635,-1.685,-1.67,-42.785,338.35,-341.4
554,1747592234130,-0.4,-1.58,-1.53,-55.97,342.41,-328.55
555,1747592234140,-0.4,-1.58,-1.53,-55.97,342.41,-328.55
556,1747592234150,-0.4,-1.58,-1.53,-55.97,342.41,-328.55
557,1747592234160,-0.57,-1.55,-1.56,-37.78,356.44500000000005,-289.43
558,1747592234170,-0.57,-1.55,-1.56,-19.59,370.48,-250.31
559,1747592234180,-0.57,-1.55,-1.56,-19.59,370.48,-250.31
560,1747592234190,-0.57,-1.55,-1.56,-19.59,370.48,-250.31
561,1747592234200,-1.23,-1.01,-1.73,-31.56,367.61,-194.4
562,1747592234210,-1.23,-1.01,-1.73,-31.56,367.61,-194.4
563,1747592234220,-1.23,-1.01,-1.73,-31.56,367.61,-194.4
564,1747592234230,-1.23,-1.01,-1.73,-31.56,367.61,-194.4
565,1747592234240,-2.04,-1.07,-1.21,-1.71,171.75,-151.25
566,1747592234250,-2.04,-1.07,-1.21,-1.71,171.75,-151.25
567,1747592234260,-2.04,-1.07,-1.21,-1.71,171.75,-151.25
568,1747592234270,-3.46,-1.2,-1.56,35.1,215.27,-106.14
569,1747592234280,-3.46,-1.2,-1.56,35.1,215.27,-106.14
570,1747592234290,-3.46,-1.2,-1.56,35.1,215.27,-106.14
571,1747592234300,-3.46,-1.2,-1.56,35.1,215.27,-106.14
572,1747592234310,-4.12,-1.35,-2.09,49.5,44.01,-138.79
573,1747592234320,-4.12,-1.35,-2.09,49.5,44.01,-138.79
574,1747592234330,-4.12,-1.35,-2.09,49.5,44.01,-138.79
575,1747592234340,-4.085,-2.35,-2.195,61.705,-170.895,-121.06
576,1747592234350,-4.05,-3.35,-2.3,73.91,-385.8,-103.33
577,1747592234360,-4.05,-3.35,-2.3,73.91,-385.8,-103.33
578,1747592234370,-4.05,-3.35,-2.3,73.91,-385.8,-103.33
579,1747592234380,-4.05,-3.35,-2.3,73.91,-385.8,-103.33
580,1747592234390,-2.59,-2.45,-2.05,-17.33,64.88,274.11
581,1747592234400,-2.59,-2.45,-2.05,-17.33,64.88,274.11
582,1747592234410,-2.59,-2.45,-2.05,-17.33,64.88,274.11
583,1747592234420,-2.07,-1.86,-1.735,-18.52,35.25,298.95000000000005
584,1747592234430,-1.55,-1.27,-1.42,-19.71,5.62,323.79
585,1747592234440,-1.55,-1.27,-1.42,-19.71,5.62,323.79
586,1747592234450,-1.55,-1.27,-1.42,-19.71,5.62,323.79
587,1747592234460,-1.1,-0.7,-1.56,-31.035,-72.38499999999999,306.485
588,1747592234470,-1.1,-0.7,-1.56,-42.36,-150.39,289.18
589,1747592234480,-1.1,-0.7,-1.56,-42.36,-150.39,289.18
590,1747592234490,-1.1,-0.7,-1.56,-42.36,-150.39,289.18
591,1747592234500,-0.39,-1.06,-1.5,-91.06,-237.73,259.7
592,1747592234510,-0.39,-1.06,-1.5,-91.06,-237.73,259.7
593,1747592234520,-0.39,-1.06,-1.5,-91.06,-237.73,259.7
594,1747592234530,-0.265,-1.3,-1.55,-91.06,-237.73,259.7
595,1747592234540,-0.14,-1.54,-1.6,-111.27,-355.41,261.41
596,1747592234550,-0.14,-1.54,-1.6,-111.27,-355.41,261.41
597,1747592234560,-0.14,-1.54,-1.6,-111.27,-355.41,261.41
598,1747592234570,-0.14,-1.54,-1.6,-111.27,-355.41,261.41
599,1747592234580,0.06,-1.79,-1.63,-89.41999999999999,-381.5,293.18
600,1747592234590,0.06,-1.79,-1.63,-67.57,-407.59,324.95
601,1747592234600,0.06,-1.79,-1.63,-67.57,-407.59,324.95
602,1747592234610,0.06,-1.79,-1.63,-67.57,-407.59,324.95
603,1747592234620,0.13,-1.63,-1.52,-52.73,-371.52,372.5
604,1747592234630,0.13,-1.63,-1.52,-52.73,-371.52,372.5
605,1747592234640,0.13,-1.63,-1.52,-52.73,-371.52,372.5
606,1747592234650,0.155,-1.59,-1.445,-52.73,-371.52,372.5
607,1747592234660,0.18,-1.55,-1.37,-53.47,-323.61,420.78
608,1747592234670,0.18,-1.55,-1.37,-53.47,-323.61,420.78
609,1747592234680,0.18,-1.55,-1.37,-53.47,-323.61,420.78
610,1747592234690,0.415,-1.3250000000000002,-1.175,-44.86,-304.20000000000005,413.21
611,1747592234700,0.65,-1.1,-0.98,-36.25,-284.79,405.64
612,1747592234710,0.65,-1.1,-0.98,-36.25,-284.79,405.64
613,1747592234720,0.65,-1.1,-0.98,-36.25,-284.79,405.64
614,1747592234730,1.66,-0.43,-0.13,-4.15,-367.74,288.76
615,1747592234740,1.66,-0.43,-0.13,-4.15,-367.74,288.76
616,1747592234750,1.66,-0.43,-0.13,-4.15,-367.74,288.76
617,1747592234760,1.66,-0.43,-0.13,-4.15,-367.74,288.76
618,1747592234770,2.685,0.105,0.07,41.87,-299.685,231.905
619,1747592234780,3.71,0.64,0.27,87.89,-231.63,175.05
620,1747592234790,3.71,0.64,0.27,87.89,-231.63,175.05
621,1747592234800,3.71,0.64,0.27,87.89,-231.63,175.05
622,1747592234810,4.93,1.08,0.27,-182.56,175.96,-25.94
623,1747592234820,4.93,1.08,0.27,-182.56,175.96,-25.94
624,1747592234830,4.93,1.08,0.27,-182.56,175.96,-25.94
625,1747592234840,4.93,1.08,0.27,-182.56,175.96,-25.94
626,1747592234850,3.48,0.02,1.0,-150.24,180.905,-167.235
627,1747592234860,3.48,0.02,1.0,-117.92,185.85,-308.53
628,1747592234870,3.48,0.02,1.0,-117.92,185.85,-308.53
629,1747592234880,3.48,0.02,1.0,-117.92,185.85,-308.53
630,1747592234890,1.97,-1.13,-0.46,-84.66,435.18,-367.25
631,1747592234900,1.97,-1.13,-0.46,-84.66,435.18,-367.25
632,1747592234910,1.97,-1.13,-0.46,-84.66,435.18,-367.25
633,1747592234920,1.2,-1.765,-1.07,-84.66,435.18,-367.25
634,1747592234930,0.43,-2.4,-1.68,139.53,512.57,-376.28
635,1747592234940,0.43,-2.4,-1.68,139.53,512.57,-376.28
636,1747592234950,0.43,-2.4,-1.68,139.53,512.57,-376.28
637,1747592234960,0.01,-2.475,-2.24,145.51,443.42,-387.665
638,1747592234970,-0.41,-2.55,-2.8,151.49,374.27,-399.05
639,1747592234980,-0.41,-2.55,-2.8,151.49,374.27,-399.05
640,1747592234990,-0.41,-2.55,-2.8,151.49,374.27,-399.05
641,1747592235000,-0.93,-2.24,-2.68,126.925,330.2,-395.63
642,1747592235010,-0.93,-2.24,-2.68,102.36,286.13,-392.21
643,1747592235020,-0.93,-2.24,-2.68,102.36,286.13,-392.21
644,1747592235030,-0.93,-2.24,-2.68,102.36,286.13,-392.21
645,1747592235040,-0.75,-1.93,-2.3200000000000003,51.09,235.87,-380.92
646,1747592235050,-0.57,-1.62,-1.96,-0.18,185.61,-369.63
647,1747592235060,-0.57,-1.62,-1.96,-0.18,185.61,-369.63
648,1747592235070,-0.57,-1.62,-1.96,-0.18,185.61,-369.63
649,1747592235080,-0.31,-1.33,-1.47,-22.735,206.515,-352.175
650,1747592235090,-0.31,-1.33,-1.47,-45.29,227.42,-334.72
651,1747592235100,-0.31,-1.33,-1.47,-45.29,227.42,-334.72
652,1747592235110,-0.31,-1.33,-1.47,-45.29,227.42,-334.72
653,1747592235120,-0.55,-1.37,-1.56,-70.25,358.83,-273.8
654,1747592235130,-0.55,-1.37,-1.56,-70.25,358.83,-273.8
655,1747592235140,-0.55,-1.37,-1.56,-70.25,358.83,-273.8
656,1747592235150,-0.55,-1.37,-1.56,-70.25,358.83,-273.8
657,1747592235160,-1.48,-1.19,-1.45,-36.62,315.12,-154.11
658,1747592235170,-1.48,-1.19,-1.45,-36.62,315.12,-154.11
659,1747592235180,-1.48,-1.19,-1.45,-36.62,315.12,-154.11
660,1747592235190,-1.48,-1.19,-1.45,-36.62,315.12,-154.11
661,1747592235200,-2.87,-1.31,-1.71,-34.67,256.29,-93.26
662,1747592235210,-2.87,-1.31,-1.71,-34.67,256.29,-93.26
663,1747592235220,-2.87,-1.31,-1.71,-34.67,256.29,-93.26
664,1747592235230,-4.075,-1.96,-1.835,-21.605,69.49000000000001,-186.645
665,1747592235240,-5.28,-2.61,-1.96,-8.54,-117.31,-280.03
666,1747592235250,-5.28,-2.61,-1.96,-8.54,-117.31,-280.03
667,1747592235260,-5.28,-2.61,-1.96,-8.54,-117.31,-280.03
668,1747592235270,-4.855,-3.195,-1.9,-8.54,-117.31,-280.03
669,1747592235280,-4.43,-3.78,-1.84,77.58,-305.3,-20.08
670,1747592235290,-4.43,-3.78,-1.84,77.58,-305.3,-20.08
671,1747592235300,-4.43,-3.78,-1.84,77.58,-305.3,-20.08
672,1747592235310,-3.385,-3.26,-1.955,18.19,-14.254999999999995,205.08
673,1747592235320,-2.34,-2.74,-2.07,-41.2,276.79,430.24
674,1747592235330,-2.34,-2.74,-2.07,-41.2,276.79,430.24
675,1747592235340,-2.34,-2.74,-2.07,-41.2,276.79,430.24
676,1747592235350,-0.93,-1.37,-2.18,-59.69,38.09,376.46
677,1747592235360,-0.93,-1.37,-2.18,-59.69,38.09,376.46
678,1747592235370,-0.93,-1.37,-2.18,-59.69,38.09,376.46
679,1747592235380,-0.93,-1.37,-2.18,-59.69,38.09,376.46
680,1747592235390,-0.61,-0.8,-1.77,-79.07,-85.02,303.405
681,1747592235400,-0.61,-0.8,-1.77,-98.45,-208.13,230.35
682,1747592235410,-0.61,-0.8,-1.77,-98.45,-208.13,230.35
683,1747592235420,-0.61,-0.8,-1.77,-98.45,-208.13,230.35
684,1747592235430,-0.26,-1.06,-1.37,-124.27,-340.7,201.35
685,1747592235440,-0.26,-1.06,-1.37,-124.27,-340.7,201.35
686,1747592235450,-0.26,-1.06,-1.37,-124.27,-340.7,201.35
687,1747592235460,-0.06,-1.195,-1.35,-124.27,-340.7,201.35
688,1747592235470,0.14,-1.33,-1.33,-70.13,-379.7,276.98
689,1747592235480,0.14,-1.33,-1.33,-70.13,-379.7,276.98
690,1747592235490,0.16,-1.405,-1.39,-70.00999999999999,-353.33500000000004,297.64
691,1747592235500,0.18,-1.48,-1.45,-69.89,-326.97,318.3
692,1747592235510,0.18,-1.48,-1.45,-69.89,-326.97,318.3
693,1747592235520,0.18,-1.48,-1.45,-69.89,-326.97,318.3
694,1747592235530,0.18,-1.48,-1.45,-69.89,-326.97,318.3
695,1747592235540,0.1,-1.67,-1.58,-87.65,-274.72,380.68
696,1747592235550,0.1,-1.67,-1.58,-87.65,-274.72,380.68
697,1747592235560,0.1,-1.67,-1.58,-87.65,-274.72,380.68
698,1747592235570,0.145,-1.645,-1.57,-103.515,-282.775,389.07
699,1747592235580,0.19,-1.62,-1.56,-119.38,-290.83,397.46
700,1747592235590,0.19,-1.62,-1.56,-119.38,-290.83,397.46
701,1747592235600,0.19,-1.62,-1.56,-119.38,-290.83,397.46
702,1747592235610,0.255,-1.5550000000000002,-1.42,-117.645,-313.415,394.59
703,1747592235620,0.32,-1.49,-1.28,-115.91,-336.0,391.72
704,1747592235630,0.32,-1.49,-1.28,-115.91,-336.0,391.72
705,1747592235640,0.32,-1.49,-1.28,-115.91,-336.0,391.72
706,1747592235650,0.64,-1.23,-0.92,-85.695,-363.555,367.095
707,1747592235660,0.96,-0.97,-0.56,-55.48,-391.11,342.47
708,1747592235670,0.96,-0.97,-0.56,-55.48,-391.11,342.47
709,1747592235680,0.96,-0.97,-0.56,-55.48,-391.11,342.47
710,1747592235690,3.15,0.1,-0.05,9.58,-324.16,235.47
711,1747592235700,3.15,0.1,-0.05,9.58,-324.16,235.47
712,1747592235710,3.15,0.1,-0.05,9.58,-324.16,235.47
713,1747592235720,3.15,0.1,-0.05,9.58,-324.16,235.47
714,1747592235730,6.38,1.15,0.78,-117.25,109.19,155.82
715,1747592235740,6.38,1.15,0.78,-117.25,109.19,155.82
716,1747592235750,6.38,1.15,0.78,-117.25,109.19,155.82
717,1747592235760,6.38,1.15,0.78,-117.25,109.19,155.82
718,1747592235770,4.88,0.38,1.08,-132.87,233.15,-333.62
719,1747592235780,4.88,0.38,1.08,-132.87,233.15,-333.62
720,1747592235790,4.88,0.38,1.08,-132.87,233.15,-333.62
721,1747592235800,3.695,-0.615,0.25,-132.87,233.15,-333.62
722,1747592235810,2.51,-1.61,-0.58,-108.34,578.06,-454.71
723,1747592235820,2.51,-1.61,-0.58,-108.34,578.06,-454.71
724,1747592235830,2.51,-1.61,-0.58,-108.34,578.06,-454.71
725,1747592235840,1.41,-2.42,-1.305,35.92,547.24,-440.55
726,1747592235850,0.31,-3.23,-2.03,180.18,516.42,-426.39
727,1747592235860,0.31,-3.23,-2.03,180.18,516.42,-426.39
728,1747592235870,0.31,-3.23,-2.03,180.18,516.42,-426.39
729,1747592235880,0.2,-3.06,-2.325,180.18,516.42,-426.39
730,1747592235890,0.09,-2.89,-2.62,155.7,484.31,-436.83
731,1747592235900,0.09,-2.89,-2.62,155.7,484.31,-436.83
732,1747592235910,0.09,-2.89,-2.62,155.7,484.31,-436.83
733,1747592235920,-0.045,-2.9000000000000004,-2.67,152.76999999999998,469.145,-427.765
734,1747592235930,-0.18,-2.91,-2.72,149.84,453.98,-418.7
735,1747592235940,-0.18,-2.91,-2.72,149.84,453.98,-418.7
736,1747592235950,-0.18,-2.91,-2.72,149.84,453.98,-418.7
737,1747592235960,-0.35,-2.53,-2.4,141.69,395.48,-381.5
738,1747592235970,-0.35,-2.53,-2.4,133.54,336.98,-344.3
739,1747592235980,-0.35,-2.53,-2.4,133.54,336.98,-344.3
740,1747592235990,-0.35,-2.53,-2.4,133.54,336.98,-344.3
741,1747592236000,-0.38,-1.86,-1.93,85.45,208.19,-337.95
742,1747592236010,-0.38,-1.86,-1.93,85.45,208.19,-337.95
743,1747592236020,-0.38,-1.86,-1.93,85.45,208.19,-337.95
744,1747592236030,-0.44,-1.64,-1.77,85.45,208.19,-337.95
745,1747592236040,-0.5,-1.42,-1.61,34.97,223.33,-281.07
746,1747592236050,-0.5,-1.42,-1.61,34.97,223.33,-281.07
747,1747592236060,-0.5,-1.42,-1.61,34.97,223.33,-281.07
748,1747592236070,-0.86,-1.255,-1.5,20.475,230.715,-228.855
749,1747592236080,-1.22,-1.09,-1.39,5.98,238.1,-176.64
750,1747592236090,-1.22,-1.09,-1.39,5.98,238.1,-176.64
751,1747592236100,-1.22,-1.09,-1.39,5.98,238.1,-176.64
752,1747592236110,-1.225,-1.23,-1.42,5.98,238.1,-176.64
753,1747592236120,-1.23,-1.37,-1.45,-38.45,356.26,-53.04
754,1747592236130,-1.23,-1.37,-1.45,-38.45,356.26,-53.04
755,1747592236140,-1.23,-1.37,-1.45,-38.45,356.26,-53.04
756,1747592236150,-2.19,-1.81,-2.6,78.94999999999999,366.91,-106.905
757,1747592236160,-3.15,-2.25,-3.75,196.35,377.56,-160.77
758,1747592236170,-3.15,-2.25,-3.75,196.35,377.56,-160.77
759,1747592236180,-3.15,-2.25,-3.75,196.35,377.56,-160.77
760,1747592236190,-3.53,-3.035,-4.05,6.009999999999991,168.975,-55.545
761,1747592236200,-3.91,-3.82,-4.35,-184.33,-39.61,49.68
762,1747592236210,-3.91,-3.82,-4.35,-184.33,-39.61,49.68
763,1747592236220,-3.91,-3.82,-4.35,-184.33,-39.61,49.68
764,1747592236230,-0.44,-2.19,-3.29,-272.03,85.08,271.3
765,1747592236240,-0.44,-2.19,-3.29,-272.03,85.08,271.3
766,1747592236250,-0.44,-2.19,-3.29,-272.03,85.08,271.3
767,1747592236260,-0.44,-2.19,-3.29,-272.03,85.08,271.3
768,1747592236270,0.16,-1.45,-2.64,-286.07,-9.16,246.22
769,1747592236280,0.16,-1.45,-2.64,-286.07,-9.16,246.22
770,1747592236290,0.16,-1.45,-2.64,-286.07,-9.16,246.22
771,1747592236300,0.16,-1.45,-2.64,-286.07,-9.16,246.22
772,1747592236310,-0.08,-0.97,-2.07,-198.49,-296.39,109.8
773,1747592236320,-0.08,-0.97,-2.07,-198.49,-296.39,109.8
774,1747592236330,-0.08,-0.97,-2.07,-198.49,-296.39,109.8
775,1747592236340,-0.08,-0.97,-2.07,-198.49,-296.39,109.8
776,1747592236350,-0.11,-1.12,-1.91,-164.73,-428.96,128.48
777,1747592236360,-0.11,-1.12,-1.91,-164.73,-428.96,128.48
778,1747592236370,-0.11,-1.12,-1.91,-164.73,-428.96,128.48
779,1747592236380,0.115,-1.315,-1.855,-170.135,-436.465,177.065
780,1747592236390,0.34,-1.51,-1.8,-175.54,-443.97,225.65
781,1747592236400,0.34,-1.51,-1.8,-175.54,-443.97,225.65
782,1747592236410,0.34,-1.51,-1.8,-175.54,-443.97,225.65
783,1747592236420,0.6,-1.68,-1.81,-175.445,-427.675,255.22000000000003
784,1747592236430,0.6,-1.68,-1.81,-175.35,-411.38,284.79
785,1747592236440,0.6,-1.68,-1.81,-175.35,-411.38,284.79
786,1747592236450,0.6,-1.68,-1.81,-175.35,-411.38,284.79
787,1747592236460,0.605,-1.73,-1.8,-179.595,-400.115,292.175
788,1747592236470,0.61,-1.78,-1.79,-183.84,-388.85,299.56
789,1747592236480,0.61,-1.78,-1.79,-183.84,-388.85,299.56
790,1747592236490,0.61,-1.78,-1.79,-183.84,-388.85,299.56
791,1747592236500,0.57,-1.69,-1.62,-195.56,-380.34,313.445
792,1747592236510,0.57,-1.69,-1.62,-207.28,-371.83,327.33
793,1747592236520,0.57,-1.69,-1.62,-207.28,-371.83,327.33
794,1747592236530,0.57,-1.69,-1.62,-207.28,-371.83,327.33
795,1747592236540,0.63,-1.53,-1.27,-215.15,-354.43,307.01
796,1747592236550,0.63,-1.53,-1.27,-215.15,-354.43,307.01
797,1747592236560,0.63,-1.53,-1.27,-215.15,-354.43,307.01
798,1747592236570,0.63,-1.53,-1.27,-215.15,-354.43,307.01
799,1747592236580,1.09,-1.08,-0.23,-289.0,-344.85,270.39
800,1747592236590,1.09,-1.08,-0.23,-289.0,-344.85,270.39
801,1747592236600,1.09,-1.08,-0.23,-289.0,-344.85,270.39
802,1747592236610,1.75,-0.445,1.185,-191.8,-264.435,232.605
803,1747592236620,2.41,0.19,2.6,-94.6,-184.02,194.82
804,1747592236630,2.41,0.19,2.6,-94.6,-184.02,194.82
805,1747592236640,2.41,0.19,2.6,-94.6,-184.02,194.82
806,1747592236650,3.735,0.525,2.125,-94.6,-184.02,194.82
807,1747592236660,5.06,0.86,1.65,103.21,-120.06,72.81
808,1747592236670,5.06,0.86,1.65,103.21,-120.06,72.81
809,1747592236680,5.06,0.86,1.65,103.21,-120.06,72.81
810,1747592236690,4.44,0.685,1.735,39.03,-39.155,-148.015
811,1747592236700,3.82,0.51,1.82,-25.15,41.75,-368.84
812,1747592236710,3.82,0.51,1.82,-25.15,41.75,-368.84
813,1747592236720,3.82,0.51,1.82,-25.15,41.75,-368.84
814,1747592236730,2.43,-0.92,0.68,-25.15,41.75,-368.84
815,1747592236740,2.43,-0.92,0.68,-30.46,450.38,-424.74
816,1747592236750,2.43,-0.92,0.68,-30.46,450.38,-424.74
817,1747592236760,2.43,-0.92,0.68,-30.46,450.38,-424.74
818,1747592236770,1.915,-1.48,-0.2449999999999999,74.185,503.54,-394.225
819,1747592236780,1.4,-2.04,-1.17,178.83,556.7,-363.71
820,1747592236790,1.4,-2.04,-1.17,178.83,556.7,-363.71
821,1747592236800,1.4,-2.04,-1.17,178.83,556.7,-363.71
822,1747592236810,1.345,-2.27,-2.075,260.8,538.5450000000001,-326.54
823,1747592236820,1.29,-2.5,-2.98,342.77,520.39,-289.37
824,1747592236830,1.29,-2.5,-2.98,342.77,520.39,-289.37
825,1747592236840,1.29,-2.5,-2.98,342.77,520.39,-289.37
826,1747592236850,0.61,-2.43,-3.07,294.495,407.35,-333.62
827,1747592236860,0.61,-2.43,-3.07,246.22,294.31,-377.87
828,1747592236870,0.61,-2.43,-3.07,246.22,294.31,-377.87
829,1747592236880,0.61,-2.43,-3.07,246.22,294.31,-377.87
830,1747592236890,0.27,-1.8,-2.29,154.72,84.96,-393.86
831,1747592236900,0.27,-1.8,-2.29,154.72,84.96,-393.86
832,1747592236910,0.27,-1.8,-2.29,154.72,84.96,-393.86
833,1747592236920,0.27,-1.8,-2.29,154.72,84.96,-393.86
834,1747592236930,0.25,-1.46,-1.65,14.04,96.25,-363.22
835,1747592236940,0.25,-1.46,-1.65,14.04,96.25,-363.22
836,1747592236950,0.25,-1.46,-1.65,14.04,96.25,-363.22
837,1747592236960,0.2,-1.485,-1.47,-14.25,165.70999999999998,-325.225
838,1747592236970,0.15,-1.51,-1.29,-42.54,235.17,-287.23
839,1747592236980,0.15,-1.51,-1.29,-42.54,235.17,-287.23
840,1747592236990,0.15,-1.51,-1.29,-42.54,235.17,-287.23
841,1747592237000,-0.18,-1.6,-1.415,-38.82,259.825,-271.69500000000005
842,1747592237010,-0.51,-1.69,-1.54,-35.1,284.48,-256.16
843,1747592237020,-0.51,-1.69,-1.54,-35.1,284.48,-256.16
844,1747592237030,-0.51,-1.69,-1.54,-35.1,284.48,-256.16
845,1747592237040,-1.68,-2.74,-1.99,-18.01,292.85,-147.4
846,1747592237050,-1.68,-2.74,-1.99,-18.01,292.85,-147.4
847,1747592237060,-1.68,-2.74,-1.99,-18.01,292.85,-147.4
848,1747592237070,-1.68,-2.74,-1.99,-18.01,292.85,-147.4
849,1747592237080,-2.88,-2.47,-2.96,-26.92,401.55,-49.93
850,1747592237090,-2.88,-2.47,-2.96,-26.92,401.55,-49.93
851,1747592237100,-2.88,-2.47,-2.96,-26.92,401.55,-49.93
852,1747592237110,-5.28,-4.16,-4.53,-15.96,229.89,-121.89
853,1747592237120,-5.28,-4.16,-4.53,-5.0,58.23,-193.85
854,1747592237130,-5.28,-4.16,-4.53,-5.0,58.23,-193.85
855,1747592237140,-5.28,-4.16,-4.53,-5.0,58.23,-193.85
856,1747592237150,-2.17,-3.19,-3.34,18.8,-281.86,190.12
857,1747592237160,-2.17,-3.19,-3.34,18.8,-281.86,190.12
858,1747592237170,-2.17,-3.19,-3.34,18.8,-281.86,190.12
859,1747592237180,-2.17,-3.19,-3.34,18.8,-281.86,190.12
860,1747592237190,-0.68,-1.85,-2.68,-91.06,-74.71,316.28
861,1747592237200,-0.68,-1.85,-2.68,-91.06,-74.71,316.28
862,1747592237210,-0.68,-1.85,-2.68,-91.06,-74.71,316.28
863,1747592237220,-0.68,-1.85,-2.68,-91.06,-74.71,316.28
864,1747592237230,-0.34,-1.32,-1.99,-116.42,-154.235,293.21
865,1747592237240,-0.34,-1.32,-1.99,-141.78,-233.76,270.14
866,1747592237250,-0.34,-1.32,-1.99,-141.78,-233.76,270.14
867,1747592237260,-0.34,-1.32,-1.99,-141.78,-233.76,270.14
868,1747592237270,-0.165,-1.3450000000000002,-1.845,-128.29500000000002,-304.9,266.785
869,1747592237280,0.01,-1.37,-1.7,-114.81,-376.04,263.43
870,1747592237290,0.01,-1.37,-1.7,-114.81,-376.04,263.43
871,1747592237300,0.19,-1.4500000000000002,-1.69,-115.055,-402.375,285.98
872,1747592237310,0.37,-1.53,-1.68,-115.3,-428.71,308.53
873,1747592237320,0.37,-1.53,-1.68,-115.3,-428.71,308.53
874,1747592237330,0.37,-1.53,-1.68,-115.3,-428.71,308.53
875,1747592237340,0.43,-1.715,-1.84,-102.39,-423.86,337.83
876,1747592237350,0.49,-1.9,-2.0,-89.48,-419.01,367.13
877,1747592237360,0.49,-1.9,-2.0,-89.48,-419.01,367.13
878,1747592237370,0.49,-1.9,-2.0,-89.48,-419.01,367.13
879,1747592237380,0.82,-1.86,-2.03,-89.48,-419.01,367.13
880,1747592237390,0.82,-1.86,-2.03,-89.48,-419.01,367.13
881,1747592237400,0.82,-1.86,-2.03,-120.85,-348.08,419.19
882,1747592237410,0.82,-1.86,-2.03,-120.85,-348.08,419.19
883,1747592237420,0.63,-1.51,-1.64,-132.39,-366.52,365.84
884,1747592237430,0.63,-1.51,-1.64,-132.39,-366.52,365.84
885,1747592237440,0.63,-1.51,-1.64,-132.39,-366.52,365.84
886,1747592237450,0.63,-1.51,-1.64,-132.39,-366.52,365.84
887,1747592237460,0.61,-1.22,-1.13,-88.01,-386.6,352.91
888,1747592237470,0.61,-1.22,-1.13,-88.01,-386.6,352.91
889,1747592237480,0.61,-1.22,-1.13,-88.01,-386.6,352.91
890,1747592237490,0.61,-1.22,-1.13,-88.01,-386.6,352.91
891,1747592237500,1.57,-0.74,-0.41,-52.37,-447.88,304.81
892,1747592237510,1.57,-0.74,-0.41,-52.37,-447.88,304.81
893,1747592237520,1.57,-0.74,-0.41,-52.37,-447.88,304.81
894,1747592237530,2.595,-0.1049999999999999,0.075,-3.419999999999998,-377.26,249.48
895,1747592237540,3.62,0.53,0.56,45.53,-306.64,194.15
896,1747592237550,3.62,0.53,0.56,45.53,-306.64,194.15
897,1747592237560,3.62,0.53,0.56,45.53,-306.64,194.15
898,1747592237570,3.62,0.53,0.56,45.53,-306.64,194.15
899,1747592237580,5.53,1.6,0.79,-81.85,84.9,18.92
900,1747592237590,5.53,1.6,0.79,-81.85,84.9,18.92
901,1747592237600,5.53,1.6,0.79,-81.85,84.9,18.92
902,1747592237610,4.87,1.04,1.045,-95.95,168.39499999999998,-163.08499999999998
903,1747592237620,4.21,0.48,1.3,-110.05,251.89,-345.09
904,1747592237630,4.21,0.48,1.3,-110.05,251.89,-345.09
905,1747592237640,4.21,0.48,1.3,-110.05,251.89,-345.09
906,1747592237650,3.4,-0.42,0.425,-71.11,422.79,-378.57
907,1747592237660,2.59,-1.32,-0.45,-32.17,593.69,-412.05
908,1747592237670,2.59,-1.32,-0.45,-32.17,593.69,-412.05
909,1747592237680,2.59,-1.32,-0.45,-32.17,593.69,-412.05
910,1747592237690,1.03,-3.12,-2.53,291.08,551.03,-413.27
911,1747592237700,1.03,-3.12,-2.53,291.08,551.03,-413.27
912,1747592237710,1.03,-3.12,-2.53,291.08,551.03,-413.27
913,1747592237720,1.03,-3.12,-2.53,291.08,551.03,-413.27
914,1747592237730,0.06,-3.06,-3.09,175.42,280.52,-525.15
915,1747592237740,0.06,-3.06,-3.09,175.42,280.52,-525.15
916,1747592237750,0.06,-3.06,-3.09,175.42,280.52,-525.15
917,1747592237760,0.06,-3.06,-3.09,175.42,280.52,-525.15
918,1747592237770,-0.41,-2.9,-2.68,21.18,289.79,-455.44
919,1747592237780,-0.41,-2.9,-2.68,21.18,289.79,-455.44
920,1747592237790,-0.41,-2.9,-2.68,21.18,289.79,-455.44
921,1747592237800,-0.41,-2.9,-2.68,21.18,289.79,-455.44
922,1747592237810,-0.32,-2.16,-1.97,-20.26,288.02,-366.39
923,1747592237820,-0.32,-2.16,-1.97,-20.26,288.02,-366.39
924,1747592237830,-0.32,-2.16,-1.97,-20.26,288.02,-366.39
925,1747592237840,-0.48,-1.9,-1.54,-20.26,288.02,-366.39
926,1747592237850,-0.48,-1.9,-1.54,3.66,202.94,-339.48
927,1747592237860,-0.48,-1.9,-1.54,3.66,202.94,-339.48
928,1747592237870,-0.48,-1.9,-1.54,3.66,202.94,-339.48
929,1747592237880,-0.48,-1.9,-1.54,3.66,202.94,-339.48
930,1747592237890,-0.75,-1.51,-1.56,35.03,250.73,-230.9
931,1747592237900,-0.75,-1.51,-1.56,35.03,250.73,-230.9
932,1747592237910,-0.75,-1.51,-1.56,35.03,250.73,-230.9
933,1747592237920,-1.53,-1.46,-1.69,-70.25,267.58,-123.47
934,1747592237930,-1.53,-1.46,-1.69,-70.25,267.58,-123.47
935,1747592237940,-1.53,-1.46,-1.69,-70.25,267.58,-123.47
936,1747592237950,-1.53,-1.46,-1.69,-70.25,267.58,-123.47
937,1747592237960,-2.065,-1.565,-1.615,-36.835,268.55499999999995,-104.34
938,1747592237970,-2.6,-1.67,-1.54,-3.42,269.53,-85.21
939,1747592237980,-2.6,-1.67,-1.54,-3.42,269.53,-85.21
940,1747592237990,-2.6,-1.67,-1.54,-3.42,269.53,-85.21
941,1747592238000,-4.85,-3.31,-3.19,29.11,29.48,-171.69
942,1747592238010,-4.85,-3.31,-3.19,29.11,29.48,-171.69
943,1747592238020,-4.85,-3.31,-3.19,29.11,29.48,-171.69
944,1747592238030,-4.85,-3.31,-3.19,29.11,29.48,-171.69
945,1747592238040,-3.09,-3.26,-2.73,18.52,-125.09000000000002,-31.19
946,1747592238050,-3.09,-3.26,-2.73,7.93,-279.66,109.31
947,1747592238060,-3.09,-3.26,-2.73,7.93,-279.66,109.31
948,1747592238070,-3.09,-3.26,-2.73,7.93,-279.66,109.31
949,1747592238080,-1.63,-2.28,-2.42,-36.38,-108.7,234.07
950,1747592238090,-1.63,-2.28,-2.42,-36.38,-108.7,234.07
951,1747592238100,-1.63,-2.28,-2.42,-36.38,-108.7,234.07
952,1747592238110,-1.38,-1.91,-2.21,-47.0,-181.06,237.09
953,1747592238120,-1.13,-1.54,-2.0,-57.62,-253.42,240.11
954,1747592238130,-1.13,-1.54,-2.0,-57.62,-253.42,240.11
955,1747592238140,-1.13,-1.54,-2.0,-57.62,-253.42,240.11
956,1747592238150,-0.965,-1.53,-1.78,-65.795,-296.39,257.295
957,1747592238160,-0.8,-1.52,-1.56,-73.97,-339.36,274.48
958,1747592238170,-0.8,-1.52,-1.56,-73.97,-339.36,274.48
959,1747592238180,-0.8,-1.52,-1.56,-73.97,-339.36,274.48
960,1747592238190,-0.3866666666666667,-1.6333333333333335,-1.5066666666666666,-61.68333333333334,-347.9833333333333,296.26666666666665
961,1747592238200,-0.18,-1.69,-1.48,-37.11,-365.23,339.84
962,1747592238210,-0.18,-1.69,-1.48,-37.11,-365.23,339.84
963,1747592238220,-0.18,-1.69,-1.48,-37.11,-365.23,339.84
964,1747592238230,0.1,-1.86,-1.59,-30.09,-350.49,366.85
965,1747592238240,0.1,-1.86,-1.59,-23.07,-335.75,393.86
966,1747592238250,0.1,-1.86,-1.59,-23.07,-335.75,393.86
967,1747592238260,0.1,-1.86,-1.59,-23.07,-335.75,393.86
968,1747592238270,0.095,-1.955,-1.645,-11.32,-311.55,405.76
969,1747592238280,0.09,-2.05,-1.7,0.43,-287.35,417.66
970,1747592238290,0.09,-2.05,-1.7,0.43,-287.35,417.66
971,1747592238300,0.0,-2.19,-1.92,-2.99,-290.13,440.885
972,1747592238310,0.0,-2.19,-1.92,-6.41,-292.91,464.11
973,1747592238320,0.0,-2.19,-1.92,-6.41,-292.91,464.11
974,1747592238330,0.0,-2.19,-1.92,-6.41,-292.91,464.11
975,1747592238340,0.28,-2.11,-1.54,-27.89,-312.81,452.51
976,1747592238350,0.28,-2.11,-1.54,-27.89,-312.81,452.51
977,1747592238360,0.28,-2.11,-1.54,-27.89,-312.81,452.51
978,1747592238370,0.28,-2.11,-1.54,-27.89,-312.81,452.51
979,1747592238380,0.68,-1.55,-1.09,14.77,-339.6,398.62
980,1747592238390,0.68,-1.55,-1.09,14.77,-339.6,398.62
981,1747592238400,0.68,-1.55,-1.09,14.77,-339.6,398.62
982,1747592238410,0.68,-1.55,-1.09,14.77,-339.6,398.62
983,1747592238420,2.05,-0.19,-0.25,-18.13,-242.49,290.41
984,1747592238430,2.05,-0.19,-0.25,-18.13,-242.49,290.41
985,1747592238440,2.05,-0.19,-0.25,-18.13,-242.49,290.41
986,1747592238450,2.05,-0.19,-0.25,-18.13,-242.49,290.41
987,1747592238460,4.95,1.05,0.28,-63.29,34.61,234.74
988,1747592238470,4.95,1.05,0.28,-63.29,34.61,234.74
989,1747592238480,4.95,1.05,0.28,-63.29,34.61,234.74
990,1747592238490,4.95,1.05,0.28,-63.29,34.61,234.74
991,1747592238500,4.98,1.33,1.09,-167.54,2.87,-132.39
992,1747592238510,4.98,1.33,1.09,-167.54,2.87,-132.39
993,1747592238520,4.98,1.33,1.09,-167.54,2.87,-132.39
994,1747592238530,4.98,1.33,1.09,-167.54,2.87,-132.39
995,1747592238540,3.5,0.1,0.64,-167.11,210.14,-325.2
996,1747592238550,3.5,0.1,0.64,-167.11,210.14,-325.2
997,1747592238560,3.5,0.1,0.64,-167.11,210.14,-325.2
998,1747592238570,2.61,-0.6649999999999999,0.14,-151.52,333.25,-358.43
999,1747592238580,1.72,-1.43,-0.36,-135.93,456.36,-391.66
1000,1747592238590,1.72,-1.43,-0.36,-135.93,456.36,-391.66
