id,timestamp,acc_x,acc_y,acc_z,gyro_x,gyro_y,gyro_z
0,1747400937450,1.18,0.37,0.43,225.1,-31.74,-198.24
1,1747400937460,1.18,0.37,0.43,225.1,-31.74,-198.24
2,1747400937470,,,,,,
3,1747400937480,1.07,0.21,0.52,231.63,-35.4,-170.23
4,1747400937490,1.07,0.21,0.52,231.63,-35.4,-170.23
5,1747400937500,1.07,0.21,0.52,231.63,-35.4,-170.23
6,1747400937510,1.21,0.01,0.73,235.96,12.02,-157.17
7,1747400937520,1.21,0.01,0.73,235.96,12.02,-157.17
8,1747400937530,1.21,0.01,0.73,235.96,12.02,-157.17
9,1747400937540,1.21,0.01,0.73,235.96,12.02,-157.17
10,1747400937550,1.1,-0.33,0.86,217.35,48.65,-133.42
11,1747400937560,1.1,-0.33,0.86,217.35,48.65,-133.42
12,1747400937570,1.1,-0.33,0.86,217.35,48.65,-133.42
13,1747400937580,1.1,-0.33,0.86,217.35,48.65,-133.42
14,1747400937590,1.56,-0.86,1.51,265.32,42.18,-134.52
15,1747400937600,1.56,-0.86,1.51,265.32,42.18,-134.52
16,1747400937610,1.56,-0.86,1.51,265.32,42.18,-134.52
17,1747400937620,1.67,-0.98,1.82,79.96,55.97,-10.31
18,1747400937630,1.67,-0.98,1.82,79.96,55.97,-10.31
19,1747400937640,1.67,-0.98,1.82,79.96,55.97,-10.31
20,1747400937650,1.67,-0.98,1.82,79.96,55.97,-10.31
21,1747400937660,1.58,-0.89,1.67,-38.39,14.95,48.1
22,1747400937670,1.58,-0.89,1.67,-38.39,14.95,48.1
23,1747400937680,1.58,-0.89,1.67,-38.39,14.95,48.1
24,1747400937690,1.58,-0.89,1.67,-38.39,14.95,48.1
25,1747400937700,1.75,-0.5,1.67,-140.08,33.94,104.13
26,1747400937710,1.75,-0.5,1.67,-140.08,33.94,104.13
27,1747400937720,1.75,-0.5,1.67,-140.08,33.94,104.13
28,1747400937730,1.75,-0.5,1.67,-140.08,33.94,104.13
29,1747400937740,1.4,-0.22,1.11,-212.1,73.79,123.96
30,1747400937750,1.4,-0.22,1.11,-212.1,73.79,123.96
31,1747400937760,1.4,-0.22,1.11,-212.1,73.79,123.96
32,1747400937770,1.4,-0.22,1.11,-212.1,73.79,123.96
33,1747400937780,1.17,0.06,0.7,-251.34,72.33,141.11
34,1747400937790,1.17,0.06,0.7,-251.34,72.33,141.11
35,1747400937800,1.17,0.06,0.7,-251.34,72.33,141.11
36,1747400937810,1.08,0.175,0.5349999999999999,-270.535,62.35,153.41000000000005
37,1747400937820,0.99,0.29,0.37,-289.73,52.37,165.71
38,1747400937830,0.99,0.29,0.37,-289.73,52.37,165.71
39,1747400937840,0.99,0.29,0.37,-289.73,52.37,165.71
40,1747400937850,0.82,0.41,0.36,-272.16,37.29,177.31
41,1747400937860,0.82,0.41,0.36,-272.16,37.29,177.31
42,1747400937870,0.82,0.41,0.36,-272.16,37.29,177.31
43,1747400937880,0.82,0.41,0.36,-272.16,37.29,177.31
44,1747400937890,0.82,0.53,0.52,-248.29,5.07,157.17
45,1747400937900,0.82,0.53,0.52,-248.29,5.07,157.17
46,1747400937910,0.82,0.53,0.52,-248.29,5.07,157.17
47,1747400937920,0.82,0.53,0.52,-248.29,5.07,157.17
48,1747400937930,0.64,0.44,0.26,-221.92,-17.7,104.49
49,1747400937940,0.64,0.44,0.26,-221.92,-17.7,104.49
50,1747400937950,0.64,0.44,0.26,-221.92,-17.7,104.49
51,1747400937960,,,,,,
52,1747400937970,0.655,0.51,0.205,-171.69,-22.92,68.295
53,1747400937980,0.67,0.58,0.15,-121.46,-28.14,32.1
54,1747400937990,0.67,0.58,0.15,-121.46,-28.14,32.1
55,1747400938000,0.67,0.58,0.15,-121.46,-28.14,32.1
56,1747400938010,0.93,0.61,0.12,-121.46,-28.14,32.1
57,1747400938020,0.93,0.61,0.12,-50.11,-44.07,-50.72
58,1747400938030,0.93,0.61,0.12,-50.11,-44.07,-50.72
59,1747400938040,0.77,0.59,0.06,-50.11,-44.07,-50.72
60,1747400938050,0.77,0.59,0.06,63.72,43.46,-108.76
61,1747400938060,0.77,0.59,0.06,63.72,43.46,-108.76
62,1747400938070,0.77,0.59,0.06,63.72,43.46,-108.76
63,1747400938080,0.77,0.59,0.06,63.72,43.46,-108.76
64,1747400938090,0.62,0.61,0.18,148.01,25.63,-175.66
65,1747400938100,0.62,0.61,0.18,148.01,25.63,-175.66
66,1747400938110,0.62,0.61,0.18,148.01,25.63,-175.66
67,1747400938120,1.03,0.66,0.38,148.01,25.63,-175.66
68,1747400938130,1.03,0.66,0.38,175.17,-24.78,-235.11
69,1747400938140,1.03,0.66,0.38,175.17,-24.78,-235.11
70,1747400938150,1.03,0.66,0.38,175.17,-24.78,-235.11
71,1747400938160,1.08,0.62,0.39,209.23,24.48,-235.84
72,1747400938170,1.08,0.62,0.39,209.23,24.48,-235.84
73,1747400938180,1.08,0.62,0.39,209.23,24.48,-235.84
74,1747400938190,1.08,0.62,0.39,209.23,24.48,-235.84
75,1747400938200,0.99,0.51,0.39,233.95,12.94,-212.52
76,1747400938210,0.99,0.51,0.39,233.95,12.94,-212.52
77,1747400938220,0.99,0.51,0.39,233.95,12.94,-212.52
78,1747400938230,0.99,0.51,0.39,233.95,12.94,-212.52
79,1747400938240,1.07,0.46,0.53,245.73,0.67,-214.17
80,1747400938250,1.07,0.46,0.53,245.73,0.67,-214.17
81,1747400938260,1.07,0.46,0.53,245.73,0.67,-214.17
82,1747400938270,1.07,0.46,0.53,245.73,0.67,-214.17
83,1747400938280,1.47,0.07,0.97,264.4,-9.83,-202.39
84,1747400938290,1.47,0.07,0.97,264.4,-9.83,-202.39
85,1747400938300,1.47,0.07,0.97,264.4,-9.83,-202.39
86,1747400938310,1.47,0.07,0.97,264.4,-9.83,-202.39
87,1747400938320,2.4,-0.4,1.81,217.35,-86.18,-179.81
88,1747400938330,2.4,-0.4,1.81,217.35,-86.18,-179.81
89,1747400938340,2.4,-0.4,1.81,217.35,-86.18,-179.81
90,1747400938350,2.87,-1.31,1.67,217.35,-86.18,-179.81
91,1747400938360,2.87,-1.31,1.67,50.54,-33.33,-27.04
92,1747400938370,2.87,-1.31,1.67,50.54,-33.33,-27.04
93,1747400938380,2.87,-1.31,1.67,50.54,-33.33,-27.04
94,1747400938390,2.48,-0.84,1.41,-34.36,40.16,112.67
95,1747400938400,2.48,-0.84,1.41,-34.36,40.16,112.67
96,1747400938410,2.48,-0.84,1.41,-34.36,40.16,112.67
97,1747400938420,2.48,-0.84,1.41,-34.36,40.16,112.67
98,1747400938430,1.73,-0.38,0.87,-165.16,-48.65,189.39
99,1747400938440,1.73,-0.38,0.87,-165.16,-48.65,189.39
100,1747400938450,1.73,-0.38,0.87,-165.16,-48.65,189.39
101,1747400938460,1.73,-0.38,0.87,-165.16,-48.65,189.39
102,1747400938470,1.69,-0.12,0.62,-165.16,-48.65,189.39
103,1747400938480,1.69,-0.12,0.62,-187.74,-25.7,242.37
104,1747400938490,1.69,-0.12,0.62,-187.74,-25.7,242.37
105,1747400938500,1.31,0.28,0.34,-187.74,-25.7,242.37
106,1747400938510,1.31,0.28,0.34,-216.37,67.93,276.18
107,1747400938520,1.31,0.28,0.34,-216.37,67.93,276.18
108,1747400938530,1.31,0.28,0.34,-216.37,67.93,276.18
109,1747400938540,1.195,0.355,0.285,-217.5,47.455000000000005,285.46000000000004
110,1747400938550,1.08,0.43,0.23,-218.63,26.98,294.74
111,1747400938560,1.08,0.43,0.23,-218.63,26.98,294.74
112,1747400938570,1.08,0.43,0.23,-218.63,26.98,294.74
113,1747400938580,1.09,0.47,0.315,-201.51,27.925,290.805
114,1747400938590,1.1,0.51,0.4,-184.39,28.87,286.87
115,1747400938600,1.1,0.51,0.4,-184.39,28.87,286.87
116,1747400938610,1.1,0.51,0.4,-184.39,28.87,286.87
117,1747400938620,1.11,0.43,0.45,-181.27,-5.07,249.57
118,1747400938630,1.11,0.43,0.45,-181.27,-5.07,249.57
119,1747400938640,1.11,0.43,0.45,-181.27,-5.07,249.57
120,1747400938650,1.11,0.43,0.45,-181.27,-5.07,249.57
121,1747400938660,1.13,0.32,0.37,-164.64,-22.89,226.835
122,1747400938670,1.13,0.32,0.37,-148.01,-40.71,204.1
123,1747400938680,1.13,0.32,0.37,-148.01,-40.71,204.1
124,1747400938690,1.13,0.32,0.37,-148.01,-40.71,204.1
125,1747400938700,0.91,0.32,0.12,-63.96,22.89,114.69
126,1747400938710,0.91,0.32,0.12,-63.96,22.89,114.69
127,1747400938720,0.91,0.32,0.12,-63.96,22.89,114.69
128,1747400938730,0.91,0.32,0.12,-63.96,22.89,114.69
129,1747400938740,0.83,0.46,0.02,20.81,35.52,9.52
130,1747400938750,0.83,0.46,0.02,20.81,35.52,9.52
131,1747400938760,0.83,0.46,0.02,20.81,35.52,9.52
132,1747400938770,0.6699999999999999,0.475,0.01,36.07,37.385000000000005,-26.705
133,1747400938780,0.51,0.49,0.0,51.33,39.25,-62.93
134,1747400938790,0.51,0.49,0.0,51.33,39.25,-62.93
135,1747400938800,0.51,0.49,0.0,51.33,39.25,-62.93
136,1747400938810,0.42,0.505,-0.01,78.61500000000001,40.47,-117.89
137,1747400938820,0.33,0.52,-0.02,105.9,41.69,-172.85
138,1747400938830,0.33,0.52,-0.02,105.9,41.69,-172.85
139,1747400938840,0.33,0.52,-0.02,105.9,41.69,-172.85
140,1747400938850,0.62,0.59,0.06,127.14,-1.53,-244.26
141,1747400938860,0.62,0.59,0.06,127.14,-1.53,-244.26
142,1747400938870,0.62,0.59,0.06,127.14,-1.53,-244.26
143,1747400938880,0.62,0.59,0.06,127.14,-1.53,-244.26
144,1747400938890,0.9,0.5,0.12,154.42,-4.46,-243.96
145,1747400938900,0.9,0.5,0.12,154.42,-4.46,-243.96
146,1747400938910,0.9,0.5,0.12,154.42,-4.46,-243.96
147,1747400938920,0.9,0.5,0.12,154.42,-4.46,-243.96
148,1747400938930,0.86,0.6,0.19,210.21,15.99,-225.16
149,1747400938940,0.86,0.6,0.19,210.21,15.99,-225.16
150,1747400938950,0.86,0.6,0.19,210.21,15.99,-225.16
151,1747400938960,0.925,0.585,0.265,224.58,14.77,-225.19
152,1747400938970,0.99,0.57,0.34,238.95,13.55,-225.22
153,1747400938980,0.99,0.57,0.34,238.95,13.55,-225.22
154,1747400938990,1.28,0.4,0.48,245.24,-1.22,-211.98
155,1747400939000,1.28,0.4,0.48,245.24,-1.22,-211.98
156,1747400939010,1.28,0.4,0.48,245.24,-1.22,-211.98
157,1747400939020,1.28,0.4,0.48,245.24,-1.22,-211.98
158,1747400939030,1.64,0.275,0.945,261.14,-43.215,-221.715
159,1747400939040,2.0,0.15,1.41,277.04,-85.21,-231.45
160,1747400939050,2.0,0.15,1.41,277.04,-85.21,-231.45
161,1747400939060,2.0,0.15,1.41,277.04,-85.21,-231.45
162,1747400939070,3.14,-0.8,1.71,277.04,-85.21,-231.45
163,1747400939080,3.14,-0.8,1.71,85.02,-131.47,-161.5
164,1747400939090,3.14,-0.8,1.71,85.02,-131.47,-161.5
165,1747400939100,3.14,-0.8,1.71,85.02,-131.47,-161.5
166,1747400939110,3.01,-1.05,1.57,85.02,-131.47,-161.5
167,1747400939120,3.01,-1.05,1.57,27.53,3.17,-31.37
168,1747400939130,3.01,-1.05,1.57,27.53,3.17,-31.37
169,1747400939140,3.01,-1.05,1.57,27.53,3.17,-31.37
170,1747400939150,2.45,-0.71,1.14,-108.09,0.85,77.09
171,1747400939160,2.45,-0.71,1.14,-108.09,0.85,77.09
172,1747400939170,2.45,-0.71,1.14,-108.09,0.85,77.09
173,1747400939180,1.72,-0.39,0.64,-108.09,0.85,77.09
174,1747400939190,1.72,-0.39,0.64,-178.41,19.96,162.6
175,1747400939200,1.72,-0.39,0.64,-178.41,19.96,162.6
176,1747400939210,1.72,-0.39,0.64,-178.41,19.96,162.6
177,1747400939220,1.17,-0.04,0.42,-195.37,76.23,202.15
178,1747400939230,1.17,-0.04,0.42,-195.37,76.23,202.15
179,1747400939240,1.17,-0.04,0.42,-195.37,76.23,202.15
180,1747400939250,1.17,-0.04,0.42,-195.37,76.23,202.15
181,1747400939260,1.11,0.08,0.405,-218.72,62.47,225.86
182,1747400939270,1.05,0.2,0.39,-242.07,48.71,249.57
183,1747400939280,1.05,0.2,0.39,-242.07,48.71,249.57
184,1747400939290,1.05,0.2,0.39,-242.07,48.71,249.57
185,1747400939300,1.02,0.315,0.465,-231.6,56.155,269.56
186,1747400939310,0.99,0.43,0.54,-221.13,63.6,289.55
187,1747400939320,0.99,0.43,0.54,-221.13,63.6,289.55
188,1747400939330,0.99,0.43,0.54,-221.13,63.6,289.55
189,1747400939340,0.99,0.47,0.71,-248.66,35.64,261.23
190,1747400939350,0.99,0.47,0.71,-248.66,35.64,261.23
191,1747400939360,0.99,0.47,0.71,-248.66,35.64,261.23
192,1747400939370,0.99,0.47,0.71,-248.66,35.64,261.23
193,1747400939380,1.04,0.3,0.56,-248.26,-0.2149999999999998,259.795
194,1747400939390,1.04,0.3,0.56,-247.86,-36.07,258.36
195,1747400939400,1.04,0.3,0.56,-247.86,-36.07,258.36
196,1747400939410,1.04,0.275,0.505,-203.765,-22.125,225.645
197,1747400939420,1.04,0.25,0.45,-159.67,-8.18,192.93
198,1747400939430,1.04,0.25,0.45,-159.67,-8.18,192.93
199,1747400939440,1.04,0.25,0.45,-159.67,-8.18,192.93
200,1747400939450,0.955,0.18,0.285,-121.37,-3.665,146.21
201,1747400939460,0.87,0.11,0.12,-83.07,0.85,99.49
202,1747400939470,0.87,0.11,0.12,-83.07,0.85,99.49
203,1747400939480,0.87,0.11,0.12,-83.07,0.85,99.49
204,1747400939490,0.775,0.22,0.0249999999999999,-24.17,20.505,57.71
205,1747400939500,0.68,0.33,-0.07,34.73,40.16,15.93
206,1747400939510,0.68,0.33,-0.07,34.73,40.16,15.93
207,1747400939520,0.68,0.33,-0.07,34.73,40.16,15.93
208,1747400939530,0.35,0.41,-0.09,79.22,29.54,-71.47
209,1747400939540,0.35,0.41,-0.09,79.22,29.54,-71.47
210,1747400939550,0.35,0.41,-0.09,79.22,29.54,-71.47
211,1747400939560,0.35,0.41,-0.09,79.22,29.54,-71.47
212,1747400939570,0.37,0.58,0.07,140.44,12.39,-163.39
213,1747400939580,0.37,0.58,0.07,140.44,12.39,-163.39
214,1747400939590,0.37,0.58,0.07,140.44,12.39,-163.39
215,1747400939600,0.37,0.58,0.07,140.44,12.39,-163.39
216,1747400939610,0.53,0.55,0.17,150.57,-19.35,-219.54
217,1747400939620,0.53,0.55,0.17,150.57,-19.35,-219.54
218,1747400939630,0.53,0.55,0.17,150.57,-19.35,-219.54
219,1747400939640,0.53,0.55,0.17,150.57,-19.35,-219.54
220,1747400939650,0.65,0.54,0.19,182.74,6.23,-221.62
221,1747400939660,0.65,0.54,0.19,182.74,6.23,-221.62
222,1747400939670,0.65,0.54,0.19,182.74,6.23,-221.62
223,1747400939680,0.655,0.52,0.24,207.49,8.455,-218.295
224,1747400939690,0.66,0.5,0.29,232.24,10.68,-214.97
225,1747400939700,0.66,0.5,0.29,232.24,10.68,-214.97
226,1747400939710,0.66,0.5,0.29,232.24,10.68,-214.97
227,1747400939720,1.06,0.42,0.57,235.415,-2.870000000000001,-226.015
228,1747400939730,1.06,0.42,0.57,238.59,-16.42,-237.06
229,1747400939740,1.06,0.42,0.57,238.59,-16.42,-237.06
230,1747400939750,1.06,0.42,0.57,238.59,-16.42,-237.06
231,1747400939760,1.78,-0.04,1.14,242.49,-88.5,-241.7
232,1747400939770,1.78,-0.04,1.14,242.49,-88.5,-241.7
233,1747400939780,1.78,-0.04,1.14,242.49,-88.5,-241.7
234,1747400939790,1.78,-0.04,1.14,242.49,-88.5,-241.7
235,1747400939800,2.74,-0.68,1.51,166.99,-83.44,-182.5
236,1747400939810,2.74,-0.68,1.51,166.99,-83.44,-182.5
237,1747400939820,2.74,-0.68,1.51,166.99,-83.44,-182.5
238,1747400939830,2.74,-0.68,1.51,166.99,-83.44,-182.5
239,1747400939840,3.04,-1.2,1.67,119.69,7.57,-54.02
240,1747400939850,3.04,-1.2,1.67,119.69,7.57,-54.02
241,1747400939860,3.04,-1.2,1.67,119.69,7.57,-54.02
242,1747400939870,2.845,-1.025,1.685,63.935,35.86,3.629999999999999
243,1747400939880,2.65,-0.85,1.7,8.18,64.15,61.28
244,1747400939890,2.65,-0.85,1.7,8.18,64.15,61.28
245,1747400939900,2.65,-0.85,1.7,8.18,64.15,61.28
246,1747400939910,2.65,-0.85,1.7,8.18,64.15,61.28
247,1747400939920,1.83,-0.51,1.1,-149.84,25.7,129.94
248,1747400939930,1.83,-0.51,1.1,-149.84,25.7,129.94
249,1747400939940,1.83,-0.51,1.1,-149.84,25.7,129.94
250,1747400939950,1.6,-0.425,0.855,-184.385,22.22,156.155
251,1747400939960,1.37,-0.34,0.61,-218.93,18.74,182.37
252,1747400939970,1.37,-0.34,0.61,-218.93,18.74,182.37
253,1747400939980,1.37,-0.34,0.61,-218.93,18.74,182.37
254,1747400939990,1.285,-0.115,0.485,-238.28,36.41,200.865
255,1747400940000,1.2,0.11,0.36,-257.63,54.08,219.36
256,1747400940010,1.2,0.11,0.36,-257.63,54.08,219.36
257,1747400940020,1.2,0.11,0.36,-257.63,54.08,219.36
258,1747400940030,1.12,0.35,0.37,-249.21,22.77,270.14
259,1747400940040,1.12,0.35,0.37,-249.21,22.77,270.14
260,1747400940050,1.12,0.35,0.37,-249.21,22.77,270.14
261,1747400940060,1.12,0.35,0.37,-249.21,22.77,270.14
262,1747400940070,1.02,0.5,0.47,-237.49,3.05,280.76
263,1747400940080,1.02,0.5,0.47,-237.49,3.05,280.76
264,1747400940090,1.02,0.5,0.47,-237.49,3.05,280.76
265,1747400940100,0.97,0.4649999999999999,0.43,-230.685,-16.295,275.815
266,1747400940110,0.92,0.43,0.39,-223.88,-35.64,270.87
267,1747400940120,0.92,0.43,0.39,-223.88,-35.64,270.87
268,1747400940130,0.92,0.43,0.39,-223.88,-35.64,270.87
269,1747400940140,0.865,0.41,0.385,-176.635,-24.93,234.68
270,1747400940150,0.81,0.39,0.38,-129.39,-14.22,198.49
271,1747400940160,0.81,0.39,0.38,-129.39,-14.22,198.49
272,1747400940170,0.81,0.39,0.38,-129.39,-14.22,198.49
273,1747400940180,0.73,0.375,0.27,-95.58,-4.335000000000001,149.75
274,1747400940190,0.65,0.36,0.16,-61.77,5.55,101.01
275,1747400940200,0.65,0.36,0.16,-61.77,5.55,101.01
276,1747400940210,0.65,0.36,0.16,-61.77,5.55,101.01
277,1747400940220,0.63,0.48,0.12,30.03,3.42,6.84
278,1747400940230,0.63,0.48,0.12,30.03,3.42,6.84
279,1747400940240,0.63,0.48,0.12,30.03,3.42,6.84
280,1747400940250,0.63,0.48,0.12,30.03,3.42,6.84
281,1747400940260,0.39,0.52,0.09,78.86,28.08,-83.98
282,1747400940270,0.39,0.52,0.09,78.86,28.08,-83.98
283,1747400940280,0.39,0.52,0.09,78.86,28.08,-83.98
284,1747400940290,0.39,0.52,0.09,78.86,28.08,-83.98
285,1747400940300,0.39,0.55,0.1,110.505,23.895,-143.31
286,1747400940310,0.39,0.55,0.1,142.15,19.71,-202.64
287,1747400940320,0.39,0.55,0.1,142.15,19.71,-202.64
288,1747400940330,0.63,0.555,0.18,142.15,19.71,-202.64
289,1747400940340,0.87,0.56,0.26,155.4,-27.47,-280.4
290,1747400940350,0.87,0.56,0.26,155.4,-27.47,-280.4
291,1747400940360,0.87,0.56,0.26,155.4,-27.47,-280.4
292,1747400940370,0.955,0.475,0.255,159.0,-17.365,-270.815
293,1747400940380,1.04,0.39,0.25,162.6,-7.26,-261.23
294,1747400940390,1.04,0.39,0.25,162.6,-7.26,-261.23
295,1747400940400,1.04,0.39,0.25,162.6,-7.26,-261.23
296,1747400940410,0.97,0.43,0.22,188.08,-0.3349999999999999,-248.23
297,1747400940420,0.97,0.43,0.22,213.56,6.59,-235.23
298,1747400940430,0.97,0.43,0.22,213.56,6.59,-235.23
299,1747400940440,0.97,0.43,0.22,213.56,6.59,-235.23
300,1747400940450,1.105,0.41,0.32,219.94,-13.885,-231.14
301,1747400940460,1.24,0.39,0.42,226.32,-34.36,-227.05
302,1747400940470,1.24,0.39,0.42,226.32,-34.36,-227.05
303,1747400940480,1.24,0.39,0.42,226.32,-34.36,-227.05
304,1747400940490,1.73,0.02,0.97,260.44,-42.36,-205.44
305,1747400940500,1.73,0.02,0.97,260.44,-42.36,-205.44
306,1747400940510,1.73,0.02,0.97,260.44,-42.36,-205.44
307,1747400940520,1.73,0.02,0.97,260.44,-42.36,-205.44
308,1747400940530,2.2,-0.5,1.4,162.84,-95.28,-173.83
309,1747400940540,2.2,-0.5,1.4,162.84,-95.28,-173.83
310,1747400940550,2.2,-0.5,1.4,162.84,-95.28,-173.83
311,1747400940560,2.2,-0.5,1.4,162.84,-95.28,-173.83
312,1747400940570,2.69,-1.2,1.28,136.72,-78.92,-24.6
313,1747400940580,2.69,-1.2,1.28,136.72,-78.92,-24.6
314,1747400940590,2.69,-1.2,1.28,136.72,-78.92,-24.6
315,1747400940600,2.69,-1.2,1.28,136.72,-78.92,-24.6
316,1747400940610,2.69,-0.99,1.64,136.72,-78.92,-24.6
317,1747400940620,2.69,-0.99,1.64,122.44,32.1,82.52
318,1747400940630,2.69,-0.99,1.64,122.44,32.1,82.52
319,1747400940640,2.08,-0.61,1.35,122.44,32.1,82.52
320,1747400940650,2.08,-0.61,1.35,-35.71,68.54,142.64
321,1747400940660,2.08,-0.61,1.35,-35.71,68.54,142.64
322,1747400940670,2.08,-0.61,1.35,-35.71,68.54,142.64
323,1747400940680,1.51,-0.33,0.8,-172.61,19.1,182.98
324,1747400940690,1.51,-0.33,0.8,-172.61,19.1,182.98
325,1747400940700,1.51,-0.33,0.8,-172.61,19.1,182.98
326,1747400940710,1.51,-0.33,0.8,-172.61,19.1,182.98
327,1747400940720,1.26,0.03,0.47,-178.22500000000002,88.285,194.55
328,1747400940730,1.26,0.03,0.47,-183.84,157.47,206.12
329,1747400940740,1.26,0.03,0.47,-183.84,157.47,206.12
330,1747400940750,1.26,0.03,0.47,-183.84,157.47,206.12
331,1747400940760,1.02,0.47,0.31,-264.65,104.98,229.19
332,1747400940770,1.02,0.47,0.31,-264.65,104.98,229.19
333,1747400940780,1.02,0.47,0.31,-264.65,104.98,229.19
334,1747400940790,1.02,0.47,0.31,-264.65,104.98,229.19
335,1747400940800,1.09,0.56,0.37,-271.06,95.28,236.76
336,1747400940810,1.09,0.56,0.37,-271.06,95.28,236.76
337,1747400940820,1.09,0.56,0.37,-271.06,95.28,236.76
338,1747400940830,1.09,0.56,0.37,-271.06,95.28,236.76
339,1747400940840,0.95,0.52,0.3,-281.68,88.56,221.92
340,1747400940850,0.95,0.52,0.3,-281.68,88.56,221.92
341,1747400940860,0.95,0.52,0.3,-281.68,88.56,221.92
342,1747400940870,0.895,0.375,0.28,-281.68,88.56,221.92
343,1747400940880,0.84,0.23,0.26,-242.31,-5.13,186.95
344,1747400940890,0.84,0.23,0.26,-242.31,-5.13,186.95
345,1747400940900,0.84,0.23,0.26,-242.31,-5.13,186.95
346,1747400940910,0.84,0.22,0.25,-242.31,-5.13,186.95
347,1747400940920,0.84,0.21,0.24,-157.29,-5.37,118.23
348,1747400940930,0.84,0.21,0.24,-157.29,-5.37,118.23
349,1747400940940,0.84,0.21,0.24,-157.29,-5.37,118.23
350,1747400940950,0.845,0.21,0.185,-98.88,-9.34,69.005
351,1747400940960,0.85,0.21,0.13,-40.47,-13.31,19.78
352,1747400940970,0.85,0.21,0.13,-40.47,-13.31,19.78
353,1747400940980,0.85,0.21,0.13,-40.47,-13.31,19.78
354,1747400940990,0.69,0.44,0.0,6.07,-1.7400000000000002,-16.66
355,1747400941000,,,,,,
356,1747400941010,0.69,0.44,0.0,52.61,9.83,-53.1
357,1747400941020,0.69,0.44,0.0,52.61,9.83,-53.1
358,1747400941030,0.47,0.45,-0.04,114.2,13.43,-127.75
359,1747400941040,0.47,0.45,-0.04,114.2,13.43,-127.75
360,1747400941050,0.47,0.45,-0.04,114.2,13.43,-127.75
361,1747400941060,0.47,0.45,-0.04,114.2,13.43,-127.75
362,1747400941070,0.61,0.62,0.17,184.63,-3.23,-211.67
363,1747400941080,0.61,0.62,0.17,184.63,-3.23,-211.67
364,1747400941090,0.61,0.62,0.17,184.63,-3.23,-211.67
365,1747400941100,0.84,0.51,0.27,163.51,-38.39,-236.63
366,1747400941110,0.84,0.51,0.27,163.51,-38.39,-236.63
367,1747400941120,0.84,0.51,0.27,163.51,-38.39,-236.63
368,1747400941130,0.84,0.51,0.27,163.51,-38.39,-236.63
369,1747400941140,0.85,0.45,0.265,173.095,-25.575,-227.415
370,1747400941150,0.86,0.39,0.26,182.68,-12.76,-218.2
371,1747400941160,0.86,0.39,0.26,182.68,-12.76,-218.2
372,1747400941170,0.86,0.39,0.26,182.68,-12.76,-218.2
373,1747400941180,0.88,0.37,0.3,213.44,0.12,-208.62
374,1747400941190,0.88,0.37,0.3,213.44,0.12,-208.62
375,1747400941200,0.88,0.37,0.3,213.44,0.12,-208.62
376,1747400941210,1.03,0.265,0.4399999999999999,213.44,0.12,-208.62
377,1747400941220,1.18,0.16,0.58,236.08,-17.21,-201.17
378,1747400941230,1.18,0.16,0.58,236.08,-17.21,-201.17
379,1747400941240,1.18,0.16,0.58,236.08,-17.21,-201.17
380,1747400941250,1.18,0.16,0.58,236.08,-17.21,-201.17
381,1747400941260,2.07,-0.14,1.35,211.12,-64.58,-218.99
382,1747400941270,2.07,-0.14,1.35,211.12,-64.58,-218.99
383,1747400941280,2.07,-0.14,1.35,211.12,-64.58,-218.99
384,1747400941290,2.07,-0.14,1.35,211.12,-64.58,-218.99
385,1747400941300,2.82,-1.14,1.45,113.16,-72.75,-111.76
386,1747400941310,2.82,-1.14,1.45,113.16,-72.75,-111.76
387,1747400941320,2.82,-1.14,1.45,113.16,-72.75,-111.76
388,1747400941330,2.735,-1.12,1.5699999999999998,111.235,-7.594999999999999,-48.77
389,1747400941340,2.65,-1.1,1.69,109.31,57.56,14.22
390,1747400941350,2.65,-1.1,1.69,109.31,57.56,14.22
391,1747400941360,2.65,-1.1,1.69,109.31,57.56,14.22
392,1747400941370,2.45,-0.955,1.5499999999999998,24.35,49.38,50.6
393,1747400941380,2.25,-0.81,1.41,-60.61,41.2,86.98
394,1747400941390,2.25,-0.81,1.41,-60.61,41.2,86.98
395,1747400941400,2.25,-0.81,1.41,-60.61,41.2,86.98
396,1747400941410,1.68,-0.49,0.88,-165.77,7.57,145.14
397,1747400941420,1.68,-0.49,0.88,-165.77,7.57,145.14
398,1747400941430,1.68,-0.49,0.88,-165.77,7.57,145.14
399,1747400941440,1.68,-0.49,0.88,-165.77,7.57,145.14
400,1747400941450,1.26,-0.23,0.51,-211.12,24.23,192.02
401,1747400941460,1.26,-0.23,0.51,-211.12,24.23,192.02
402,1747400941470,1.26,-0.23,0.51,-211.12,24.23,192.02
403,1747400941480,1.215,-0.08,0.4,-211.12,24.23,192.02
404,1747400941490,1.17,0.07,0.29,-244.32,54.69,239.56
405,1747400941500,1.17,0.07,0.29,-244.32,54.69,239.56
406,1747400941510,1.17,0.07,0.29,-244.32,54.69,239.56
407,1747400941520,1.095,0.215,0.265,-236.965,44.315,263.03
408,1747400941530,1.02,0.36,0.24,-229.61,33.94,286.5
409,1747400941540,1.02,0.36,0.24,-229.61,33.94,286.5
410,1747400941550,1.02,0.36,0.24,-229.61,33.94,286.5
411,1747400941560,0.96,0.47,0.35,-219.36,24.54,276.92
412,1747400941570,0.96,0.47,0.35,-219.36,24.54,276.92
413,1747400941580,0.96,0.47,0.35,-219.36,24.54,276.92
414,1747400941590,0.96,0.47,0.35,-219.36,24.54,276.92
415,1747400941600,0.895,0.425,0.3349999999999999,-207.765,8.885,258.575
416,1747400941610,0.83,0.38,0.32,-196.17,-6.77,240.23
417,1747400941620,0.83,0.38,0.32,-196.17,-6.77,240.23
418,1747400941630,0.83,0.38,0.32,-196.17,-6.77,240.23
419,1747400941640,0.86,0.36,0.29,-148.8,-71.96,175.23
420,1747400941650,0.86,0.36,0.29,-148.8,-71.96,175.23
421,1747400941660,0.86,0.36,0.29,-148.8,-71.96,175.23
422,1747400941670,0.86,0.36,0.29,-148.8,-71.96,175.23
423,1747400941680,0.86,0.36,0.29,-148.8,-71.96,175.23
424,1747400941690,0.8,0.35,0.16,-30.09,12.94,66.22
425,1747400941700,0.8,0.35,0.16,-30.09,12.94,66.22
426,1747400941710,0.8,0.35,0.16,-30.09,12.94,66.22
427,1747400941720,0.68,0.44,0.08,41.75,39.12,-36.68
428,1747400941730,0.68,0.44,0.08,41.75,39.12,-36.68
429,1747400941740,0.68,0.44,0.08,41.75,39.12,-36.68
430,1747400941750,0.535,0.485,0.055,41.75,39.12,-36.68
431,1747400941760,0.39,0.53,0.03,88.87,44.74,-140.26
432,1747400941770,0.39,0.53,0.03,88.87,44.74,-140.26
433,1747400941780,0.39,0.53,0.03,88.87,44.74,-140.26
434,1747400941790,0.51,0.5800000000000001,0.095,125.305,28.35,-197.145
435,1747400941800,0.63,0.63,0.16,161.74,11.96,-254.03
436,1747400941810,0.63,0.63,0.16,161.74,11.96,-254.03
437,1747400941820,0.63,0.63,0.16,161.74,11.96,-254.03
438,1747400941830,0.815,0.65,0.235,161.74,11.96,-254.03
439,1747400941840,1.0,0.67,0.31,152.95,-17.94,-287.54
440,1747400941850,1.0,0.67,0.31,152.95,-17.94,-287.54
441,1747400941860,1.0,0.67,0.31,152.95,-17.94,-287.54
442,1747400941870,1.12,0.5,0.23,152.95,-17.94,-287.54
443,1747400941880,1.12,0.5,0.23,177.365,-0.3050000000000015,-279.88
444,1747400941890,1.12,0.5,0.23,201.78,17.33,-272.22
445,1747400941900,1.12,0.5,0.23,201.78,17.33,-272.22
446,1747400941910,1.07,0.52,0.42,224.395,12.875,-253.02500000000003
447,1747400941920,1.07,0.52,0.42,247.01,8.42,-233.83
448,1747400941930,1.07,0.52,0.42,247.01,8.42,-233.83
449,1747400941940,1.07,0.52,0.42,247.01,8.42,-233.83
450,1747400941950,1.33,0.21,0.61,250.43,9.03,-229.8
451,1747400941960,1.33,0.21,0.61,250.43,9.03,-229.8
452,1747400941970,1.33,0.21,0.61,250.43,9.03,-229.8
453,1747400941980,1.67,-0.045,0.975,266.845,-11.325,-212.68
454,1747400941990,2.01,-0.3,1.34,283.26,-31.68,-195.56
455,1747400942000,2.01,-0.3,1.34,283.26,-31.68,-195.56
456,1747400942010,2.01,-0.3,1.34,283.26,-31.68,-195.56
457,1747400942020,2.01,-0.3,1.34,283.26,-31.68,-195.56
458,1747400942030,2.7,-1.23,1.7,124.51,-38.57,-106.69
459,1747400942040,2.7,-1.23,1.7,124.51,-38.57,-106.69
460,1747400942050,2.7,-1.23,1.7,124.51,-38.57,-106.69
461,1747400942060,2.68,-1.21,1.77,94.755,-4.425000000000001,-44.22
462,1747400942070,2.66,-1.19,1.84,65.0,29.72,18.25
463,1747400942080,2.66,-1.19,1.84,65.0,29.72,18.25
464,1747400942090,2.66,-1.19,1.84,65.0,29.72,18.25
465,1747400942100,2.4850000000000003,-0.915,1.7000000000000002,-30.915,16.599999999999998,55.91
466,1747400942110,2.31,-0.64,1.56,-126.83,3.48,93.57
467,1747400942120,2.31,-0.64,1.56,-126.83,3.48,93.57
468,1747400942130,2.31,-0.64,1.56,-126.83,3.48,93.57
469,1747400942140,1.81,-0.27,0.87,-179.505,-4.85,118.87
470,1747400942150,1.81,-0.27,0.87,-232.18,-13.18,144.17
471,1747400942160,1.81,-0.27,0.87,-232.18,-13.18,144.17
472,1747400942170,1.81,-0.27,0.87,-232.18,-13.18,144.17
473,1747400942180,1.32,0.07,0.46,-239.99,46.39,188.17
474,1747400942190,1.32,0.07,0.46,-239.99,46.39,188.17
475,1747400942200,1.32,0.07,0.46,-239.99,46.39,188.17
476,1747400942210,1.32,0.07,0.46,-239.99,46.39,188.17
477,1747400942220,1.02,0.28,0.27,-274.11,-0.55,227.17
478,1747400942230,1.02,0.28,0.27,-274.11,-0.55,227.17
479,1747400942240,1.02,0.28,0.27,-274.11,-0.55,227.17
480,1747400942250,1.02,0.28,0.27,-274.11,-0.55,227.17
481,1747400942260,0.91,0.43,0.27,-237.85,-7.81,259.7
482,1747400942270,0.91,0.43,0.27,-237.85,-7.81,259.7
483,1747400942280,0.91,0.43,0.27,-237.85,-7.81,259.7
484,1747400942290,0.91,0.43,0.27,-237.85,-7.81,259.7
485,1747400942300,0.75,0.5,0.35,-202.88,-8.12,250.43
486,1747400942310,0.75,0.5,0.35,-202.88,-8.12,250.43
487,1747400942320,0.75,0.5,0.35,-202.88,-8.12,250.43
488,1747400942330,0.8049999999999999,0.475,0.415,-193.94,-31.345,213.44
489,1747400942340,0.86,0.45,0.48,-185.0,-54.57,176.45
490,1747400942350,,,,,,
491,1747400942360,0.86,0.45,0.48,-185.0,-54.57,176.45
492,1747400942370,0.96,0.4,0.35,-131.9,-80.38,134.58
493,1747400942380,0.96,0.4,0.35,-131.9,-80.38,134.58
494,1747400942390,0.96,0.4,0.35,-131.9,-80.38,134.58
495,1747400942400,0.96,0.4,0.35,-131.9,-80.38,134.58
496,1747400942410,0.83,0.58,0.27,-11.72,7.26,47.97
497,1747400942420,0.83,0.58,0.27,-11.72,7.26,47.97
498,1747400942430,0.83,0.58,0.27,-11.72,7.26,47.97
499,1747400942440,0.83,0.58,0.27,-11.72,7.26,47.97
500,1747400942450,0.76,0.585,0.225,-11.72,7.26,47.97
501,1747400942460,0.69,0.59,0.18,58.84,62.44,-26.31
502,1747400942470,0.69,0.59,0.18,58.84,62.44,-26.31
503,1747400942480,0.69,0.59,0.18,58.84,62.44,-26.31
504,1747400942490,0.39,0.57,0.06,86.765,76.69,-72.05499999999999
505,1747400942500,0.39,0.57,0.06,114.69,90.94,-117.8
506,1747400942510,0.39,0.57,0.06,114.69,90.94,-117.8
507,1747400942520,0.455,0.635,0.115,142.51999999999998,66.13,-178.985
508,1747400942530,0.52,0.7,0.17,170.35,41.32,-240.17
509,1747400942540,0.52,0.7,0.17,170.35,41.32,-240.17
510,1747400942550,0.52,0.7,0.17,170.35,41.32,-240.17
511,1747400942560,0.745,0.63,0.265,166.81,14.28,-254.91
512,1747400942570,0.97,0.56,0.36,163.27,-12.76,-269.65
513,1747400942580,0.97,0.56,0.36,163.27,-12.76,-269.65
514,1747400942590,0.97,0.56,0.36,163.27,-12.76,-269.65
515,1747400942600,0.995,0.465,0.345,168.03,10.71,-255.28
516,1747400942610,1.02,0.37,0.33,172.79,34.18,-240.91
517,1747400942620,1.02,0.37,0.33,172.79,34.18,-240.91
518,1747400942630,1.02,0.37,0.33,172.79,34.18,-240.91
519,1747400942640,0.97,0.35,0.31,199.28,37.6,-218.08
520,1747400942650,0.97,0.35,0.31,199.28,37.6,-218.08
521,1747400942660,0.97,0.35,0.31,199.28,37.6,-218.08
522,1747400942670,0.97,0.35,0.31,199.28,37.6,-218.08
523,1747400942680,1.2,0.28,0.41,198.24,-1.1,-194.95
524,1747400942690,1.2,0.28,0.41,198.24,-1.1,-194.95
525,1747400942700,1.2,0.28,0.41,198.24,-1.1,-194.95
526,1747400942710,1.2,0.28,0.41,198.24,-1.1,-194.95
527,1747400942720,1.9,0.07,0.86,241.33,-47.18,-185.12
528,1747400942730,1.9,0.07,0.86,241.33,-47.18,-185.12
529,1747400942740,1.9,0.07,0.86,241.33,-47.18,-185.12
530,1747400942750,2.72,-0.39,1.45,241.33,-47.18,-185.12
531,1747400942760,2.72,-0.39,1.45,166.02,-82.21,-130.07
532,1747400942770,2.72,-0.39,1.45,166.02,-82.21,-130.07
533,1747400942780,2.72,-0.39,1.45,166.02,-82.21,-130.07
534,1747400942790,2.78,-0.595,1.535,127.26,-29.445,-79.895
535,1747400942800,2.84,-0.8,1.62,88.5,23.32,-29.72
536,1747400942810,2.84,-0.8,1.62,88.5,23.32,-29.72
537,1747400942820,2.84,-0.8,1.62,88.5,23.32,-29.72
538,1747400942830,2.43,-0.65,1.39,13.395,19.165,13.185000000000002
539,1747400942840,2.43,-0.65,1.39,-61.71,15.01,56.09
540,1747400942850,2.43,-0.65,1.39,-61.71,15.01,56.09
541,1747400942860,2.43,-0.65,1.39,-61.71,15.01,56.09
542,1747400942870,1.78,-0.43,0.78,-164.79,-23.5,145.94
543,1747400942880,1.78,-0.43,0.78,-164.79,-23.5,145.94
544,1747400942890,1.78,-0.43,0.78,-164.79,-23.5,145.94
545,1747400942900,1.78,-0.43,0.78,-164.79,-23.5,145.94
546,1747400942910,1.26,-0.12,0.48,-157.285,10.315,169.76999999999998
547,1747400942920,1.26,-0.12,0.48,-149.78,44.13,193.6
548,1747400942930,1.26,-0.12,0.48,-149.78,44.13,193.6
549,1747400942940,1.26,-0.12,0.48,-149.78,44.13,193.6
550,1747400942950,0.95,0.18,0.35,-201.72,38.09,233.03
551,1747400942960,0.95,0.18,0.35,-201.72,38.09,233.03
552,1747400942970,0.95,0.18,0.35,-201.72,38.09,233.03
553,1747400942980,0.91,0.26,0.315,-200.41,23.315,246.275
554,1747400942990,0.87,0.34,0.28,-199.1,8.54,259.52
555,1747400943000,0.87,0.34,0.28,-199.1,8.54,259.52
556,1747400943010,0.87,0.34,0.28,-199.1,8.54,259.52
557,1747400943020,0.87,0.34,0.28,-199.1,8.54,259.52
558,1747400943030,0.82,0.51,0.41,-196.41,4.21,234.68
559,1747400943040,0.82,0.51,0.41,-196.41,4.21,234.68
560,1747400943050,0.82,0.51,0.41,-196.41,4.21,234.68
561,1747400943060,0.935,0.4599999999999999,0.41,-196.41,4.21,234.68
562,1747400943070,1.05,0.41,0.41,-199.52,-39.18,240.72
563,1747400943080,1.05,0.41,0.41,-199.52,-39.18,240.72
564,1747400943090,1.05,0.41,0.41,-199.52,-39.18,240.72
565,1747400943100,1.05,0.41,0.41,-199.52,-39.18,240.72
566,1747400943110,1.065,0.53,0.41,-157.925,-40.68,213.41
567,1747400943120,1.08,0.65,0.41,-116.33,-42.18,186.1
568,1747400943130,1.08,0.65,0.41,-116.33,-42.18,186.1
569,1747400943140,0.85,0.63,0.17,-61.83,19.23,100.16
570,1747400943150,0.85,0.63,0.17,-61.83,19.23,100.16
571,1747400943160,0.85,0.63,0.17,-61.83,19.23,100.16
572,1747400943170,0.85,0.63,0.17,-61.83,19.23,100.16
573,1747400943180,0.59,0.58,-0.06,17.21,51.27,-24.17
574,1747400943190,0.59,0.58,-0.06,17.21,51.27,-24.17
575,1747400943200,0.59,0.58,-0.06,17.21,51.27,-24.17
576,1747400943210,0.5349999999999999,0.5700000000000001,-0.04,50.415000000000006,32.135000000000005,-77.33000000000001
577,1747400943220,0.48,0.56,-0.02,83.62,13.0,-130.49
578,1747400943230,0.48,0.56,-0.02,83.62,13.0,-130.49
579,1747400943240,0.48,0.56,-0.02,83.62,13.0,-130.49
580,1747400943250,0.69,0.69,0.15,83.62,13.0,-130.49
581,1747400943260,0.69,0.69,0.15,134.58,-24.78,-221.13
582,1747400943270,0.69,0.69,0.15,134.58,-24.78,-221.13
583,1747400943280,0.69,0.69,0.15,134.58,-24.78,-221.13
584,1747400943290,0.82,0.69,0.21,132.69,-26.885,-243.165
585,1747400943300,0.95,0.69,0.27,130.8,-28.99,-265.2
586,1747400943310,0.95,0.69,0.27,130.8,-28.99,-265.2
587,1747400943320,0.95,0.69,0.27,130.8,-28.99,-265.2
588,1747400943330,0.98,0.51,0.17,125.73,-7.45,-237.49
589,1747400943340,0.98,0.51,0.17,125.73,-7.45,-237.49
590,1747400943350,0.98,0.51,0.17,125.73,-7.45,-237.49
591,1747400943360,0.98,0.51,0.17,125.73,-7.45,-237.49
592,1747400943370,0.87,0.54,0.1,162.23,28.56,-232.6
593,1747400943380,0.87,0.54,0.1,162.23,28.56,-232.6
594,1747400943390,0.87,0.54,0.1,162.23,28.56,-232.6
595,1747400943400,0.87,0.54,0.1,162.23,28.56,-232.6
596,1747400943410,1.1,0.43,0.24,201.35,16.72,-229.8
597,1747400943420,1.1,0.43,0.24,201.35,16.72,-229.8
598,1747400943430,1.1,0.43,0.24,201.35,16.72,-229.8
599,1747400943440,1.445,0.265,0.56,218.99,5.92,-222.87
600,1747400943450,1.79,0.1,0.88,236.63,-4.88,-215.94
601,1747400943460,1.79,0.1,0.88,236.63,-4.88,-215.94
602,1747400943470,1.79,0.1,0.88,236.63,-4.88,-215.94
603,1747400943480,2.24,-0.22,1.2,236.63,-4.88,-215.94
604,1747400943490,2.69,-0.54,1.52,164.18,-33.39,-149.84
605,1747400943500,2.69,-0.54,1.52,164.18,-33.39,-149.84
606,1747400943510,2.69,-0.54,1.52,164.18,-33.39,-149.84
607,1747400943520,2.79,-0.65,1.685,129.88,11.075,-83.58500000000001
608,1747400943530,2.89,-0.76,1.85,95.58,55.54,-17.33
609,1747400943540,2.89,-0.76,1.85,95.58,55.54,-17.33
610,1747400943550,2.89,-0.76,1.85,95.58,55.54,-17.33
611,1747400943560,2.41,-0.5,1.58,-81.54,41.87,81.48
612,1747400943570,2.41,-0.5,1.58,-81.54,41.87,81.48
613,1747400943580,2.41,-0.5,1.58,-81.54,41.87,81.48
614,1747400943590,2.1,-0.365,1.21,-81.54,41.87,81.48
615,1747400943600,1.79,-0.23,0.84,-211.0,-3.78,151.92
616,1747400943610,1.79,-0.23,0.84,-211.0,-3.78,151.92
617,1747400943620,1.79,-0.23,0.84,-211.0,-3.78,151.92
618,1747400943630,1.79,-0.23,0.84,-211.0,-3.78,151.92
619,1747400943640,1.33,0.06,0.45,-223.88,20.57,193.6
620,1747400943650,1.33,0.06,0.45,-223.88,20.57,193.6
621,1747400943660,1.33,0.06,0.45,-223.88,20.57,193.6
622,1747400943670,1.23,0.18,0.34,-223.88,20.57,193.6
623,1747400943680,1.13,0.3,0.23,-263.31,0.24,238.65
624,1747400943690,1.13,0.3,0.23,-263.31,0.24,238.65
625,1747400943700,1.13,0.3,0.23,-263.31,0.24,238.65
626,1747400943710,1.065,0.38,0.185,-248.445,5.43,259.25
627,1747400943720,1.0,0.46,0.14,-233.58,10.62,279.85
628,1747400943730,1.0,0.46,0.14,-233.58,10.62,279.85
629,1747400943740,1.0,0.46,0.14,-233.58,10.62,279.85
630,1747400943750,0.87,0.51,0.185,-211.18,9.89,271.395
631,1747400943760,0.74,0.56,0.23,-188.78,9.16,262.94
632,1747400943770,0.74,0.56,0.23,-188.78,9.16,262.94
633,1747400943780,0.74,0.56,0.23,-188.78,9.16,262.94
634,1747400943790,0.715,0.5800000000000001,0.22,-191.285,-17.939999999999998,246.92
635,1747400943800,0.69,0.6,0.21,-193.79,-45.04,230.9
636,1747400943810,0.69,0.6,0.21,-193.79,-45.04,230.9
637,1747400943820,0.69,0.6,0.21,-193.79,-45.04,230.9
638,1747400943830,0.86,0.56,0.26,-193.79,-45.04,230.9
639,1747400943840,0.86,0.56,0.26,-108.22,-45.53,153.56
640,1747400943850,0.86,0.56,0.26,-108.22,-45.53,153.56
641,1747400943860,0.86,0.56,0.26,-108.22,-45.53,153.56
642,1747400943870,0.73,0.6,0.2,-39.43,-0.12,50.84
643,1747400943880,0.73,0.6,0.2,-39.43,-0.12,50.84
644,1747400943890,0.73,0.6,0.2,-39.43,-0.12,50.84
645,1747400943900,0.73,0.6,0.2,-39.43,-0.12,50.84
646,1747400943910,0.83,0.54,0.16,45.72,4.7,-74.4
647,1747400943920,0.83,0.54,0.16,45.72,4.7,-74.4
648,1747400943930,0.83,0.54,0.16,45.72,4.7,-74.4
649,1747400943940,0.76,0.545,0.195,70.16,13.03,-113.89
650,1747400943950,0.69,0.55,0.23,94.6,21.36,-153.38
651,1747400943960,0.69,0.55,0.23,94.6,21.36,-153.38
652,1747400943970,0.69,0.55,0.23,94.6,21.36,-153.38
653,1747400943980,0.79,0.64,0.25,118.805,16.755,-197.235
654,1747400943990,0.79,0.64,0.25,143.01,12.15,-241.09
655,1747400944000,0.79,0.64,0.25,143.01,12.15,-241.09
656,1747400944010,0.79,0.64,0.25,143.01,12.15,-241.09
657,1747400944020,0.91,0.61,0.285,147.065,-3.294999999999999,-252.93
658,1747400944030,1.03,0.58,0.32,151.12,-18.74,-264.77
659,1747400944040,1.03,0.58,0.32,151.12,-18.74,-264.77
660,1747400944050,1.03,0.58,0.32,151.12,-18.74,-264.77
661,1747400944060,1.01,0.35,0.29,149.9,12.45,-244.93
662,1747400944070,1.01,0.35,0.29,149.9,12.45,-244.93
663,1747400944080,1.01,0.35,0.29,149.9,12.45,-244.93
664,1747400944090,1.01,0.35,0.29,149.9,12.45,-244.93
665,1747400944100,0.93,0.26,0.24,172.91,37.29,-226.07
666,1747400944110,0.93,0.26,0.24,172.91,37.29,-226.07
667,1747400944120,0.93,0.26,0.24,172.91,37.29,-226.07
668,1747400944130,0.93,0.26,0.24,172.91,37.29,-226.07
669,1747400944140,1.045,0.16,0.28,171.415,41.38,-210.6
670,1747400944150,1.16,0.06,0.32,169.92,45.47,-195.13
671,1747400944160,1.16,0.06,0.32,169.92,45.47,-195.13
672,1747400944170,1.42,-0.135,0.5,183.96,11.93,-156.495
673,1747400944180,1.68,-0.33,0.68,198.0,-21.61,-117.86
674,1747400944190,1.68,-0.33,0.68,198.0,-21.61,-117.86
675,1747400944200,1.68,-0.33,0.68,198.0,-21.61,-117.86
676,1747400944210,2.67,-0.87,1.25,139.8,-75.35,-96.315
677,1747400944220,2.67,-0.87,1.25,81.6,-129.09,-74.77
678,1747400944230,2.67,-0.87,1.25,81.6,-129.09,-74.77
679,1747400944240,2.67,-0.87,1.25,81.6,-129.09,-74.77
680,1747400944250,2.9,-0.83,1.49,60.24,51.88,46.33
681,1747400944260,2.9,-0.83,1.49,60.24,51.88,46.33
682,1747400944270,2.9,-0.83,1.49,60.24,51.88,46.33
683,1747400944280,2.9,-0.83,1.49,60.24,51.88,46.33
684,1747400944290,2.66,-0.34,1.37,-95.95,50.66,141.36
685,1747400944300,2.66,-0.34,1.37,-95.95,50.66,141.36
686,1747400944310,2.66,-0.34,1.37,-95.95,50.66,141.36
687,1747400944320,2.66,-0.34,1.37,-95.95,50.66,141.36
688,1747400944330,1.97,0.03,0.89,-185.24,60.73,213.68
689,1747400944340,1.97,0.03,0.89,-185.24,60.73,213.68
690,1747400944350,1.97,0.03,0.89,-185.24,60.73,213.68
691,1747400944360,1.69,0.1599999999999999,0.7050000000000001,-185.24,60.73,213.68
692,1747400944370,1.41,0.29,0.52,-210.57,80.57,239.26
693,1747400944380,1.41,0.29,0.52,-210.57,80.57,239.26
694,1747400944390,1.41,0.29,0.52,-210.57,80.57,239.26
695,1747400944400,1.41,0.29,0.52,-210.57,80.57,239.26
696,1747400944410,1.02,0.49,0.27,-241.46,55.36,266.72
697,1747400944420,1.02,0.49,0.27,-241.46,55.36,266.72
698,1747400944430,1.02,0.49,0.27,-241.46,55.36,266.72
699,1747400944440,1.02,0.49,0.27,-241.46,55.36,266.72
700,1747400944450,0.69,0.6,0.13,-241.76,22.4,274.78
701,1747400944460,0.69,0.6,0.13,-241.76,22.4,274.78
702,1747400944470,0.69,0.6,0.13,-241.76,22.4,274.78
703,1747400944480,0.57,0.59,0.08,-233.825,6.254999999999999,254.7
704,1747400944490,0.45,0.58,0.03,-225.89,-9.89,234.62
705,1747400944500,0.45,0.58,0.03,-225.89,-9.89,234.62
706,1747400944510,0.45,0.58,0.03,-225.89,-9.89,234.62
707,1747400944520,0.47,0.52,-0.06,-179.38,-16.91,164.0
708,1747400944530,0.47,0.52,-0.06,-179.38,-16.91,164.0
709,1747400944540,0.47,0.52,-0.06,-179.38,-16.91,164.0
710,1747400944550,0.47,0.52,-0.06,-179.38,-16.91,164.0
711,1747400944560,0.78,0.43,0.06,-85.21,-47.79,98.33
712,1747400944570,0.78,0.43,0.06,-85.21,-47.79,98.33
713,1747400944580,0.78,0.43,0.06,-85.21,-47.79,98.33
714,1747400944590,0.78,0.43,0.06,-85.21,-47.79,98.33
715,1747400944600,0.8,0.46,0.14,-10.38,-12.82,49.32
716,1747400944610,0.8,0.46,0.14,-10.38,-12.82,49.32
717,1747400944620,0.8,0.46,0.14,-10.38,-12.82,49.32
718,1747400944630,0.7050000000000001,0.48,0.095,19.5,22.795,-12.114999999999998
719,1747400944640,0.61,0.5,0.05,49.38,58.41,-73.55
720,1747400944650,0.61,0.5,0.05,49.38,58.41,-73.55
721,1747400944660,0.61,0.5,0.05,49.38,58.41,-73.55
722,1747400944670,0.625,0.45,0.055,49.38,58.41,-73.55
723,1747400944680,0.64,0.4,0.06,100.71,31.8,-177.67
724,1747400944690,0.64,0.4,0.06,100.71,31.8,-177.67
725,1747400944700,0.64,0.4,0.06,100.71,31.8,-177.67
726,1747400944710,0.775,0.505,0.165,151.885,24.630000000000003,-228.635
727,1747400944720,0.91,0.61,0.27,203.06,17.46,-279.6
728,1747400944730,0.91,0.61,0.27,203.06,17.46,-279.6
729,1747400944740,0.91,0.61,0.27,203.06,17.46,-279.6
730,1747400944750,1.43,0.57,0.56,195.585,-7.08,-301.635
731,1747400944760,1.43,0.57,0.56,188.11,-31.62,-323.67
732,1747400944770,1.43,0.57,0.56,188.11,-31.62,-323.67
733,1747400944780,1.43,0.57,0.56,188.11,-31.62,-323.67
734,1747400944790,1.44,0.22,0.56,181.64,-20.39,-296.385
735,1747400944800,1.44,0.22,0.56,175.17,-9.16,-269.1
736,1747400944810,1.44,0.22,0.56,175.17,-9.16,-269.1
737,1747400944820,1.44,0.22,0.56,175.17,-9.16,-269.1
738,1747400944830,1.05,0.1,0.44,185.85,43.46,-241.27
739,1747400944840,1.05,0.1,0.44,185.85,43.46,-241.27
740,1747400944850,1.05,0.1,0.44,185.85,43.46,-241.27
741,1747400944860,1.06,-0.0699999999999999,0.44,176.32999999999998,50.54,-221.005
742,1747400944870,1.07,-0.24,0.44,166.81,57.62,-200.74
743,1747400944880,1.07,-0.24,0.44,166.81,57.62,-200.74
744,1747400944890,1.07,-0.24,0.44,166.81,57.62,-200.74
745,1747400944900,1.2000000000000002,-0.36,0.54,158.05,27.56,-184.875
746,1747400944910,1.33,-0.48,0.64,149.29,-2.5,-169.01
747,1747400944920,1.33,-0.48,0.64,149.29,-2.5,-169.01
748,1747400944930,1.33,-0.48,0.64,149.29,-2.5,-169.01
749,1747400944940,2.6,-1.01,1.21,113.1,-109.44,-82.15
750,1747400944950,2.6,-1.01,1.21,113.1,-109.44,-82.15
751,1747400944960,2.6,-1.01,1.21,113.1,-109.44,-82.15
752,1747400944970,2.6,-1.01,1.21,113.1,-109.44,-82.15
753,1747400944980,2.83,-0.79,1.46,80.93,53.65,99.67
754,1747400944990,2.83,-0.79,1.46,80.93,53.65,99.67
755,1747400945000,2.83,-0.79,1.46,80.93,53.65,99.67
756,1747400945010,2.83,-0.79,1.46,80.93,53.65,99.67
757,1747400945020,2.55,-0.26,1.47,-37.41,106.26,172.42
758,1747400945030,2.55,-0.26,1.47,-37.41,106.26,172.42
759,1747400945040,2.55,-0.26,1.47,-37.41,106.26,172.42
760,1747400945050,2.55,-0.26,1.47,-37.41,106.26,172.42
761,1747400945060,2.01,0.03,1.0,-172.61,18.37,217.29
762,1747400945070,2.01,0.03,1.0,-172.61,18.37,217.29
763,1747400945080,,,,,,
764,1747400945090,1.63,0.22,0.57,-172.61,18.37,217.29
765,1747400945100,1.63,0.22,0.57,-204.9,50.78,235.72
766,1747400945110,1.63,0.22,0.57,-204.9,50.78,235.72
767,1747400945120,1.63,0.22,0.57,-204.9,50.78,235.72
768,1747400945130,1.395,0.315,0.3999999999999999,-209.355,74.705,236.025
769,1747400945140,1.16,0.41,0.23,-213.81,98.63,236.33
770,1747400945150,1.16,0.41,0.23,-213.81,98.63,236.33
771,1747400945160,1.16,0.41,0.23,-213.81,98.63,236.33
772,1747400945170,0.76,0.57,0.09,-224.67,26.06,241.52
773,1747400945180,0.76,0.57,0.09,-224.67,26.06,241.52
774,1747400945190,0.76,0.57,0.09,-224.67,26.06,241.52
775,1747400945200,0.76,0.57,0.09,-224.67,26.06,241.52
776,1747400945210,0.6799999999999999,0.59,0.11,-221.1,8.45,231.05
777,1747400945220,0.6,0.61,0.13,-217.53,-9.16,220.58
778,1747400945230,0.6,0.61,0.13,-217.53,-9.16,220.58
779,1747400945240,0.6,0.61,0.13,-217.53,-9.16,220.58
780,1747400945250,0.42,0.46,0.07,-207.735,-7.02,190.765
781,1747400945260,0.42,0.46,0.07,-197.94,-4.88,160.95
782,1747400945270,0.42,0.46,0.07,-197.94,-4.88,160.95
783,1747400945280,0.42,0.46,0.07,-197.94,-4.88,160.95
784,1747400945290,0.6,0.5,0.03,-141.66,-51.51,56.21
785,1747400945300,0.6,0.5,0.03,-141.66,-51.51,56.21
786,1747400945310,0.6,0.5,0.03,-141.66,-51.51,56.21
787,1747400945320,0.6,0.5,0.03,-141.66,-51.51,56.21
788,1747400945330,0.84,0.45,0.08,-46.51,-41.81,-3.97
789,1747400945340,0.84,0.45,0.08,-46.51,-41.81,-3.97
790,1747400945350,0.84,0.45,0.08,-46.51,-41.81,-3.97
791,1747400945360,0.72,0.5,0.06,-1.4049999999999976,-1.8599999999999997,-33.355000000000004
792,1747400945370,0.6,0.55,0.04,43.7,38.09,-62.74
793,1747400945380,0.6,0.55,0.04,43.7,38.09,-62.74
794,1747400945390,0.6,0.55,0.04,43.7,38.09,-62.74
795,1747400945400,0.48,0.53,-0.02,43.7,38.09,-62.74
796,1747400945410,0.48,0.53,-0.02,115.48,59.2,-157.41
797,1747400945420,0.48,0.53,-0.02,115.48,59.2,-157.41
798,1747400945430,0.48,0.53,-0.02,115.48,59.2,-157.41
799,1747400945440,0.615,0.5900000000000001,0.1,115.48,59.2,-157.41
800,1747400945450,0.75,0.65,0.22,215.82,-4.21,-235.72
801,1747400945460,0.75,0.65,0.22,215.82,-4.21,-235.72
802,1747400945470,0.75,0.65,0.22,215.82,-4.21,-235.72
803,1747400945480,1.23,0.78,0.58,209.41,-25.755,-267.455
804,1747400945490,1.23,0.78,0.58,203.0,-47.3,-299.19
805,1747400945500,1.23,0.78,0.58,203.0,-47.3,-299.19
806,1747400945510,1.23,0.78,0.58,203.0,-47.3,-299.19
807,1747400945520,1.47,0.33,0.58,176.94,-36.315,-277.585
808,1747400945530,1.47,0.33,0.58,150.88,-25.33,-255.98
809,1747400945540,1.47,0.33,0.58,150.88,-25.33,-255.98
810,1747400945550,1.47,0.33,0.58,150.88,-25.33,-255.98
811,1747400945560,1.06,0.22,0.37,155.64,38.64,-209.72
812,1747400945570,1.06,0.22,0.37,155.64,38.64,-209.72
813,1747400945580,1.06,0.22,0.37,155.64,38.64,-209.72
814,1747400945590,1.06,0.22,0.37,155.64,38.64,-209.72
815,1747400945600,1.06,0.09,0.26,174.68,57.07,-191.22
816,1747400945610,1.06,0.09,0.26,174.68,57.07,-191.22
817,1747400945620,1.06,0.09,0.26,174.68,57.07,-191.22
818,1747400945630,1.06,0.09,0.26,174.68,57.07,-191.22
819,1747400945640,1.63,-0.08,0.75,237.55,12.63,-153.2
820,1747400945650,1.63,-0.08,0.75,237.55,12.63,-153.2
821,1747400945660,1.63,-0.08,0.75,237.55,12.63,-153.2
822,1747400945670,2.085,-0.2749999999999999,1.155,193.635,-9.465,-125.64
823,1747400945680,2.54,-0.47,1.56,149.72,-31.56,-98.08
824,1747400945690,2.54,-0.47,1.56,149.72,-31.56,-98.08
825,1747400945700,2.54,-0.47,1.56,149.72,-31.56,-98.08
826,1747400945710,2.62,-0.57,1.74,118.96,24.81,-36.62
827,1747400945720,2.62,-0.57,1.74,88.2,81.18,24.84
828,1747400945730,2.62,-0.57,1.74,88.2,81.18,24.84
829,1747400945740,2.62,-0.57,1.74,88.2,81.18,24.84
830,1747400945750,2.25,-0.14,1.56,-78.19,42.97,90.58
831,1747400945760,2.25,-0.14,1.56,-78.19,42.97,90.58
832,1747400945770,2.25,-0.14,1.56,-78.19,42.97,90.58
833,1747400945780,2.25,-0.14,1.56,-78.19,42.97,90.58
834,1747400945790,1.86,-0.01,0.9,-202.94,-4.82,149.48
835,1747400945800,1.86,-0.01,0.9,-202.94,-4.82,149.48
836,1747400945810,1.86,-0.01,0.9,-202.94,-4.82,149.48
837,1747400945820,1.6150000000000002,0.075,0.69,-202.94,-4.82,149.48
838,1747400945830,1.37,0.16,0.48,-226.62,47.06,186.04
839,1747400945840,1.37,0.16,0.48,-226.62,47.06,186.04
840,1747400945850,1.37,0.16,0.48,-226.62,47.06,186.04
841,1747400945860,1.205,0.25,0.36,-226.62,47.06,186.04
842,1747400945870,1.04,0.34,0.24,-260.31,42.05,217.9
843,1747400945880,1.04,0.34,0.24,-260.31,42.05,217.9
844,1747400945890,1.04,0.34,0.24,-260.31,42.05,217.9
845,1747400945900,0.91,0.385,0.18,-255.185,17.485,233.765
846,1747400945910,0.78,0.43,0.12,-250.06,-7.08,249.63
847,1747400945920,0.78,0.43,0.12,-250.06,-7.08,249.63
848,1747400945930,0.78,0.43,0.12,-250.06,-7.08,249.63
849,1747400945940,0.69,0.4549999999999999,0.135,-229.95,-19.135,246.43
850,1747400945950,0.6,0.48,0.15,-209.84,-31.19,243.23
851,1747400945960,0.6,0.48,0.15,-209.84,-31.19,243.23
852,1747400945970,0.6,0.48,0.15,-209.84,-31.19,243.23
853,1747400945980,0.5800000000000001,0.485,0.16,-194.43,-32.44,214.57
854,1747400945990,0.56,0.49,0.17,-179.02,-33.69,185.91
855,1747400946000,0.56,0.49,0.17,-179.02,-33.69,185.91
856,1747400946010,0.56,0.49,0.17,-179.02,-33.69,185.91
857,1747400946020,0.82,0.43,0.24,-91.61,-74.52,125.79
858,1747400946030,0.82,0.43,0.24,-91.61,-74.52,125.79
859,1747400946040,0.82,0.43,0.24,-91.61,-74.52,125.79
860,1747400946050,0.82,0.43,0.24,-91.61,-74.52,125.79
861,1747400946060,0.88,0.57,0.2,-14.95,-35.46,52.19
862,1747400946070,0.88,0.57,0.2,-14.95,-35.46,52.19
863,1747400946080,0.88,0.57,0.2,-14.95,-35.46,52.19
864,1747400946090,0.77,0.58,0.135,-14.95,-35.46,52.19
865,1747400946100,0.66,0.59,0.07,56.09,66.47,-56.95
866,1747400946110,0.66,0.59,0.07,56.09,66.47,-56.95
867,1747400946120,0.66,0.59,0.07,56.09,66.47,-56.95
868,1747400946130,0.5700000000000001,0.565,0.015,71.96000000000001,51.85,-97.935
869,1747400946140,0.48,0.54,-0.04,87.83,37.23,-138.92
870,1747400946150,0.48,0.54,-0.04,87.83,37.23,-138.92
871,1747400946160,0.48,0.54,-0.04,87.83,37.23,-138.92
872,1747400946170,0.5700000000000001,0.585,0.05,117.615,12.88,-175.935
873,1747400946180,0.66,0.63,0.14,147.4,-11.47,-212.95
874,1747400946190,0.66,0.63,0.14,147.4,-11.47,-212.95
875,1747400946200,0.66,0.63,0.14,147.4,-11.47,-212.95
876,1747400946210,0.93,0.61,0.34,128.85,-21.55,-263.67
877,1747400946220,0.93,0.61,0.34,128.85,-21.55,-263.67
878,1747400946230,0.93,0.61,0.34,128.85,-21.55,-263.67
879,1747400946240,0.93,0.61,0.34,128.85,-21.55,-263.67
880,1747400946250,0.99,0.37,0.29,101.01,8.42,-243.47
881,1747400946260,0.99,0.37,0.29,101.01,8.42,-243.47
882,1747400946270,0.99,0.37,0.29,101.01,8.42,-243.47
883,1747400946280,0.99,0.37,0.29,101.01,8.42,-243.47
884,1747400946290,0.91,0.26,0.2,139.1,56.64,-216.0
885,1747400946300,0.91,0.26,0.2,139.1,56.64,-216.0
886,1747400946310,0.91,0.26,0.2,139.1,56.64,-216.0
887,1747400946320,0.91,0.26,0.2,139.1,56.64,-216.0
888,1747400946330,1.1,0.18,0.3,144.35,27.89,-187.87
889,1747400946340,1.1,0.18,0.3,144.35,27.89,-187.87
890,1747400946350,1.1,0.18,0.3,144.35,27.89,-187.87
891,1747400946360,1.39,0.03,0.575,184.05,34.94,-171.72500000000002
892,1747400946370,1.68,-0.12,0.85,223.75,41.99,-155.58
893,1747400946380,1.68,-0.12,0.85,223.75,41.99,-155.58
894,1747400946390,1.68,-0.12,0.85,223.75,41.99,-155.58
895,1747400946400,2.12,-0.25,1.23,179.87,6.5600000000000005,-122.165
896,1747400946410,2.12,-0.25,1.23,135.99,-28.87,-88.75
897,1747400946420,2.12,-0.25,1.23,135.99,-28.87,-88.75
898,1747400946430,2.12,-0.25,1.23,135.99,-28.87,-88.75
899,1747400946440,2.53,-0.56,1.62,118.9,41.32,6.16
900,1747400946450,,,,,,
901,1747400946460,2.53,-0.56,1.62,118.9,41.32,6.16
902,1747400946470,2.53,-0.56,1.62,118.9,41.32,6.16
903,1747400946480,2.46,-0.06,1.84,57.620000000000005,53.59,24.200000000000003
904,1747400946490,2.46,-0.06,1.84,-3.66,65.86,42.24
905,1747400946500,2.46,-0.06,1.84,-3.66,65.86,42.24
906,1747400946510,2.46,-0.06,1.84,-3.66,65.86,42.24
907,1747400946520,1.96,-0.06,1.18,-169.62,21.91,114.2
908,1747400946530,1.96,-0.06,1.18,-169.62,21.91,114.2
909,1747400946540,1.96,-0.06,1.18,-169.62,21.91,114.2
910,1747400946550,1.96,-0.06,1.18,-169.62,21.91,114.2
911,1747400946560,1.36,0.04,0.53,-236.88,7.45,166.81
912,1747400946570,1.36,0.04,0.53,-236.88,7.45,166.81
913,1747400946580,1.36,0.04,0.53,-236.88,7.45,166.81
914,1747400946590,1.1,0.29,0.28,-236.88,7.45,166.81
915,1747400946600,1.1,0.29,0.28,-245.97,28.02,210.75
916,1747400946610,,,,,,
917,1747400946620,,,,,,
918,1747400946630,,,,,,
919,1747400946640,1.1,0.29,0.28,-245.97,28.02,210.75
920,1747400946650,,,,,,
921,1747400946660,,,,,,
922,1747400946670,0.76,0.67,0.33,-230.1,-14.04,239.38
923,1747400946680,,,,,,
924,1747400946690,,,,,,
925,1747400946700,0.78,0.54,0.33,-229.49,-50.17,208.8
926,1747400946710,0.78,0.54,0.33,-229.49,-50.17,208.8
927,1747400946720,0.78,0.54,0.33,-229.49,-50.17,208.8
928,1747400946730,0.78,0.54,0.33,-229.49,-50.17,208.8
929,1747400946740,0.78,0.54,0.33,-229.49,-50.17,208.8
930,1747400946750,0.76,0.44,0.2,-158.45,-35.77,155.09
931,1747400946760,0.76,0.44,0.2,-158.45,-35.77,155.09
932,1747400946770,0.76,0.44,0.2,-158.45,-35.77,155.09
933,1747400946780,0.78,0.495,0.21,-87.64999999999999,-23.865,105.62
934,1747400946790,0.8,0.55,0.22,-16.85,-11.96,56.15
935,1747400946800,0.8,0.55,0.22,-16.85,-11.96,56.15
936,1747400946810,0.8,0.55,0.22,-16.85,-11.96,56.15
937,1747400946820,0.78,0.5800000000000001,0.225,7.625,-16.08,11.625
938,1747400946830,0.76,0.61,0.23,32.1,-20.2,-32.9
939,1747400946840,0.76,0.61,0.23,32.1,-20.2,-32.9
940,1747400946850,0.76,0.61,0.23,32.1,-20.2,-32.9
941,1747400946860,0.615,0.585,0.16,58.835,13.885,-72.265
942,1747400946870,0.47,0.56,0.09,85.57,47.97,-111.63
943,1747400946880,0.47,0.56,0.09,85.57,47.97,-111.63
944,1747400946890,0.47,0.56,0.09,85.57,47.97,-111.63
945,1747400946900,0.45,0.63,0.08,144.59,10.68,-219.36
946,1747400946910,0.45,0.63,0.08,144.59,10.68,-219.36
947,1747400946920,0.45,0.63,0.08,144.59,10.68,-219.36
948,1747400946930,0.45,0.63,0.08,144.59,10.68,-219.36
949,1747400946940,0.78,0.61,0.22,140.96,-17.365,-233.125
950,1747400946950,0.78,0.61,0.22,137.33,-45.41,-246.89
951,1747400946960,0.78,0.61,0.22,137.33,-45.41,-246.89
952,1747400946970,0.78,0.61,0.22,137.33,-45.41,-246.89
953,1747400946980,0.74,0.4,0.18,146.85,10.01,-225.34
954,1747400946990,0.74,0.4,0.18,146.85,10.01,-225.34
955,1747400947000,0.74,0.4,0.18,146.85,10.01,-225.34
956,1747400947010,0.73,0.365,0.185,156.98000000000002,18.92,-216.4
957,1747400947020,0.72,0.33,0.19,167.11,27.83,-207.46
958,1747400947030,0.72,0.33,0.19,167.11,27.83,-207.46
959,1747400947040,0.72,0.33,0.19,167.11,27.83,-207.46
960,1747400947050,0.83,0.26,0.24,167.11,27.83,-207.46
961,1747400947060,0.94,0.19,0.29,182.07,36.07,-189.33
962,1747400947070,0.94,0.19,0.29,182.07,36.07,-189.33
963,1747400947080,0.94,0.19,0.29,182.07,36.07,-189.33
964,1747400947090,1.78,-0.05,1.04,182.07,36.07,-189.33
965,1747400947100,1.78,-0.05,1.04,228.64,-25.88,-225.4
966,1747400947110,1.78,-0.05,1.04,228.64,-25.88,-225.4
967,1747400947120,1.78,-0.05,1.04,228.64,-25.88,-225.4
968,1747400947130,3.28,-0.71,1.87,228.64,-25.88,-225.4
969,1747400947140,3.28,-0.71,1.87,103.39,-71.11,-133.0
970,1747400947150,3.28,-0.71,1.87,103.39,-71.11,-133.0
971,1747400947160,3.28,-0.71,1.87,103.39,-71.11,-133.0
972,1747400947170,3.29,-0.49,1.98,72.905,3.0799999999999983,-49.655
973,1747400947180,3.29,-0.49,1.98,42.42,77.27,33.69
974,1747400947190,3.29,-0.49,1.98,42.42,77.27,33.69
975,1747400947200,3.29,-0.49,1.98,42.42,77.27,33.69
976,1747400947210,2.49,-0.1,1.39,-148.93,51.94,131.35
977,1747400947220,2.49,-0.1,1.39,-148.93,51.94,131.35
978,1747400947230,2.49,-0.1,1.39,-148.93,51.94,131.35
979,1747400947240,2.49,-0.1,1.39,-148.93,51.94,131.35
980,1747400947250,1.6499999999999997,0.15,0.64,-216.25,23.070000000000004,183.78
981,1747400947260,1.65,0.15,0.64,-216.25,23.07,183.78
982,1747400947270,1.65,0.15,0.64,-216.25,23.07,183.78
983,1747400947280,1.42,0.245,0.485,-219.91,20.905,199.22
984,1747400947290,1.19,0.34,0.33,-223.57,18.74,214.66
985,1747400947300,1.19,0.34,0.33,-223.57,18.74,214.66
986,1747400947310,1.19,0.34,0.33,-223.57,18.74,214.66
987,1747400947320,1.05,0.43,0.255,-234.07,10.07,234.19
988,1747400947330,0.91,0.52,0.18,-244.57,1.4,253.72
989,1747400947340,0.91,0.52,0.18,-244.57,1.4,253.72
990,1747400947350,0.91,0.52,0.18,-244.57,1.4,253.72
991,1747400947360,0.765,0.595,0.145,-233.765,-5.92,264.005
992,1747400947370,0.62,0.67,0.11,-222.96,-13.24,274.29
993,1747400947380,0.62,0.67,0.11,-222.96,-13.24,274.29
994,1747400947390,0.62,0.67,0.11,-222.96,-13.24,274.29
995,1747400947400,0.46,0.66,0.11,-205.63,-44.74,231.69
996,1747400947410,0.46,0.66,0.11,-205.63,-44.74,231.69
997,1747400947420,0.46,0.66,0.11,-205.63,-44.74,231.69
998,1747400947430,0.46,0.66,0.11,-205.63,-44.74,231.69
999,1747400947440,0.52,0.58,0.05,-167.54,-64.39,148.93
1000,1747400947450,0.52,0.58,0.05,-167.54,-64.39,148.93
