id,timestamp,acc_x,acc_y,acc_z,gyro_x,gyro_y,gyro_z
0,1747400884890,1.28,0.98,0.53,-184.45,-2.38,121.89
1,1747400884900,,,,,,
2,1747400884910,1.28,0.98,0.53,-184.45,-2.38,121.89
3,1747400884920,0.46,0.98,-0.21,-117.61,-20.87,72.69
4,1747400884930,0.46,0.98,-0.21,-117.61,-20.87,72.69
5,1747400884940,0.46,0.98,-0.21,-117.61,-20.87,72.69
6,1747400884950,0.12,0.74,-0.27,-117.61,-20.87,72.69
7,1747400884960,0.12,0.74,-0.27,-32.04,-45.17,-1.59
8,1747400884970,0.12,0.74,-0.27,-32.04,-45.17,-1.59
9,1747400884980,0.12,0.74,-0.27,-32.04,-45.17,-1.59
10,1747400884990,-0.05,0.72,-0.24,37.66,34.85,-52.06
11,1747400885000,,,,,,
12,1747400885010,-0.05,0.72,-0.24,37.66,34.85,-52.06
13,1747400885020,-0.05,0.72,-0.24,37.66,34.85,-52.06
14,1747400885030,0.15,0.43,-0.11,41.69,20.14,-77.64
15,1747400885040,0.15,0.43,-0.11,41.69,20.14,-77.64
16,1747400885050,0.15,0.43,-0.11,41.69,20.14,-77.64
17,1747400885060,0.15,0.43,-0.11,41.69,20.14,-77.64
18,1747400885070,0.4,0.41,0.15,120.0,28.63,-76.17
19,1747400885080,0.4,0.41,0.15,120.0,28.63,-76.17
20,1747400885090,0.4,0.41,0.15,120.0,28.63,-76.17
21,1747400885100,0.4,0.41,0.15,120.0,28.63,-76.17
22,1747400885110,0.39,0.54,-0.03,155.15,47.3,-127.69
23,1747400885120,0.39,0.54,-0.03,155.15,47.3,-127.69
24,1747400885130,0.39,0.54,-0.03,155.15,47.3,-127.69
25,1747400885140,1.08,0.29,0.59,160.46,53.83,-166.5
26,1747400885150,1.08,0.29,0.59,160.46,53.83,-166.5
27,1747400885160,1.08,0.29,0.59,160.46,53.83,-166.5
28,1747400885170,1.08,0.29,0.59,160.46,53.83,-166.5
29,1747400885180,1.51,0.39,0.95,172.73,67.99,-174.8
30,1747400885190,1.51,0.39,0.95,172.73,67.99,-174.8
31,1747400885200,1.51,0.39,0.95,172.73,67.99,-174.8
32,1747400885210,1.51,0.39,0.95,172.73,67.99,-174.8
33,1747400885220,1.94,0.2,1.38,232.73,-74.1,-146.73
34,1747400885230,1.94,0.2,1.38,232.73,-74.1,-146.73
35,1747400885240,1.94,0.2,1.38,232.73,-74.1,-146.73
36,1747400885250,2.31,-0.01,1.52,232.73,-74.1,-146.73
37,1747400885260,2.31,-0.01,1.52,177.92,94.97,-105.16
38,1747400885270,2.31,-0.01,1.52,177.92,94.97,-105.16
39,1747400885280,2.31,-0.01,1.52,177.92,94.97,-105.16
40,1747400885290,2.31,-0.01,1.52,177.92,94.97,-105.16
41,1747400885300,1.3,-0.42,1.08,70.43,182.62,-48.65
42,1747400885310,1.3,-0.42,1.08,70.43,182.62,-48.65
43,1747400885320,1.3,-0.42,1.08,70.43,182.62,-48.65
44,1747400885330,0.99,-0.63,0.86,16.24,60.3,-3.17
45,1747400885340,0.99,-0.63,0.86,16.24,60.3,-3.17
46,1747400885350,0.99,-0.63,0.86,16.24,60.3,-3.17
47,1747400885360,0.99,-0.63,0.86,16.24,60.3,-3.17
48,1747400885370,0.83,-0.57,0.67,-98.63,-41.75,9.77
49,1747400885380,0.83,-0.57,0.67,-98.63,-41.75,9.77
50,1747400885390,0.83,-0.57,0.67,-98.63,-41.75,9.77
51,1747400885400,0.83,-0.57,0.67,-98.63,-41.75,9.77
52,1747400885410,1.02,-0.38,0.61,-135.8,-29.24,87.52
53,1747400885420,1.02,-0.38,0.61,-135.8,-29.24,87.52
54,1747400885430,1.02,-0.38,0.61,-135.8,-29.24,87.52
55,1747400885440,1.02,-0.205,0.7749999999999999,-135.8,-29.24,87.52
56,1747400885450,1.02,-0.03,0.94,-194.52,-15.32,128.85
57,1747400885460,1.02,-0.03,0.94,-194.52,-15.32,128.85
58,1747400885470,1.02,-0.03,0.94,-194.52,-15.32,128.85
59,1747400885480,1.02,-0.03,0.94,-194.52,-15.32,128.85
60,1747400885490,1.42,0.07,1.13,-229.92,-52.8,173.16
61,1747400885500,1.42,0.07,1.13,-229.92,-52.8,173.16
62,1747400885510,1.42,0.07,1.13,-229.92,-52.8,173.16
63,1747400885520,1.45,0.205,1.23,-229.49,-90.15,191.955
64,1747400885530,1.48,0.34,1.33,-229.06,-127.5,210.75
65,1747400885540,1.48,0.34,1.33,-229.06,-127.5,210.75
66,1747400885550,1.48,0.34,1.33,-229.06,-127.5,210.75
67,1747400885560,1.49,0.36,1.17,-220.305,-115.325,190.395
68,1747400885570,1.5,0.38,1.01,-211.55,-103.15,170.04
69,1747400885580,1.5,0.38,1.01,-211.55,-103.15,170.04
70,1747400885590,1.5,0.38,1.01,-211.55,-103.15,170.04
71,1747400885600,1.49,0.72,0.87,-159.425,-94.145,135.59
72,1747400885610,1.48,1.06,0.73,-107.3,-85.14,101.14
73,1747400885620,1.48,1.06,0.73,-107.3,-85.14,101.14
74,1747400885630,1.48,1.06,0.73,-107.3,-85.14,101.14
75,1747400885640,1.01,1.1,0.43,-94.27,-37.35,68.575
76,1747400885650,0.54,1.14,0.13,-81.24,10.44,36.01
77,1747400885660,0.54,1.14,0.13,-81.24,10.44,36.01
78,1747400885670,0.54,1.14,0.13,-81.24,10.44,36.01
79,1747400885680,-0.13,0.88,-0.39,-37.48,0.37,-35.52
80,1747400885690,-0.13,0.88,-0.39,-37.48,0.37,-35.52
81,1747400885700,-0.13,0.88,-0.39,-37.48,0.37,-35.52
82,1747400885710,-0.13,0.88,-0.39,-37.48,0.37,-35.52
83,1747400885720,-0.49,0.73,-0.42,44.68,-7.87,-137.57
84,1747400885730,-0.49,0.73,-0.42,44.68,-7.87,-137.57
85,1747400885740,-0.49,0.73,-0.42,44.68,-7.87,-137.57
86,1747400885750,-0.49,0.73,-0.42,44.68,-7.87,-137.57
87,1747400885760,-0.15,0.72,-0.4,59.94,-26.18,-138.85
88,1747400885770,-0.15,0.72,-0.4,59.94,-26.18,-138.85
89,1747400885780,-0.15,0.72,-0.4,59.94,-26.18,-138.85
90,1747400885790,-0.15,0.72,-0.4,59.94,-26.18,-138.85
91,1747400885800,-0.03,0.82,-0.06,140.62,44.68,-141.78
92,1747400885810,-0.03,0.82,-0.06,140.62,44.68,-141.78
93,1747400885820,-0.03,0.82,-0.06,140.62,44.68,-141.78
94,1747400885830,0.49,0.81,0.17,140.62,44.68,-141.78
95,1747400885840,0.49,0.81,0.17,181.76,60.61,-197.2
96,1747400885850,0.49,0.81,0.17,181.76,60.61,-197.2
97,1747400885860,0.49,0.81,0.17,181.76,60.61,-197.2
98,1747400885870,0.885,0.945,0.405,220.365,66.195,-211.025
99,1747400885880,1.28,1.08,0.64,258.97,71.78,-224.85
100,1747400885890,1.28,1.08,0.64,258.97,71.78,-224.85
101,1747400885900,1.28,1.08,0.64,258.97,71.78,-224.85
102,1747400885910,1.28,1.08,0.64,258.97,71.78,-224.85
103,1747400885920,2.03,1.03,1.22,296.26,-37.84,-246.7
104,1747400885930,2.03,1.03,1.22,296.26,-37.84,-246.7
105,1747400885940,2.03,1.03,1.22,296.26,-37.84,-246.7
106,1747400885950,2.91,0.78,1.6,237.49,2.5,-184.27
107,1747400885960,2.91,0.78,1.6,237.49,2.5,-184.27
108,1747400885970,2.91,0.78,1.6,237.49,2.5,-184.27
109,1747400885980,2.7,0.455,1.61,237.49,2.5,-184.27
110,1747400885990,2.49,0.13,1.62,114.81,174.32,-111.88
111,1747400886000,2.49,0.13,1.62,114.81,174.32,-111.88
112,1747400886010,2.49,0.13,1.62,114.81,174.32,-111.88
113,1747400886020,2.49,0.13,1.62,114.81,174.32,-111.88
114,1747400886030,1.81,-0.45,1.31,-29.05,68.6,-19.65
115,1747400886040,1.81,-0.45,1.31,-29.05,68.6,-19.65
116,1747400886050,1.81,-0.45,1.31,-29.05,68.6,-19.65
117,1747400886060,1.38,-0.71,0.72,-155.64,-43.15,50.05
118,1747400886070,1.38,-0.71,0.72,-155.64,-43.15,50.05
119,1747400886080,1.38,-0.71,0.72,-155.64,-43.15,50.05
120,1747400886090,1.38,-0.71,0.72,-155.64,-43.15,50.05
121,1747400886100,1.38,-0.71,0.72,-155.64,-43.15,50.05
122,1747400886110,1.19,-0.36,0.53,-208.19,-38.51,160.52
123,1747400886120,1.19,-0.36,0.53,-208.19,-38.51,160.52
124,1747400886130,1.19,-0.36,0.53,-208.19,-38.51,160.52
125,1747400886140,1.19,-0.36,0.53,-208.19,-38.51,160.52
126,1747400886150,1.02,0.27,0.79,-233.28,-18.31,216.25
127,1747400886160,1.02,0.27,0.79,-233.28,-18.31,216.25
128,1747400886170,1.02,0.27,0.79,-233.28,-18.31,216.25
129,1747400886180,1.38,0.59,0.94,-263.305,-46.875,237.52
130,1747400886190,1.38,0.59,0.94,-293.33,-75.44,258.79
131,1747400886200,1.38,0.59,0.94,-293.33,-75.44,258.79
132,1747400886210,1.38,0.59,0.94,-293.33,-75.44,258.79
133,1747400886220,1.67,0.76,1.07,-271.06,-65.25,289.43
134,1747400886230,1.67,0.76,1.07,-271.06,-65.25,289.43
135,1747400886240,,,,,,
136,1747400886250,1.67,0.76,1.07,-271.06,-65.25,289.43
137,1747400886260,1.35,0.61,0.96,-249.82,-79.35,261.66
138,1747400886270,1.35,0.61,0.96,-249.82,-79.35,261.66
139,1747400886280,1.35,0.61,0.96,-249.82,-79.35,261.66
140,1747400886290,1.29,0.77,0.73,-162.72,-141.48,136.72
141,1747400886300,1.29,0.77,0.73,-162.72,-141.48,136.72
142,1747400886310,1.29,0.77,0.73,-162.72,-141.48,136.72
143,1747400886320,1.29,0.77,0.73,-162.72,-141.48,136.72
144,1747400886330,0.81,1.0,0.21,-93.14,-8.85,61.16
145,1747400886340,0.81,1.0,0.21,-93.14,-8.85,61.16
146,1747400886350,,,,,,
147,1747400886360,,,,,,
148,1747400886370,0.13,0.99,-0.12,-42.85,8.06,-23.68
149,1747400886380,,,,,,
150,1747400886390,0.13,0.99,-0.12,-42.85,8.06,-23.68
151,1747400886400,-0.2,0.77,-0.21,-5.74,11.47,-72.63
152,1747400886410,-0.2,0.77,-0.21,-5.74,11.47,-72.63
153,1747400886420,-0.2,0.77,-0.21,-5.74,11.47,-72.63
154,1747400886430,-0.2,0.77,-0.21,-5.74,11.47,-72.63
155,1747400886440,-0.2,0.77,-0.21,-5.74,11.47,-72.63
156,1747400886450,-0.2,0.7,-0.22,24.54,39.79,-122.62
157,1747400886460,-0.2,0.7,-0.22,24.54,39.79,-122.62
158,1747400886470,-0.2,0.7,-0.22,24.54,39.79,-122.62
159,1747400886480,0.03,0.6,-0.26,74.89,62.68,-134.77
160,1747400886490,0.03,0.6,-0.26,74.89,62.68,-134.77
161,1747400886500,0.03,0.6,-0.26,74.89,62.68,-134.77
162,1747400886510,0.03,0.6,-0.26,74.89,62.68,-134.77
163,1747400886520,0.31,0.72,0.0,125.885,84.775,-128.845
164,1747400886530,0.31,0.72,0.0,176.88,106.87,-122.92
165,1747400886540,0.31,0.72,0.0,176.88,106.87,-122.92
166,1747400886550,0.31,0.72,0.0,176.88,106.87,-122.92
167,1747400886560,0.75,0.77,0.27,230.59,110.53,-168.03
168,1747400886570,0.75,0.77,0.27,230.59,110.53,-168.03
169,1747400886580,0.75,0.77,0.27,230.59,110.53,-168.03
170,1747400886590,1.165,0.81,0.56,230.59,110.53,-168.03
171,1747400886600,1.58,0.85,0.85,306.82,73.3,-206.48
172,1747400886610,1.58,0.85,0.85,306.82,73.3,-206.48
173,1747400886620,1.58,0.85,0.85,306.82,73.3,-206.48
174,1747400886630,1.58,0.85,0.85,306.82,73.3,-206.48
175,1747400886640,2.47,0.66,1.77,364.62,38.15,-200.44
176,1747400886650,2.47,0.66,1.77,364.62,38.15,-200.44
177,1747400886660,2.47,0.66,1.77,364.62,38.15,-200.44
178,1747400886670,2.67,0.5,2.005,305.96500000000003,68.3,-173.89
179,1747400886680,2.87,0.34,2.24,247.31,98.45,-147.34
180,1747400886690,2.87,0.34,2.24,247.31,98.45,-147.34
181,1747400886700,2.87,0.34,2.24,247.31,98.45,-147.34
182,1747400886710,2.21,-0.38,2.05,247.31,98.45,-147.34
183,1747400886720,2.21,-0.38,2.05,96.98,136.78,-58.53
184,1747400886730,2.21,-0.38,2.05,96.98,136.78,-58.53
185,1747400886740,2.21,-0.38,2.05,96.98,136.78,-58.53
186,1747400886750,1.55,-0.75,1.32,-90.09,-13.61,3.91
187,1747400886760,1.55,-0.75,1.32,-90.09,-13.61,3.91
188,1747400886770,1.55,-0.75,1.32,-90.09,-13.61,3.91
189,1747400886780,1.55,-0.75,1.32,-90.09,-13.61,3.91
190,1747400886790,1.09,-0.71,0.59,-211.55,-56.82,75.32
191,1747400886800,1.09,-0.71,0.59,-211.55,-56.82,75.32
192,1747400886810,1.09,-0.71,0.59,-211.55,-56.82,75.32
193,1747400886820,0.96,-0.18,0.52,-211.55,-56.82,75.32
194,1747400886830,0.96,-0.18,0.52,-225.52,-45.65,160.52
195,1747400886840,0.96,-0.18,0.52,-225.52,-45.65,160.52
196,1747400886850,0.96,-0.18,0.52,-225.52,-45.65,160.52
197,1747400886860,1.1,0.37,0.87,-252.01,-54.63,205.87
198,1747400886870,1.1,0.37,0.87,-252.01,-54.63,205.87
199,1747400886880,1.1,0.37,0.87,-252.01,-54.63,205.87
200,1747400886890,1.1,0.37,0.87,-252.01,-54.63,205.87
201,1747400886900,1.1,0.37,0.87,-252.01,-54.63,205.87
202,1747400886910,1.42,0.55,1.0,-293.4,-81.36,261.84
203,1747400886920,1.42,0.55,1.0,-293.4,-81.36,261.84
204,1747400886930,1.42,0.55,1.0,-293.4,-81.36,261.84
205,1747400886940,1.365,0.5700000000000001,0.99,-281.71,-77.18,272.18499999999995
206,1747400886950,1.31,0.59,0.98,-270.02,-73.0,282.53
207,1747400886960,1.31,0.59,0.98,-270.02,-73.0,282.53
208,1747400886970,1.31,0.59,0.98,-270.02,-73.0,282.53
209,1747400886980,1.05,0.4,0.65,-231.93,-94.06,233.22
210,1747400886990,1.05,0.4,0.65,-231.93,-94.06,233.22
211,1747400887000,1.05,0.4,0.65,-231.93,-94.06,233.22
212,1747400887010,1.05,0.4,0.65,-231.93,-94.06,233.22
213,1747400887020,1.14,0.7,0.45,-89.97,-55.6,106.14
214,1747400887030,1.14,0.7,0.45,-89.97,-55.6,106.14
215,1747400887040,1.14,0.7,0.45,-89.97,-55.6,106.14
216,1747400887050,1.14,0.7,0.45,-89.97,-55.6,106.14
217,1747400887060,0.52,0.97,0.03,-36.13,35.22,33.57
218,1747400887070,0.52,0.97,0.03,-36.13,35.22,33.57
219,1747400887080,0.52,0.97,0.03,-36.13,35.22,33.57
220,1747400887090,0.29,0.845,-0.1,-36.13,35.22,33.57
221,1747400887100,0.06,0.72,-0.23,17.7,43.09,-73.18
222,1747400887110,0.06,0.72,-0.23,17.7,43.09,-73.18
223,1747400887120,0.06,0.72,-0.23,17.7,43.09,-73.18
224,1747400887130,-0.035,0.675,-0.225,52.215,43.52,-111.54
225,1747400887140,-0.13,0.63,-0.22,86.73,43.95,-149.9
226,1747400887150,-0.13,0.63,-0.22,86.73,43.95,-149.9
227,1747400887160,-0.13,0.63,-0.22,86.73,43.95,-149.9
228,1747400887170,0.005,0.645,-0.15,100.22,30.095,-176.115
229,1747400887180,0.14,0.66,-0.08,113.71,16.24,-202.33
230,1747400887190,0.14,0.66,-0.08,113.71,16.24,-202.33
231,1747400887200,0.14,0.66,-0.08,113.71,16.24,-202.33
232,1747400887210,0.32,0.64,0.02,143.86,42.88,-196.195
233,1747400887220,0.32,0.64,0.02,174.01,69.52,-190.06
234,1747400887230,0.32,0.64,0.02,174.01,69.52,-190.06
235,1747400887240,0.32,0.64,0.02,174.01,69.52,-190.06
236,1747400887250,0.58,0.75,0.27,220.03,59.69,-187.19
237,1747400887260,0.58,0.75,0.27,220.03,59.69,-187.19
238,1747400887270,0.78,0.775,0.39,237.15,67.475,-203.305
239,1747400887280,0.98,0.8,0.51,254.27,75.26,-219.42
240,1747400887290,0.98,0.8,0.51,254.27,75.26,-219.42
241,1747400887300,0.98,0.8,0.51,254.27,75.26,-219.42
242,1747400887310,1.375,0.885,0.965,266.05,46.295,-236.635
243,1747400887320,1.77,0.97,1.42,277.83,17.33,-253.85
244,1747400887330,1.77,0.97,1.42,277.83,17.33,-253.85
245,1747400887340,1.77,0.97,1.42,277.83,17.33,-253.85
246,1747400887350,2.41,0.675,1.62,224.485,-7.66,-236.605
247,1747400887360,3.05,0.38,1.82,171.14,-32.65,-219.36
248,1747400887370,3.05,0.38,1.82,171.14,-32.65,-219.36
249,1747400887380,3.05,0.38,1.82,171.14,-32.65,-219.36
250,1747400887390,3.055,0.085,1.815,134.795,33.42,-146.24
251,1747400887400,3.06,-0.21,1.81,98.45,99.49,-73.12
252,1747400887410,3.06,-0.21,1.81,98.45,99.49,-73.12
253,1747400887420,3.06,-0.21,1.81,98.45,99.49,-73.12
254,1747400887430,2.6500000000000004,-0.41,1.5750000000000002,43.7,89.725,-12.025000000000002
255,1747400887440,2.24,-0.61,1.34,-11.05,79.96,49.07
256,1747400887450,2.24,-0.61,1.34,-11.05,79.96,49.07
257,1747400887460,2.24,-0.61,1.34,-11.05,79.96,49.07
258,1747400887470,1.755,-0.5549999999999999,1.07,-64.605,38.545,76.78
259,1747400887480,1.27,-0.5,0.8,-118.16,-2.87,104.49
260,1747400887490,1.27,-0.5,0.8,-118.16,-2.87,104.49
261,1747400887500,1.0,-0.28,0.51,-190.86,-78.55,139.71
262,1747400887510,1.0,-0.28,0.51,-190.86,-78.55,139.71
263,1747400887520,1.0,-0.28,0.51,-190.86,-78.55,139.71
264,1747400887530,1.0,-0.28,0.51,-190.86,-78.55,139.71
265,1747400887540,0.98,0.18,0.41,-202.395,-47.94,171.41500000000002
266,1747400887550,0.98,0.18,0.41,-213.93,-17.33,203.12
267,1747400887560,0.98,0.18,0.41,-213.93,-17.33,203.12
268,1747400887570,0.98,0.18,0.41,-213.93,-17.33,203.12
269,1747400887580,0.79,0.47,0.53,-231.54,-15.835,218.99
270,1747400887590,0.79,0.47,0.53,-249.15,-14.34,234.86
271,1747400887600,0.79,0.47,0.53,-249.15,-14.34,234.86
272,1747400887610,0.79,0.47,0.53,-249.15,-14.34,234.86
273,1747400887620,1.07,0.49,0.7,-243.9,-80.44,234.68
274,1747400887630,1.07,0.49,0.7,-243.9,-80.44,234.68
275,1747400887640,1.07,0.49,0.7,-243.9,-80.44,234.68
276,1747400887650,1.12,0.4549999999999999,0.7649999999999999,-227.02,-62.65,236.265
277,1747400887660,1.17,0.42,0.83,-210.14,-44.86,237.85
278,1747400887670,1.17,0.42,0.83,-210.14,-44.86,237.85
279,1747400887680,1.17,0.42,0.83,-210.14,-44.86,237.85
280,1747400887690,1.11,0.41,0.755,-210.14,-44.86,237.85
281,1747400887700,1.05,0.4,0.68,-158.57,-86.73,190.49
282,1747400887710,1.05,0.4,0.68,-158.57,-86.73,190.49
283,1747400887720,1.05,0.4,0.68,-158.57,-86.73,190.49
284,1747400887730,1.03,0.52,0.5800000000000001,-114.015,-55.265,145.325
285,1747400887740,1.01,0.64,0.48,-69.46,-23.8,100.16
286,1747400887750,1.01,0.64,0.48,-69.46,-23.8,100.16
287,1747400887760,1.01,0.64,0.48,-69.46,-23.8,100.16
288,1747400887770,0.43,0.76,0.08,-37.965,28.475,57.315
289,1747400887780,0.43,0.76,0.08,-6.47,80.75,14.47
290,1747400887790,0.43,0.76,0.08,-6.47,80.75,14.47
291,1747400887800,0.43,0.76,0.08,-6.47,80.75,14.47
292,1747400887810,0.07,0.56,-0.11,67.87,63.48,-118.53
293,1747400887820,0.07,0.56,-0.11,67.87,63.48,-118.53
294,1747400887830,0.07,0.56,-0.11,67.87,63.48,-118.53
295,1747400887840,0.07,0.56,-0.11,67.87,63.48,-118.53
296,1747400887850,0.19,0.66,-0.01,125.49,22.46,-188.11
297,1747400887860,0.19,0.66,-0.01,125.49,22.46,-188.11
298,1747400887870,0.19,0.66,-0.01,125.49,22.46,-188.11
299,1747400887880,0.19,0.66,-0.01,125.49,22.46,-188.11
300,1747400887890,0.35,0.62,0.06,144.53,39.61,-201.23
301,1747400887900,0.35,0.62,0.06,144.53,39.61,-201.23
302,1747400887910,0.35,0.62,0.06,144.53,39.61,-201.23
303,1747400887920,0.355,0.61,0.045,161.865,58.015,-197.205
304,1747400887930,0.36,0.6,0.03,179.2,76.42,-193.18
305,1747400887940,0.36,0.6,0.03,179.2,76.42,-193.18
306,1747400887950,0.36,0.6,0.03,179.2,76.42,-193.18
307,1747400887960,0.36,0.6,0.03,179.2,76.42,-193.18
308,1747400887970,0.6,0.64,0.2,217.59,70.25,-181.09
309,1747400887980,0.6,0.64,0.2,217.59,70.25,-181.09
310,1747400887990,0.6,0.64,0.2,217.59,70.25,-181.09
311,1747400888000,1.16,0.53,0.85,277.34,72.2,-196.29
312,1747400888010,1.16,0.53,0.85,277.34,72.2,-196.29
313,1747400888020,1.16,0.53,0.85,277.34,72.2,-196.29
314,1747400888030,1.16,0.53,0.85,277.34,72.2,-196.29
315,1747400888040,2.21,0.32,1.72,239.5,-51.57,-194.4
316,1747400888050,2.21,0.32,1.72,239.5,-51.57,-194.4
317,1747400888060,2.21,0.32,1.72,239.5,-51.57,-194.4
318,1747400888070,2.21,0.32,1.72,239.5,-51.57,-194.4
319,1747400888080,2.605,0.06,1.94,189.145,2.414999999999999,-144.93
320,1747400888090,3.0,-0.2,2.16,138.79,56.4,-95.46
321,1747400888100,3.0,-0.2,2.16,138.79,56.4,-95.46
322,1747400888110,3.0,-0.2,2.16,138.79,56.4,-95.46
323,1747400888120,2.66,-0.38,2.1,-2.44,64.64,10.74
324,1747400888130,2.66,-0.38,2.1,-2.44,64.64,10.74
325,1747400888140,2.66,-0.38,2.1,-2.44,64.64,10.74
326,1747400888150,2.325,-0.265,1.78,-76.385,11.935,51.145
327,1747400888160,1.99,-0.15,1.46,-150.33,-40.77,91.55
328,1747400888170,1.99,-0.15,1.46,-150.33,-40.77,91.55
329,1747400888180,1.99,-0.15,1.46,-150.33,-40.77,91.55
330,1747400888190,1.51,0.04,0.72,-150.33,-40.77,91.55
331,1747400888200,1.51,0.04,0.72,-227.54,-71.11,151.92
332,1747400888210,1.51,0.04,0.72,-227.54,-71.11,151.92
333,1747400888220,1.51,0.04,0.72,-227.54,-71.11,151.92
334,1747400888230,1.295,0.205,0.57,-242.95,-47.06,180.665
335,1747400888240,1.08,0.37,0.42,-258.36,-23.01,209.41
336,1747400888250,1.08,0.37,0.42,-258.36,-23.01,209.41
337,1747400888260,1.08,0.37,0.42,-258.36,-23.01,209.41
338,1747400888270,0.76,0.59,0.28,-260.22,-29.785000000000004,228.21
339,1747400888280,0.76,0.59,0.28,-262.08,-36.56,247.01
340,1747400888290,0.76,0.59,0.28,-262.08,-36.56,247.01
341,1747400888300,0.76,0.59,0.28,-262.08,-36.56,247.01
342,1747400888310,0.57,0.63,0.4,-236.51,-59.08,251.04
343,1747400888320,0.57,0.63,0.4,-236.51,-59.08,251.04
344,1747400888330,0.57,0.63,0.4,-236.51,-59.08,251.04
345,1747400888340,0.57,0.63,0.4,-236.51,-59.08,251.04
346,1747400888350,0.47,0.52,0.41,-222.35,-85.63,226.68
347,1747400888360,0.47,0.52,0.41,-222.35,-85.63,226.68
348,1747400888370,0.47,0.52,0.41,-222.35,-85.63,226.68
349,1747400888380,0.47,0.52,0.41,-222.35,-85.63,226.68
350,1747400888390,0.5,0.44,0.29,-153.56,-109.31,136.35
351,1747400888400,0.5,0.44,0.29,-153.56,-109.31,136.35
352,1747400888410,0.5,0.44,0.29,-153.56,-109.31,136.35
353,1747400888420,0.5,0.44,0.29,-153.56,-109.31,136.35
354,1747400888430,0.69,0.47,0.23,-38.7,-44.37,81.97
355,1747400888440,0.69,0.47,0.23,-38.7,-44.37,81.97
356,1747400888450,0.69,0.47,0.23,-38.7,-44.37,81.97
357,1747400888460,0.49,0.57,0.21,-38.7,-44.37,81.97
358,1747400888470,0.49,0.57,0.21,44.86,37.23,-22.83
359,1747400888480,0.49,0.57,0.21,44.86,37.23,-22.83
360,1747400888490,0.49,0.57,0.21,44.86,37.23,-22.83
361,1747400888500,0.4,0.55,0.13,91.49,50.42,-122.68
362,1747400888510,0.4,0.55,0.13,91.49,50.42,-122.68
363,1747400888520,0.4,0.55,0.13,91.49,50.42,-122.68
364,1747400888530,0.4,0.55,0.13,91.49,50.42,-122.68
365,1747400888540,0.47,0.57,0.22,197.14,62.19,-204.47
366,1747400888550,0.47,0.57,0.22,197.14,62.19,-204.47
367,1747400888560,0.47,0.57,0.22,197.14,62.19,-204.47
368,1747400888570,0.47,0.57,0.22,197.14,62.19,-204.47
369,1747400888580,0.74,0.86,0.51,232.54,23.5,-253.3
370,1747400888590,0.74,0.86,0.51,232.54,23.5,-253.3
371,1747400888600,0.74,0.86,0.51,232.54,23.5,-253.3
372,1747400888610,0.74,0.86,0.51,232.54,23.5,-253.3
373,1747400888620,1.0,0.66,0.53,200.87,31.68,-245.18
374,1747400888630,1.0,0.66,0.53,200.87,31.68,-245.18
375,1747400888640,1.0,0.66,0.53,200.87,31.68,-245.18
376,1747400888650,1.0,0.66,0.53,200.87,31.68,-245.18
377,1747400888660,0.85,0.51,0.51,216.0,84.35,-209.66
378,1747400888670,0.85,0.51,0.51,216.0,84.35,-209.66
379,1747400888680,0.85,0.51,0.51,216.0,84.35,-209.66
380,1747400888690,0.91,0.395,0.5900000000000001,207.395,60.575,-213.9
381,1747400888700,0.97,0.28,0.67,198.79,36.8,-218.14
382,1747400888710,0.97,0.28,0.67,198.79,36.8,-218.14
383,1747400888720,0.97,0.28,0.67,198.79,36.8,-218.14
384,1747400888730,1.76,-0.04,1.1,200.285,17.33,-205.565
385,1747400888740,1.76,-0.04,1.1,201.78,-2.14,-192.99
386,1747400888750,1.76,-0.04,1.1,201.78,-2.14,-192.99
387,1747400888760,1.76,-0.04,1.1,201.78,-2.14,-192.99
388,1747400888770,2.165,-0.125,1.34,159.665,-38.33,-150.785
389,1747400888780,2.57,-0.21,1.58,117.55,-74.52,-108.58
390,1747400888790,2.57,-0.21,1.58,117.55,-74.52,-108.58
391,1747400888800,2.57,-0.21,1.58,117.55,-74.52,-108.58
392,1747400888810,2.91,-0.3,1.57,-9.28,1.71,3.3
393,1747400888820,2.91,-0.3,1.57,-9.28,1.71,3.3
394,1747400888830,2.91,-0.3,1.57,-9.28,1.71,3.3
395,1747400888840,2.74,-0.12,1.41,-9.28,1.71,3.3
396,1747400888850,2.57,0.06,1.25,-107.85,-1.59,122.8
397,1747400888860,2.57,0.06,1.25,-107.85,-1.59,122.8
398,1747400888870,2.57,0.06,1.25,-107.85,-1.59,122.8
399,1747400888880,2.21,0.18,1.045,-143.405,-6.9,156.035
400,1747400888890,1.85,0.3,0.84,-178.96,-12.21,189.27
401,1747400888900,1.85,0.3,0.84,-178.96,-12.21,189.27
402,1747400888910,1.85,0.3,0.84,-178.96,-12.21,189.27
403,1747400888920,1.85,0.3,0.84,-178.96,-12.21,189.27
404,1747400888930,1.21,0.46,0.52,-224.18,-11.11,225.46
405,1747400888940,1.21,0.46,0.52,-224.18,-11.11,225.46
406,1747400888950,1.21,0.46,0.52,-224.18,-11.11,225.46
407,1747400888960,0.84,0.61,0.31,-252.75,-30.52,251.28
408,1747400888970,0.84,0.61,0.31,-252.75,-30.52,251.28
409,1747400888980,0.84,0.61,0.31,-252.75,-30.52,251.28
410,1747400888990,0.84,0.61,0.31,-252.75,-30.52,251.28
411,1747400889000,0.59,0.69,0.3,-236.63,-38.15,257.81
412,1747400889010,0.59,0.69,0.3,-236.63,-38.15,257.81
413,1747400889020,0.59,0.69,0.3,-236.63,-38.15,257.81
414,1747400889030,0.59,0.69,0.3,-236.63,-38.15,257.81
415,1747400889040,0.52,0.63,0.34,-229.37,-96.19,233.28
416,1747400889050,0.52,0.63,0.34,-229.37,-96.19,233.28
417,1747400889060,0.52,0.63,0.34,-229.37,-96.19,233.28
418,1747400889070,0.68,0.56,0.33,-206.635,-102.475,201.935
419,1747400889080,0.68,0.56,0.33,-183.9,-108.76,170.59
420,1747400889090,0.68,0.56,0.33,-183.9,-108.76,170.59
421,1747400889100,0.68,0.56,0.33,-183.9,-108.76,170.59
422,1747400889110,0.93,0.5,0.29,-93.87,-121.58,114.2
423,1747400889120,0.93,0.5,0.29,-93.87,-121.58,114.2
424,1747400889130,0.93,0.5,0.29,-93.87,-121.58,114.2
425,1747400889140,0.93,0.5,0.29,-93.87,-121.58,114.2
426,1747400889150,0.8300000000000001,0.5700000000000001,0.28,-39.215,-44.465,80.935
427,1747400889160,0.73,0.64,0.27,15.44,32.65,47.67
428,1747400889170,0.73,0.64,0.27,15.44,32.65,47.67
429,1747400889180,0.73,0.64,0.27,15.44,32.65,47.67
430,1747400889190,0.42,0.65,0.14,62.07,94.67,-61.89
431,1747400889200,0.42,0.65,0.14,62.07,94.67,-61.89
432,1747400889210,0.42,0.65,0.14,62.07,94.67,-61.89
433,1747400889220,0.42,0.65,0.14,62.07,94.67,-61.89
434,1747400889230,0.23,0.48,0.05,125.37,99.37,-174.99
435,1747400889240,0.23,0.48,0.05,125.37,99.37,-174.99
436,1747400889250,0.23,0.48,0.05,125.37,99.37,-174.99
437,1747400889260,0.46,0.76,0.34,125.37,99.37,-174.99
438,1747400889270,0.46,0.76,0.34,188.17,21.18,-257.81
439,1747400889280,0.46,0.76,0.34,188.17,21.18,-257.81
440,1747400889290,0.46,0.76,0.34,188.17,21.18,-257.81
441,1747400889300,0.645,0.76,0.395,158.845,-4.609999999999999,-272.915
442,1747400889310,0.83,0.76,0.45,129.52,-30.4,-288.02
443,1747400889320,0.83,0.76,0.45,129.52,-30.4,-288.02
444,1747400889330,0.83,0.76,0.45,129.52,-30.4,-288.02
445,1747400889340,0.855,0.5800000000000001,0.34,119.14,27.77,-260.71
446,1747400889350,0.88,0.4,0.23,108.76,85.94,-233.4
447,1747400889360,0.88,0.4,0.23,108.76,85.94,-233.4
448,1747400889370,0.88,0.4,0.23,108.76,85.94,-233.4
449,1747400889380,0.78,0.37,0.17,125.61,92.345,-215.395
450,1747400889390,0.78,0.37,0.17,142.46,98.75,-197.39
451,1747400889400,0.78,0.37,0.17,142.46,98.75,-197.39
452,1747400889410,0.78,0.37,0.17,142.46,98.75,-197.39
453,1747400889420,1.32,0.05,0.36,168.76,66.59,-175.84
454,1747400889430,1.32,0.05,0.36,168.76,66.59,-175.84
455,1747400889440,1.32,0.05,0.36,168.76,66.59,-175.84
456,1747400889450,1.7600000000000002,0.11,0.8400000000000001,188.6,4.0,-166.10500000000002
457,1747400889460,2.2,0.17,1.32,208.44,-58.59,-156.37
458,1747400889470,2.2,0.17,1.32,208.44,-58.59,-156.37
459,1747400889480,2.2,0.17,1.32,208.44,-58.59,-156.37
460,1747400889490,2.71,0.005,1.29,126.5,-54.23,-109.83
461,1747400889500,3.22,-0.16,1.26,44.56,-49.87,-63.29
462,1747400889510,3.22,-0.16,1.26,44.56,-49.87,-63.29
463,1747400889520,3.22,-0.16,1.26,44.56,-49.87,-63.29
464,1747400889530,3.005,-0.08,1.22,34.15,-4.305,8.425
465,1747400889540,2.79,0.0,1.18,23.74,41.26,80.14
466,1747400889550,2.79,0.0,1.18,23.74,41.26,80.14
467,1747400889560,2.79,0.0,1.18,23.74,41.26,80.14
468,1747400889570,2.18,0.25,1.03,-76.54,-45.59,147.71
469,1747400889580,2.18,0.25,1.03,-76.54,-45.59,147.71
470,1747400889590,2.18,0.25,1.03,-76.54,-45.59,147.71
471,1747400889600,2.18,0.25,1.03,-76.54,-45.59,147.71
472,1747400889610,1.47,0.29,0.5,-166.56,-136.11,191.22
473,1747400889620,1.47,0.29,0.5,-166.56,-136.11,191.22
474,1747400889630,1.47,0.29,0.5,-166.56,-136.11,191.22
475,1747400889640,1.47,0.29,0.5,-166.56,-136.11,191.22
476,1747400889650,1.13,0.35,0.22,-172.45,-119.63,218.045
477,1747400889660,1.13,0.35,0.22,-178.34,-103.15,244.87
478,1747400889670,1.13,0.35,0.22,-178.34,-103.15,244.87
479,1747400889680,0.92,0.445,0.18,-175.565,-81.025,271.145
480,1747400889690,0.71,0.54,0.14,-172.79,-58.9,297.42
481,1747400889700,0.71,0.54,0.14,-172.79,-58.9,297.42
482,1747400889710,0.71,0.54,0.14,-172.79,-58.9,297.42
483,1747400889720,0.615,0.6100000000000001,0.17,-172.79,-58.9,297.42
484,1747400889730,0.52,0.68,0.2,-146.97,-34.48,289.79
485,1747400889740,0.52,0.68,0.2,-146.97,-34.48,289.79
486,1747400889750,0.52,0.68,0.2,-146.97,-34.48,289.79
487,1747400889760,0.46,0.67,0.215,-155.515,-24.32,259.70000000000005
488,1747400889770,0.4,0.66,0.23,-164.06,-14.16,229.61
489,1747400889780,0.4,0.66,0.23,-164.06,-14.16,229.61
490,1747400889790,0.4,0.66,0.23,-164.06,-14.16,229.61
491,1747400889800,0.56,0.71,0.09,-139.28,-59.75,131.23
492,1747400889810,0.56,0.71,0.09,-139.28,-59.75,131.23
493,1747400889820,0.56,0.71,0.09,-139.28,-59.75,131.23
494,1747400889830,0.56,0.71,0.09,-139.28,-59.75,131.23
495,1747400889840,0.76,0.58,0.0,-40.41,-16.66,68.12
496,1747400889850,0.76,0.58,0.0,-40.41,-16.66,68.12
497,1747400889860,0.76,0.58,0.0,-40.41,-16.66,68.12
498,1747400889870,0.635,0.62,0.02,-40.41,-16.66,68.12
499,1747400889880,0.51,0.66,0.04,36.56,99.43,-4.27
500,1747400889890,0.51,0.66,0.04,36.56,99.43,-4.27
501,1747400889900,0.51,0.66,0.04,36.56,99.43,-4.27
502,1747400889910,0.48,0.63,0.035,64.11500000000001,120.455,-73.09
503,1747400889920,0.45,0.6,0.03,91.67,141.48,-141.91
504,1747400889930,0.45,0.6,0.03,91.67,141.48,-141.91
505,1747400889940,0.45,0.6,0.03,91.67,141.48,-141.91
506,1747400889950,0.6,0.635,0.14,91.67,141.48,-141.91
507,1747400889960,0.75,0.67,0.25,199.58,93.08,-221.8
508,1747400889970,0.75,0.67,0.25,199.58,93.08,-221.8
509,1747400889980,0.75,0.67,0.25,199.58,93.08,-221.8
510,1747400889990,1.22,0.88,0.53,204.9,-0.55,-257.63
511,1747400890000,1.22,0.88,0.53,204.9,-0.55,-257.63
512,1747400890010,1.22,0.88,0.53,204.9,-0.55,-257.63
513,1747400890020,1.22,0.88,0.53,204.9,-0.55,-257.63
514,1747400890030,1.13,0.43,0.31,168.33,92.59,-214.29
515,1747400890040,1.13,0.43,0.31,168.33,92.59,-214.29
516,1747400890050,1.13,0.43,0.31,168.33,92.59,-214.29
517,1747400890060,1.13,0.43,0.31,168.33,92.59,-214.29
518,1747400890070,0.72,0.35,0.19,182.03500000000005,106.78,-186.95
519,1747400890080,0.72,0.35,0.19,195.74,120.97,-159.61
520,1747400890090,0.72,0.35,0.19,195.74,120.97,-159.61
521,1747400890100,0.72,0.35,0.19,195.74,120.97,-159.61
522,1747400890110,0.71,0.22,0.35,189.76,79.59,-160.64
523,1747400890120,0.71,0.22,0.35,189.76,79.59,-160.64
524,1747400890130,0.71,0.22,0.35,189.76,79.59,-160.64
525,1747400890140,1.0699999999999998,0.0849999999999999,0.595,197.42,51.24,-151.855
526,1747400890150,1.43,-0.05,0.84,205.08,22.89,-143.07
527,1747400890160,1.43,-0.05,0.84,205.08,22.89,-143.07
528,1747400890170,1.43,-0.05,0.84,205.08,22.89,-143.07
529,1747400890180,2.44,-0.05,1.64,205.08,22.89,-143.07
530,1747400890190,2.44,-0.05,1.64,146.3,-77.33,-105.29
531,1747400890200,2.44,-0.05,1.64,146.3,-77.33,-105.29
532,1747400890210,2.44,-0.05,1.64,146.3,-77.33,-105.29
533,1747400890220,2.82,-0.5,1.48,74.37,-29.45,-44.77
534,1747400890230,2.82,-0.5,1.48,2.44,18.43,15.75
535,1747400890240,2.82,-0.5,1.48,2.44,18.43,15.75
536,1747400890250,2.82,-0.5,1.48,2.44,18.43,15.75
537,1747400890260,2.38,-0.02,1.48,2.44,18.43,15.75
538,1747400890270,2.38,-0.02,1.48,-44.43,-1.16,144.47
539,1747400890280,2.38,-0.02,1.48,-44.43,-1.16,144.47
540,1747400890290,2.38,-0.02,1.48,-44.43,-1.16,144.47
541,1747400890300,2.1,0.24,1.18,-165.59,-14.77,188.29
542,1747400890310,2.1,0.24,1.18,-165.59,-14.77,188.29
543,1747400890320,2.1,0.24,1.18,-165.59,-14.77,188.29
544,1747400890330,2.1,0.24,1.18,-165.59,-14.77,188.29
545,1747400890340,1.49,0.5,0.73,-227.36,46.26,223.51
546,1747400890350,1.49,0.5,0.73,-227.36,46.26,223.51
547,1747400890360,1.49,0.5,0.73,-227.36,46.26,223.51
548,1747400890370,1.49,0.5,0.73,-227.36,46.26,223.51
549,1747400890380,0.99,0.68,0.42,-272.09,13.85,238.28
550,1747400890390,0.99,0.68,0.42,-272.09,13.85,238.28
551,1747400890400,0.99,0.68,0.42,-272.09,13.85,238.28
552,1747400890410,0.84,0.73,0.345,-274.68499999999995,-13.064999999999998,241.15
553,1747400890420,0.69,0.78,0.27,-277.28,-39.98,244.02
554,1747400890430,0.69,0.78,0.27,-277.28,-39.98,244.02
555,1747400890440,0.69,0.78,0.27,-277.28,-39.98,244.02
556,1747400890450,0.635,0.79,0.25,-265.685,-53.53,233.885
557,1747400890460,0.58,0.8,0.23,-254.09,-67.08,223.75
558,1747400890470,0.58,0.8,0.23,-254.09,-67.08,223.75
559,1747400890480,0.58,0.8,0.23,-254.09,-67.08,223.75
560,1747400890490,0.42,0.66,0.1,-243.53,-68.695,203.275
561,1747400890500,0.42,0.66,0.1,-232.97,-70.31,182.8
562,1747400890510,0.42,0.66,0.1,-232.97,-70.31,182.8
563,1747400890520,0.42,0.66,0.1,-232.97,-70.31,182.8
564,1747400890530,0.54,0.54,-0.07,-188.6,-91.245,131.04000000000002
565,1747400890540,0.54,0.54,-0.07,-144.23,-112.18,79.28
566,1747400890550,0.54,0.54,-0.07,-144.23,-112.18,79.28
567,1747400890560,0.54,0.54,-0.07,-144.23,-112.18,79.28
568,1747400890570,0.76,0.59,-0.02,-19.23,-54.14,56.7
569,1747400890580,0.76,0.59,-0.02,-19.23,-54.14,56.7
570,1747400890590,0.76,0.59,-0.02,-19.23,-54.14,56.7
571,1747400890600,0.76,0.59,-0.02,-19.23,-54.14,56.7
572,1747400890610,0.51,0.62,-0.04,62.56,65.92,-24.17
573,1747400890620,0.51,0.62,-0.04,62.56,65.92,-24.17
574,1747400890630,0.51,0.62,-0.04,62.56,65.92,-24.17
575,1747400890640,0.51,0.62,-0.04,62.56,65.92,-24.17
576,1747400890650,0.34,0.53,-0.01,147.16,95.09,-130.8
577,1747400890660,0.34,0.53,-0.01,147.16,95.09,-130.8
578,1747400890670,0.34,0.53,-0.01,147.16,95.09,-130.8
579,1747400890680,0.445,0.615,0.13,194.58,69.21000000000001,-177.215
580,1747400890690,0.55,0.7,0.27,242.0,43.33,-223.63
581,1747400890700,0.55,0.7,0.27,242.0,43.33,-223.63
582,1747400890710,0.55,0.7,0.27,242.0,43.33,-223.63
583,1747400890720,1.0,0.84,0.67,228.27,-13.18,-283.08
584,1747400890730,1.0,0.84,0.67,228.27,-13.18,-283.08
585,1747400890740,1.0,0.84,0.67,228.27,-13.18,-283.08
586,1747400890750,1.0,0.84,0.67,228.27,-13.18,-283.08
587,1747400890760,1.25,0.45,0.59,156.25,21.0,-237.3
588,1747400890770,1.25,0.45,0.59,156.25,21.0,-237.3
589,1747400890780,1.25,0.45,0.59,156.25,21.0,-237.3
590,1747400890790,1.25,0.45,0.59,156.25,21.0,-237.3
591,1747400890800,0.93,0.26,0.47,148.19,81.42,-198.36
592,1747400890810,0.93,0.26,0.47,148.19,81.42,-198.36
593,1747400890820,0.93,0.26,0.47,148.19,81.42,-198.36
594,1747400890830,1.005,0.145,0.415,147.43,80.535,-190.155
595,1747400890840,1.08,0.03,0.36,146.67,79.65,-181.95
596,1747400890850,1.08,0.03,0.36,146.67,79.65,-181.95
597,1747400890860,1.08,0.03,0.36,146.67,79.65,-181.95
598,1747400890870,1.08,0.03,0.36,146.67,79.65,-181.95
599,1747400890880,1.91,-0.22,1.02,236.76,63.29,-154.85
600,1747400890890,1.91,-0.22,1.02,236.76,63.29,-154.85
601,1747400890900,1.91,-0.22,1.02,236.76,63.29,-154.85
602,1747400890910,2.415,-0.32,1.47,215.515,95.09,-99.275
603,1747400890920,2.92,-0.42,1.92,194.27,126.89,-43.7
604,1747400890930,2.92,-0.42,1.92,194.27,126.89,-43.7
605,1747400890940,2.92,-0.42,1.92,194.27,126.89,-43.7
606,1747400890950,2.715,-0.355,2.08,194.27,126.89,-43.7
607,1747400890960,2.51,-0.29,2.24,46.57,147.09,102.48
608,1747400890970,2.51,-0.29,2.24,46.57,147.09,102.48
609,1747400890980,2.51,-0.29,2.24,46.57,147.09,102.48
610,1747400890990,1.8,-0.03,1.73,-53.86500000000001,92.865,107.88
611,1747400891000,1.8,-0.03,1.73,-154.3,38.64,113.28
612,1747400891010,1.8,-0.03,1.73,-154.3,38.64,113.28
613,1747400891020,1.58,0.03,1.34,-154.3,38.64,113.28
614,1747400891030,1.36,0.09,0.95,-252.5,-39.31,131.77
615,1747400891040,1.36,0.09,0.95,-252.5,-39.31,131.77
616,1747400891050,1.36,0.09,0.95,-252.5,-39.31,131.77
617,1747400891060,1.36,0.09,0.95,-252.5,-39.31,131.77
618,1747400891070,1.08,0.35,0.47,-288.21,-39.0,169.74
619,1747400891080,1.08,0.35,0.47,-288.21,-39.0,169.74
620,1747400891090,1.08,0.35,0.47,-288.21,-39.0,169.74
621,1747400891100,1.08,0.35,0.47,-288.21,-39.0,169.74
622,1747400891110,0.69,0.58,0.22,-295.53,-16.36,207.52
623,1747400891120,0.69,0.58,0.22,-295.53,-16.36,207.52
624,1747400891130,0.69,0.58,0.22,-295.53,-16.36,207.52
625,1747400891140,0.69,0.58,0.22,-295.53,-16.36,207.52
626,1747400891150,0.51,0.62,0.18,-280.03,-52.31,203.86
627,1747400891160,0.51,0.62,0.18,-280.03,-52.31,203.86
628,1747400891170,0.51,0.62,0.18,-280.03,-52.31,203.86
629,1747400891180,0.4649999999999999,0.565,0.19,-262.545,-62.255,190.28
630,1747400891190,0.42,0.51,0.2,-245.06,-72.2,176.7
631,1747400891200,0.42,0.51,0.2,-245.06,-72.2,176.7
632,1747400891210,0.42,0.51,0.2,-245.06,-72.2,176.7
633,1747400891220,0.475,0.475,0.155,-207.245,-94.845,141.575
634,1747400891230,0.53,0.44,0.11,-169.43,-117.49,106.45
635,1747400891240,0.53,0.44,0.11,-169.43,-117.49,106.45
636,1747400891250,0.53,0.44,0.11,-169.43,-117.49,106.45
637,1747400891260,0.86,0.52,0.14,-50.54,-101.56,65.31
638,1747400891270,0.86,0.52,0.14,-50.54,-101.56,65.31
639,1747400891280,0.86,0.52,0.14,-50.54,-101.56,65.31
640,1747400891290,0.86,0.52,0.14,-50.54,-101.56,65.31
641,1747400891300,0.7,0.66,0.15,35.52,23.68,-10.68
642,1747400891310,0.7,0.66,0.15,35.52,23.68,-10.68
643,1747400891320,0.7,0.66,0.15,35.52,23.68,-10.68
644,1747400891330,0.585,0.63,0.1,35.52,23.68,-10.68
645,1747400891340,0.47,0.6,0.05,104.49,99.73,-122.25
646,1747400891350,0.47,0.6,0.05,104.49,99.73,-122.25
647,1747400891360,0.47,0.6,0.05,104.49,99.73,-122.25
648,1747400891370,0.47,0.6,0.05,104.49,99.73,-122.25
649,1747400891380,0.61,0.65,0.28,178.71,57.56,-199.71
650,1747400891390,0.61,0.65,0.28,178.71,57.56,-199.71
651,1747400891400,0.61,0.65,0.28,178.71,57.56,-199.71
652,1747400891410,0.745,0.645,0.375,173.95,58.96,-218.11
653,1747400891420,0.88,0.64,0.47,169.19,60.36,-236.51
654,1747400891430,0.88,0.64,0.47,169.19,60.36,-236.51
655,1747400891440,0.88,0.64,0.47,169.19,60.36,-236.51
656,1747400891450,0.83,0.37,0.35,169.19,60.36,-236.51
657,1747400891460,0.83,0.37,0.35,150.88,66.35,-209.53
658,1747400891470,0.83,0.37,0.35,150.88,66.35,-209.53
659,1747400891480,0.83,0.37,0.35,150.88,66.35,-209.53
660,1747400891490,0.88,0.24,0.39,158.755,80.38499999999999,-191.895
661,1747400891500,0.88,0.24,0.39,166.63,94.42,-174.26
662,1747400891510,0.88,0.24,0.39,166.63,94.42,-174.26
663,1747400891520,0.88,0.24,0.39,166.63,94.42,-174.26
664,1747400891530,0.8,0.02,0.33,159.0,78.37,-160.46
665,1747400891540,0.8,0.02,0.33,159.0,78.37,-160.46
666,1747400891550,0.8,0.02,0.33,159.0,78.37,-160.46
667,1747400891560,1.28,-0.155,0.665,193.485,52.370000000000005,-152.28
668,1747400891570,1.76,-0.33,1.0,227.97,26.37,-144.1
669,1747400891580,1.76,-0.33,1.0,227.97,26.37,-144.1
670,1747400891590,1.76,-0.33,1.0,227.97,26.37,-144.1
671,1747400891600,1.76,-0.33,1.0,227.97,26.37,-144.1
672,1747400891610,2.25,-0.355,1.45,180.79,-0.5499999999999989,-99.06
673,1747400891620,2.74,-0.38,1.9,133.61,-27.47,-54.02
674,1747400891630,2.74,-0.38,1.9,133.61,-27.47,-54.02
675,1747400891640,2.675,-0.405,1.95,87.525,20.9,2.8649999999999984
676,1747400891650,2.61,-0.43,2.0,41.44,69.27,59.75
677,1747400891660,2.61,-0.43,2.0,41.44,69.27,59.75
678,1747400891670,2.61,-0.43,2.0,41.44,69.27,59.75
679,1747400891680,2.325,-0.1699999999999999,1.875,-20.175000000000004,35.0,76.2
680,1747400891690,2.04,0.09,1.75,-81.79,0.73,92.65
681,1747400891700,2.04,0.09,1.75,-81.79,0.73,92.65
682,1747400891710,2.04,0.09,1.75,-81.79,0.73,92.65
683,1747400891720,1.72,0.18,1.05,-216.31,-41.26,119.57
684,1747400891730,1.72,0.18,1.05,-216.31,-41.26,119.57
685,1747400891740,1.72,0.18,1.05,-216.31,-41.26,119.57
686,1747400891750,1.72,0.18,1.05,-216.31,-41.26,119.57
687,1747400891760,1.15,0.32,0.48,-261.23,-3.36,152.71
688,1747400891770,1.15,0.32,0.48,-261.23,-3.36,152.71
689,1747400891780,1.15,0.32,0.48,-261.23,-3.36,152.71
690,1747400891790,1.15,0.32,0.48,-261.23,-3.36,152.71
691,1747400891800,0.8,0.46,0.14,-278.26,-49.19,196.72
692,1747400891810,0.8,0.46,0.14,-278.26,-49.19,196.72
693,1747400891820,0.8,0.46,0.14,-278.26,-49.19,196.72
694,1747400891830,0.625,0.54,0.115,-260.375,-55.45,211.825
695,1747400891840,0.45,0.62,0.09,-242.49,-61.71,226.93
696,1747400891850,0.45,0.62,0.09,-242.49,-61.71,226.93
697,1747400891860,0.45,0.62,0.09,-242.49,-61.71,226.93
698,1747400891870,0.305,0.575,0.1,-231.415,-64.85,211.03
699,1747400891880,0.16,0.53,0.11,-220.34,-67.99,195.13
700,1747400891890,0.16,0.53,0.11,-220.34,-67.99,195.13
701,1747400891900,0.16,0.53,0.11,-220.34,-67.99,195.13
702,1747400891910,0.22,0.5900000000000001,0.0849999999999999,-191.315,-84.53,147.735
703,1747400891920,0.28,0.65,0.06,-162.29,-101.07,100.34
704,1747400891930,,,,,,
705,1747400891940,0.28,0.65,0.06,-162.29,-101.07,100.34
706,1747400891950,0.69,0.65,0.2,-78.49,-125.06,60.67
707,1747400891960,0.69,0.65,0.2,-78.49,-125.06,60.67
708,1747400891970,0.69,0.65,0.2,-78.49,-125.06,60.67
709,1747400891980,0.69,0.65,0.2,-78.49,-125.06,60.67
710,1747400891990,0.51,0.66,0.1,14.59,18.98,0.79
711,1747400892000,0.51,0.66,0.1,14.59,18.98,0.79
712,1747400892010,0.51,0.66,0.1,14.59,18.98,0.79
713,1747400892020,0.49,0.655,0.12,14.59,18.98,0.79
714,1747400892030,0.47,0.65,0.14,112.98,77.09,-119.38
715,1747400892040,0.47,0.65,0.14,112.98,77.09,-119.38
716,1747400892050,0.47,0.65,0.14,112.98,77.09,-119.38
717,1747400892060,0.595,0.71,0.26,163.455,62.900000000000006,-164.03
718,1747400892070,0.72,0.77,0.38,213.93,48.71,-208.68
719,1747400892080,0.72,0.77,0.38,213.93,48.71,-208.68
720,1747400892090,0.72,0.77,0.38,213.93,48.71,-208.68
721,1747400892100,0.975,0.92,0.605,213.93,48.71,-208.68
722,1747400892110,1.23,1.07,0.83,241.21,-4.33,-282.47
723,1747400892120,1.23,1.07,0.83,241.21,-4.33,-282.47
724,1747400892130,1.23,1.07,0.83,241.21,-4.33,-282.47
725,1747400892140,1.49,0.61,0.71,241.21,-4.33,-282.47
726,1747400892150,1.49,0.61,0.71,163.51,36.8,-272.52
727,1747400892160,1.49,0.61,0.71,163.51,36.8,-272.52
728,1747400892170,1.49,0.61,0.71,163.51,36.8,-272.52
729,1747400892180,1.26,0.435,0.575,165.92000000000002,79.16,-237.03
730,1747400892190,1.03,0.26,0.44,168.33,121.52,-201.54
731,1747400892200,1.03,0.26,0.44,168.33,121.52,-201.54
732,1747400892210,1.03,0.26,0.44,168.33,121.52,-201.54
733,1747400892220,0.965,0.165,0.43,168.945,108.335,-193.85
734,1747400892230,0.9,0.07,0.42,169.56,95.15,-186.16
735,1747400892240,0.9,0.07,0.42,169.56,95.15,-186.16
736,1747400892250,0.9,0.07,0.42,169.56,95.15,-186.16
737,1747400892260,1.22,-0.3,0.53,150.94,64.21,-140.26
738,1747400892270,1.22,-0.3,0.53,150.94,64.21,-140.26
739,1747400892280,1.22,-0.3,0.53,150.94,64.21,-140.26
740,1747400892290,1.22,-0.3,0.53,150.94,64.21,-140.26
741,1747400892300,2.02,-0.49,1.47,172.79,-13.85,-122.74
742,1747400892310,2.02,-0.49,1.47,172.79,-13.85,-122.74
743,1747400892320,2.02,-0.49,1.47,172.79,-13.85,-122.74
744,1747400892330,2.02,-0.49,1.47,172.79,-13.85,-122.74
745,1747400892340,3.02,-0.65,1.76,10.01,-33.45,29.17
746,1747400892350,3.02,-0.65,1.76,10.01,-33.45,29.17
747,1747400892360,3.02,-0.65,1.76,10.01,-33.45,29.17
748,1747400892370,2.755,-0.38,1.77,10.01,-33.45,29.17
749,1747400892380,2.49,-0.11,1.78,-63.42,86.85,161.56
750,1747400892390,2.49,-0.11,1.78,-63.42,86.85,161.56
751,1747400892400,2.49,-0.11,1.78,-63.42,86.85,161.56
752,1747400892410,2.225,0.08,1.615,-63.42,86.85,161.56
753,1747400892420,1.96,0.27,1.45,-182.74,-16.66,193.91
754,1747400892430,1.96,0.27,1.45,-182.74,-16.66,193.91
755,1747400892440,1.96,0.27,1.45,-182.74,-16.66,193.91
756,1747400892450,1.53,0.48,0.94,-218.385,-38.39,198.76
757,1747400892460,1.53,0.48,0.94,-254.03,-60.12,203.61
758,1747400892470,1.53,0.48,0.94,-254.03,-60.12,203.61
759,1747400892480,1.53,0.48,0.94,-254.03,-60.12,203.61
760,1747400892490,1.16,0.62,0.43,-284.48,-56.15,212.71
761,1747400892500,1.16,0.62,0.43,-284.48,-56.15,212.71
762,1747400892510,1.16,0.62,0.43,-284.48,-56.15,212.71
763,1747400892520,0.9,0.7,0.27,-275.45,-66.53,236.15
764,1747400892530,0.9,0.7,0.27,-275.45,-66.53,236.15
765,1747400892540,0.9,0.7,0.27,-275.45,-66.53,236.15
766,1747400892550,0.9,0.7,0.27,-275.45,-66.53,236.15
767,1747400892560,0.68,0.77,0.29,-246.58,-72.2,231.2
768,1747400892570,0.68,0.77,0.29,-246.58,-72.2,231.2
769,1747400892580,0.68,0.77,0.29,-246.58,-72.2,231.2
770,1747400892590,0.615,0.75,0.24,-231.05,-79.345,212.98
771,1747400892600,0.55,0.73,0.19,-215.52,-86.49,194.76
772,1747400892610,0.55,0.73,0.19,-215.52,-86.49,194.76
773,1747400892620,0.55,0.73,0.19,-215.52,-86.49,194.76
774,1747400892630,0.6,0.66,0.06,-215.52,-86.49,194.76
775,1747400892640,0.6,0.66,0.06,-134.09,-86.43,110.29
776,1747400892650,0.6,0.66,0.06,-134.09,-86.43,110.29
777,1747400892660,0.6,0.66,0.06,-134.09,-86.43,110.29
778,1747400892670,0.64,0.72,0.16,-81.36,-52.34,98.48
779,1747400892680,0.64,0.72,0.16,-28.63,-18.25,86.67
780,1747400892690,0.64,0.72,0.16,-28.63,-18.25,86.67
781,1747400892700,0.64,0.72,0.16,-28.63,-18.25,86.67
782,1747400892710,0.28,0.65,0.01,40.22,68.66,-11.96
783,1747400892720,0.28,0.65,0.01,40.22,68.66,-11.96
784,1747400892730,0.28,0.65,0.01,40.22,68.66,-11.96
785,1747400892740,0.28,0.65,0.01,40.22,68.66,-11.96
786,1747400892750,0.31,0.64,0.09,134.28,79.16,-136.05
787,1747400892760,0.31,0.64,0.09,134.28,79.16,-136.05
788,1747400892770,0.31,0.64,0.09,134.28,79.16,-136.05
789,1747400892780,0.42,0.69,0.2249999999999999,134.28,79.16,-136.05
790,1747400892790,0.53,0.74,0.36,184.75,17.94,-218.63
791,1747400892800,0.53,0.74,0.36,184.75,17.94,-218.63
792,1747400892810,0.53,0.74,0.36,184.75,17.94,-218.63
793,1747400892820,0.53,0.74,0.36,184.75,17.94,-218.63
794,1747400892830,1.08,0.84,0.62,197.14,39.0,-308.78
795,1747400892840,1.08,0.84,0.62,197.14,39.0,-308.78
796,1747400892850,1.08,0.84,0.62,197.14,39.0,-308.78
797,1747400892860,1.16,0.705,0.5900000000000001,193.815,88.805,-283.325
798,1747400892870,1.24,0.57,0.56,190.49,138.61,-257.87
799,1747400892880,1.24,0.57,0.56,190.49,138.61,-257.87
800,1747400892890,1.24,0.57,0.56,190.49,138.61,-257.87
801,1747400892900,0.78,0.39,0.38,217.9,196.23,-201.42
802,1747400892910,0.78,0.39,0.38,217.9,196.23,-201.42
803,1747400892920,0.78,0.39,0.38,217.9,196.23,-201.42
804,1747400892930,0.78,0.39,0.38,217.9,196.23,-201.42
805,1747400892940,0.775,0.355,0.42,210.725,130.16,-191.315
806,1747400892950,0.77,0.32,0.46,203.55,64.09,-181.21
807,1747400892960,0.77,0.32,0.46,203.55,64.09,-181.21
808,1747400892970,0.77,0.32,0.46,203.55,64.09,-181.21
809,1747400892980,1.44,0.05,1.15,250.79,106.99,-136.84
810,1747400892990,1.44,0.05,1.15,250.79,106.99,-136.84
811,1747400893000,1.44,0.05,1.15,250.79,106.99,-136.84
812,1747400893010,1.81,0.0,1.615,250.79,106.99,-136.84
813,1747400893020,2.18,-0.05,2.08,176.33,28.87,-110.66
814,1747400893030,2.18,-0.05,2.08,176.33,28.87,-110.66
815,1747400893040,2.18,-0.05,2.08,176.33,28.87,-110.66
816,1747400893050,2.18,-0.05,2.08,176.33,28.87,-110.66
817,1747400893060,2.78,-0.36,2.28,65.19,7.14,51.94
818,1747400893070,2.78,-0.36,2.28,65.19,7.14,51.94
819,1747400893080,2.78,-0.36,2.28,65.19,7.14,51.94
820,1747400893090,2.495,-0.0949999999999999,2.205,65.19,7.14,51.94
821,1747400893100,2.21,0.17,2.13,65.19,7.14,51.94
822,1747400893110,2.21,0.17,2.13,65.19,7.14,51.94
823,1747400893120,2.01,0.175,1.77,-171.20499999999998,10.375,92.1
824,1747400893130,1.81,0.18,1.41,-232.73,-39.43,99.85
825,1747400893140,1.81,0.18,1.41,-232.73,-39.43,99.85
826,1747400893150,1.81,0.18,1.41,-232.73,-39.43,99.85
827,1747400893160,1.34,0.29,0.68,-266.815,-88.165,123.2
828,1747400893170,1.34,0.29,0.68,-300.9,-136.9,146.55
829,1747400893180,1.34,0.29,0.68,-300.9,-136.9,146.55
830,1747400893190,1.34,0.29,0.68,-300.9,-136.9,146.55
831,1747400893200,1.34,0.29,0.68,-300.9,-136.9,146.55
832,1747400893210,1.16,0.43,0.31,-305.18,-117.92,202.21
833,1747400893220,1.16,0.43,0.31,-305.18,-117.92,202.21
834,1747400893230,1.16,0.43,0.31,-305.18,-117.92,202.21
835,1747400893240,0.88,0.6,0.27,-252.93,-50.96,253.05
836,1747400893250,0.88,0.6,0.27,-252.93,-50.96,253.05
837,1747400893260,0.88,0.6,0.27,-252.93,-50.96,253.05
838,1747400893270,0.755,0.63,0.33,-239.165,-67.565,252.805
839,1747400893280,,,,,,
840,1747400893290,0.63,0.66,0.39,-225.4,-84.17,252.56
841,1747400893300,0.63,0.66,0.39,-225.4,-84.17,252.56
842,1747400893310,0.63,0.66,0.39,-225.4,-84.17,252.56
843,1747400893320,0.62,0.51,0.36,-203.25,-111.63,219.24
844,1747400893330,0.62,0.51,0.36,-203.25,-111.63,219.24
845,1747400893340,0.62,0.51,0.36,-203.25,-111.63,219.24
846,1747400893350,0.74,0.47,0.35,-119.87,-117.68,167.11
847,1747400893360,0.74,0.47,0.35,-119.87,-117.68,167.11
848,1747400893370,0.74,0.47,0.35,-119.87,-117.68,167.11
849,1747400893380,0.74,0.47,0.35,-119.87,-117.68,167.11
850,1747400893390,0.65,0.57,0.25,-16.54,-21.67,85.51
851,1747400893400,0.65,0.57,0.25,-16.54,-21.67,85.51
852,1747400893410,0.65,0.57,0.25,-16.54,-21.67,85.51
853,1747400893420,0.65,0.57,0.25,-16.54,-21.67,85.51
854,1747400893430,0.68,0.78,0.32,78.86,22.83,-22.28
855,1747400893440,0.68,0.78,0.32,78.86,22.83,-22.28
856,1747400893450,0.68,0.78,0.32,78.86,22.83,-22.28
857,1747400893460,0.68,0.78,0.32,78.86,22.83,-22.28
858,1747400893470,0.33,0.69,0.19,79.77,37.96,-83.25
859,1747400893480,0.33,0.69,0.19,79.77,37.96,-83.25
860,1747400893490,0.33,0.69,0.19,79.77,37.96,-83.25
861,1747400893500,0.31,0.645,0.175,79.77,37.96,-83.25
862,1747400893510,0.29,0.6,0.16,120.42,30.88,-192.57
863,1747400893520,0.29,0.6,0.16,120.42,30.88,-192.57
864,1747400893530,0.29,0.6,0.16,120.42,30.88,-192.57
865,1747400893540,0.49,0.625,0.235,119.17,8.879999999999999,-207.31
866,1747400893550,0.69,0.65,0.31,117.92,-13.12,-222.05
867,1747400893560,0.69,0.65,0.31,117.92,-13.12,-222.05
868,1747400893570,0.69,0.65,0.31,117.92,-13.12,-222.05
869,1747400893580,0.77,0.51,0.21,117.92,-13.12,-222.05
870,1747400893590,0.77,0.51,0.21,115.42,45.84,-215.76
871,1747400893600,0.77,0.51,0.21,115.42,45.84,-215.76
872,1747400893610,0.77,0.51,0.21,115.42,45.84,-215.76
873,1747400893620,0.735,0.5,0.175,133.545,52.675,-206.515
874,1747400893630,0.7,0.49,0.14,151.67,59.51,-197.27
875,1747400893640,0.7,0.49,0.14,151.67,59.51,-197.27
876,1747400893650,0.7,0.49,0.14,151.67,59.51,-197.27
877,1747400893660,1.01,0.57,0.3,186.1,52.0,-211.12
878,1747400893670,1.01,0.57,0.3,186.1,52.0,-211.12
879,1747400893680,1.01,0.57,0.3,186.1,52.0,-211.12
880,1747400893690,1.01,0.57,0.3,186.1,52.0,-211.12
881,1747400893700,1.94,0.49,1.13,266.3,32.78,-257.81
882,1747400893710,1.94,0.49,1.13,266.3,32.78,-257.81
883,1747400893720,1.94,0.49,1.13,266.3,32.78,-257.81
884,1747400893730,1.94,0.49,1.13,266.3,32.78,-257.81
885,1747400893740,2.97,-0.01,1.57,183.17,-28.81,-160.03
886,1747400893750,2.97,-0.01,1.57,183.17,-28.81,-160.03
887,1747400893760,2.97,-0.01,1.57,183.17,-28.81,-160.03
888,1747400893770,3.0650000000000004,-0.15,1.6800000000000002,159.73,35.065,-104.705
889,1747400893780,3.16,-0.29,1.79,136.29,98.94,-49.38
890,1747400893790,3.16,-0.29,1.79,136.29,98.94,-49.38
891,1747400893800,3.16,-0.29,1.79,136.29,98.94,-49.38
892,1747400893810,3.16,-0.29,1.79,136.29,98.94,-49.38
893,1747400893820,2.34,-0.17,1.61,-35.34,86.24,42.54
894,1747400893830,2.34,-0.17,1.61,-35.34,86.24,42.54
895,1747400893840,2.34,-0.17,1.61,-35.34,86.24,42.54
896,1747400893850,1.4,-0.26,0.67,-35.34,86.24,42.54
897,1747400893860,1.4,-0.26,0.67,-193.12,12.21,90.09
898,1747400893870,1.4,-0.26,0.67,-193.12,12.21,90.09
899,1747400893880,1.4,-0.26,0.67,-193.12,12.21,90.09
900,1747400893890,1.02,-0.09,0.32,-219.18,-9.58,148.32
901,1747400893900,1.02,-0.09,0.32,-219.18,-9.58,148.32
902,1747400893910,1.02,-0.09,0.32,-219.18,-9.58,148.32
903,1747400893920,1.02,-0.09,0.32,-219.18,-9.58,148.32
904,1747400893930,0.84,0.26,0.31,-239.99,-7.02,220.46
905,1747400893940,0.84,0.26,0.31,-239.99,-7.02,220.46
906,1747400893950,0.84,0.26,0.31,-239.99,-7.02,220.46
907,1747400893960,0.7749999999999999,0.37,0.355,-239.99,-7.02,220.46
908,1747400893970,0.71,0.48,0.4,-241.03,-37.6,245.24
909,1747400893980,0.71,0.48,0.4,-241.03,-37.6,245.24
910,1747400893990,0.71,0.48,0.4,-241.03,-37.6,245.24
911,1747400894000,0.8,0.485,0.445,-241.03,-37.6,245.24
912,1747400894010,0.89,0.49,0.49,-235.23,-68.36,260.99
913,1747400894020,0.89,0.49,0.49,-235.23,-68.36,260.99
914,1747400894030,0.89,0.49,0.49,-235.23,-68.36,260.99
915,1747400894040,0.815,0.43,0.475,-209.565,-44.1,266.115
916,1747400894050,0.74,0.37,0.46,-183.9,-19.84,271.24
917,1747400894060,0.74,0.37,0.46,-183.9,-19.84,271.24
918,1747400894070,0.74,0.37,0.46,-183.9,-19.84,271.24
919,1747400894080,0.71,0.455,0.455,-137.21,-31.585,213.775
920,1747400894090,0.68,0.54,0.45,-90.52,-43.33,156.31
921,1747400894100,0.68,0.54,0.45,-90.52,-43.33,156.31
922,1747400894110,0.68,0.54,0.45,-90.52,-43.33,156.31
923,1747400894120,0.785,0.5800000000000001,0.43,-49.045,-38.725,95.915
924,1747400894130,0.89,0.62,0.41,-7.57,-34.12,35.52
925,1747400894140,0.89,0.62,0.41,-7.57,-34.12,35.52
926,1747400894150,0.89,0.62,0.41,-7.57,-34.12,35.52
927,1747400894160,0.53,0.77,0.18,46.02,44.37,-79.9
928,1747400894170,0.53,0.77,0.18,46.02,44.37,-79.9
929,1747400894180,0.53,0.77,0.18,46.02,44.37,-79.9
930,1747400894190,0.53,0.77,0.18,46.02,44.37,-79.9
931,1747400894200,0.5,0.73,0.04,87.4,0.98,-188.54
932,1747400894210,0.5,0.73,0.04,87.4,0.98,-188.54
933,1747400894220,0.5,0.73,0.04,87.4,0.98,-188.54
934,1747400894230,0.625,0.74,0.1399999999999999,103.91,-7.564999999999999,-207.61
935,1747400894240,0.75,0.75,0.24,120.42,-16.11,-226.68
936,1747400894250,0.75,0.75,0.24,120.42,-16.11,-226.68
937,1747400894260,0.75,0.75,0.24,120.42,-16.11,-226.68
938,1747400894270,0.75,0.69,0.215,120.42,-16.11,-226.68
939,1747400894280,0.75,0.63,0.19,103.52,12.7,-227.36
940,1747400894290,0.75,0.63,0.19,103.52,12.7,-227.36
941,1747400894300,0.75,0.63,0.19,103.52,12.7,-227.36
942,1747400894310,0.7050000000000001,0.585,0.12,115.36,23.625,-216.03500000000005
943,1747400894320,0.66,0.54,0.05,127.2,34.55,-204.71
944,1747400894330,0.66,0.54,0.05,127.2,34.55,-204.71
945,1747400894340,0.66,0.54,0.05,127.2,34.55,-204.71
946,1747400894350,0.73,0.59,0.2,159.3,57.37,-202.21
947,1747400894360,0.73,0.59,0.2,159.3,57.37,-202.21
948,1747400894370,0.73,0.59,0.2,159.3,57.37,-202.21
949,1747400894380,0.73,0.59,0.2,159.3,57.37,-202.21
950,1747400894390,0.73,0.59,0.2,159.3,57.37,-202.21
951,1747400894400,1.1,0.52,0.56,189.94,39.31,-207.95
952,1747400894410,1.1,0.52,0.56,189.94,39.31,-207.95
953,1747400894420,1.1,0.52,0.56,189.94,39.31,-207.95
954,1747400894430,2.2,0.28,1.38,195.86,-7.289999999999999,-220.825
955,1747400894440,2.2,0.28,1.38,201.78,-53.89,-233.7
956,1747400894450,2.2,0.28,1.38,201.78,-53.89,-233.7
957,1747400894460,2.2,0.28,1.38,201.78,-53.89,-233.7
958,1747400894470,3.04,-0.2,1.53,90.88,-39.18,-112.55
959,1747400894480,3.04,-0.2,1.53,90.88,-39.18,-112.55
960,1747400894490,3.04,-0.2,1.53,90.88,-39.18,-112.55
961,1747400894500,2.905,-0.28,1.42,58.015,-16.69,-48.705
962,1747400894510,2.77,-0.36,1.31,25.15,5.8,15.14
963,1747400894520,2.77,-0.36,1.31,25.15,5.8,15.14
964,1747400894530,2.77,-0.36,1.31,25.15,5.8,15.14
965,1747400894540,2.26,-0.13,0.95,-21.515000000000004,-5.154999999999999,53.925
966,1747400894550,2.26,-0.13,0.95,-68.18,-16.11,92.71
967,1747400894560,2.26,-0.13,0.95,-68.18,-16.11,92.71
968,1747400894570,2.26,-0.13,0.95,-68.18,-16.11,92.71
969,1747400894580,1.905,-0.08,0.76,-103.455,6.135,130.095
970,1747400894590,1.55,-0.03,0.57,-138.73,28.38,167.48
971,1747400894600,1.55,-0.03,0.57,-138.73,28.38,167.48
972,1747400894610,1.55,-0.03,0.57,-138.73,28.38,167.48
973,1747400894620,1.08,0.13,0.37,-183.72,50.9,208.25
974,1747400894630,1.08,0.13,0.37,-183.72,50.9,208.25
975,1747400894640,,,,,,
976,1747400894650,1.08,0.13,0.37,-183.72,50.9,208.25
977,1747400894660,0.88,0.44,0.3,-212.59,14.16,237.0
978,1747400894670,0.88,0.44,0.3,-212.59,14.16,237.0
979,1747400894680,0.88,0.44,0.3,-212.59,14.16,237.0
980,1747400894690,0.88,0.44,0.3,-212.59,14.16,237.0
981,1747400894700,0.87,0.6,0.45,-214.54,-14.4,259.64
982,1747400894710,0.87,0.6,0.45,-214.54,-14.4,259.64
983,1747400894720,0.87,0.6,0.45,-214.54,-14.4,259.64
984,1747400894730,0.875,0.64,0.48,-214.54,-14.4,259.64
985,1747400894740,0.88,0.68,0.51,-217.9,-45.65,262.08
986,1747400894750,0.88,0.68,0.51,-217.9,-45.65,262.08
987,1747400894760,0.88,0.68,0.51,-217.9,-45.65,262.08
988,1747400894770,0.845,0.64,0.4649999999999999,-191.5,-54.685,243.925
989,1747400894780,0.81,0.6,0.42,-165.1,-63.72,225.77
990,1747400894790,0.81,0.6,0.42,-165.1,-63.72,225.77
991,1747400894800,0.81,0.6,0.42,-165.1,-63.72,225.77
992,1747400894810,0.875,0.62,0.38,-118.44,-61.4,179.565
993,1747400894820,0.94,0.64,0.34,-71.78,-59.08,133.36
994,1747400894830,0.94,0.64,0.34,-71.78,-59.08,133.36
995,1747400894840,0.94,0.64,0.34,-71.78,-59.08,133.36
996,1747400894850,0.79,0.69,0.26,20.45,17.46,28.99
997,1747400894860,0.79,0.69,0.26,20.45,17.46,28.99
998,1747400894870,0.79,0.69,0.26,20.45,17.46,28.99
999,1747400894880,0.79,0.69,0.26,20.45,17.46,28.99
1000,1747400894890,0.49,0.65,0.16,66.89,53.83,-68.97
