id,timestamp,acc_x,acc_y,acc_z,gyro_x,gyro_y,gyro_z
0,1747400994410,1.34,0.8,0.71,249.39,83.62,-179.02
1,1747400994420,1.34,0.8,0.71,249.39,83.62,-179.02
2,1747400994430,,,,,,
3,1747400994440,1.72,0.52,1.42,223.82,68.36,-143.55
4,1747400994450,1.72,0.52,1.42,223.82,68.36,-143.55
5,1747400994460,,,,,,
6,1747400994470,2.09,0.34,1.88,181.4,24.17,-67.81
7,1747400994480,2.09,0.34,1.88,181.4,24.17,-67.81
8,1747400994490,2.09,0.34,1.88,181.4,24.17,-67.81
9,1747400994500,,,,,,
10,1747400994510,2.04,0.01,2.34,111.69,71.17,-38.57
11,1747400994520,2.04,0.01,2.34,111.69,71.17,-38.57
12,1747400994530,,,,,,
13,1747400994540,1.66,0.49,1.55,111.69,71.17,-38.57
14,1747400994550,,,,,,
15,1747400994560,1.66,0.49,1.55,-56.27,-53.71,-21.36
16,1747400994570,1.66,0.49,1.55,-56.27,-53.71,-21.36
17,1747400994580,1.23,0.03,0.91,-192.63,-17.58,49.26
18,1747400994590,1.23,0.03,0.91,-192.63,-17.58,49.26
19,1747400994600,0.88,0.05,0.51,-226.87,0.85,91.61
20,1747400994610,0.88,0.05,0.51,-226.87,0.85,91.61
21,1747400994620,0.88,0.05,0.51,-226.87,0.85,91.61
22,1747400994630,0.88,0.05,0.51,-226.87,0.85,91.61
23,1747400994640,0.8,0.32,0.2,-279.72,-46.63,135.68
24,1747400994650,0.8,0.32,0.2,-279.72,-46.63,135.68
25,1747400994660,0.8,0.32,0.2,-279.72,-46.63,135.68
26,1747400994670,0.8,0.32,0.2,-279.72,-46.63,135.68
27,1747400994680,0.8,0.32,0.2,-279.72,-46.63,135.68
28,1747400994690,0.71,0.45,0.21,-276.12,-34.24,194.82
29,1747400994700,0.71,0.45,0.21,-276.12,-34.24,194.82
30,1747400994710,0.71,0.45,0.21,-276.12,-34.24,194.82
31,1747400994720,0.72,0.43,0.27,-248.35,-49.68,218.08
32,1747400994730,0.72,0.43,0.27,-248.35,-49.68,218.08
33,1747400994740,0.72,0.43,0.27,-248.35,-49.68,218.08
34,1747400994750,0.72,0.43,0.27,-248.35,-49.68,218.08
35,1747400994760,0.73,0.45,0.39,-215.15,-23.19,192.93
36,1747400994770,0.73,0.45,0.39,-215.15,-23.19,192.93
37,1747400994780,0.73,0.45,0.39,-215.15,-23.19,192.93
38,1747400994790,0.73,0.45,0.39,-215.15,-23.19,192.93
39,1747400994800,0.85,0.39,0.57,-170.59,-103.15,149.72
40,1747400994810,0.85,0.39,0.57,-170.59,-103.15,149.72
41,1747400994820,0.85,0.39,0.57,-170.59,-103.15,149.72
42,1747400994830,0.95,0.43,0.22,-70.62,-42.05,48.58
43,1747400994840,0.95,0.43,0.22,-70.62,-42.05,48.58
44,1747400994850,0.95,0.43,0.22,-70.62,-42.05,48.58
45,1747400994860,0.95,0.43,0.22,-70.62,-42.05,48.58
46,1747400994870,0.61,0.76,-0.06,38.09,51.21,-65.0
47,1747400994880,0.61,0.76,-0.06,38.09,51.21,-65.0
48,1747400994890,0.61,0.76,-0.06,38.09,51.21,-65.0
49,1747400994900,0.61,0.76,-0.06,38.09,51.21,-65.0
50,1747400994910,0.38,0.77,0.02,107.97,8.36,-107.3
51,1747400994920,0.38,0.77,0.02,107.97,8.36,-107.3
52,1747400994930,0.38,0.77,0.02,107.97,8.36,-107.3
53,1747400994940,0.38,0.77,0.02,107.97,8.36,-107.3
54,1747400994950,0.48,0.79,0.13,140.2,-26.92,-151.55
55,1747400994960,0.48,0.79,0.13,140.2,-26.92,-151.55
56,1747400994970,0.48,0.79,0.13,140.2,-26.92,-151.55
57,1747400994980,0.48,0.79,0.13,140.2,-26.92,-151.55
58,1747400994990,0.52,0.74,0.19,142.52,16.97,-165.41
59,1747400995000,0.52,0.74,0.19,142.52,16.97,-165.41
60,1747400995010,0.52,0.74,0.19,142.52,16.97,-165.41
61,1747400995020,0.46,0.53,0.11,142.52,16.97,-165.41
62,1747400995030,0.46,0.53,0.11,126.71,44.43,-153.5
63,1747400995040,0.46,0.53,0.11,126.71,44.43,-153.5
64,1747400995050,0.46,0.53,0.11,126.71,44.43,-153.5
65,1747400995060,0.53,0.57,0.1,180.79,65.8,-152.28
66,1747400995070,0.53,0.57,0.1,180.79,65.8,-152.28
67,1747400995080,0.53,0.57,0.1,180.79,65.8,-152.28
68,1747400995090,0.53,0.57,0.1,180.79,65.8,-152.28
69,1747400995100,0.53,0.57,0.1,180.79,65.8,-152.28
70,1747400995110,1.0,0.66,0.44,219.91,94.54,-161.07
71,1747400995120,,,,,,
72,1747400995130,1.0,0.66,0.44,219.91,94.54,-161.07
73,1747400995140,1.72,0.5,1.35,223.94,56.15,-153.81
74,1747400995150,1.72,0.5,1.35,223.94,56.15,-153.81
75,1747400995160,1.72,0.5,1.35,223.94,56.15,-153.81
76,1747400995170,1.72,0.5,1.35,223.94,56.15,-153.81
77,1747400995180,2.52,0.39,2.16,237.24,15.5,-76.66
78,1747400995190,2.52,0.39,2.16,237.24,15.5,-76.66
79,1747400995200,2.52,0.39,2.16,237.24,15.5,-76.66
80,1747400995210,2.495,0.3399999999999999,2.25,154.02,51.94,-49.895
81,1747400995220,2.47,0.29,2.34,70.8,88.38,-23.13
82,1747400995230,2.47,0.29,2.34,70.8,88.38,-23.13
83,1747400995240,2.47,0.29,2.34,70.8,88.38,-23.13
84,1747400995250,1.85,0.01,1.75,-112.92,57.07,39.49
85,1747400995260,,,,,,
86,1747400995270,1.85,0.01,1.75,-112.92,57.07,39.49
87,1747400995280,1.85,0.01,1.75,-112.92,57.07,39.49
88,1747400995290,1.85,0.01,1.75,-112.92,57.07,39.49
89,1747400995300,1.12,0.09,0.9,-194.64,-10.74,88.26
90,1747400995310,1.12,0.09,0.9,-194.64,-10.74,88.26
91,1747400995320,1.12,0.09,0.9,-194.64,-10.74,88.26
92,1747400995330,0.71,0.13,0.39,-267.94,-112.24,138.73
93,1747400995340,0.71,0.13,0.39,-267.94,-112.24,138.73
94,1747400995350,0.71,0.13,0.39,-267.94,-112.24,138.73
95,1747400995360,0.71,0.13,0.39,-267.94,-112.24,138.73
96,1747400995370,0.71,0.2,0.06,-235.84,-86.49,153.32
97,1747400995380,0.71,0.2,0.06,-235.84,-86.49,153.32
98,1747400995390,0.71,0.2,0.06,-235.84,-86.49,153.32
99,1747400995400,0.71,0.2,0.06,-235.84,-86.49,153.32
100,1747400995410,0.45,0.54,0.16,-210.115,-25.665,160.92000000000002
101,1747400995420,0.45,0.54,0.16,-184.39,35.16,168.52
102,1747400995430,0.45,0.54,0.16,-184.39,35.16,168.52
103,1747400995440,0.4599999999999999,0.565,0.2249999999999999,-192.2,-33.660000000000004,180.85
104,1747400995450,0.47,0.59,0.29,-200.01,-102.48,193.18
105,1747400995460,0.47,0.59,0.29,-200.01,-102.48,193.18
106,1747400995470,0.47,0.59,0.29,-200.01,-102.48,193.18
107,1747400995480,0.5700000000000001,0.55,0.3,-191.255,-95.52,174.655
108,1747400995490,0.67,0.51,0.31,-182.5,-88.56,156.13
109,1747400995500,0.67,0.51,0.31,-182.5,-88.56,156.13
110,1747400995510,0.67,0.51,0.31,-182.5,-88.56,156.13
111,1747400995520,0.87,0.69,0.32,-182.5,-88.56,156.13
112,1747400995530,0.87,0.69,0.32,-72.51,-60.18,89.05
113,1747400995540,0.87,0.69,0.32,-72.51,-60.18,89.05
114,1747400995550,0.87,0.69,0.32,-72.51,-60.18,89.05
115,1747400995560,0.895,0.76,0.26,-46.725,-67.995,39.0
116,1747400995570,0.92,0.83,0.2,-20.94,-75.81,-11.05
117,1747400995580,0.92,0.83,0.2,-20.94,-75.81,-11.05
118,1747400995590,0.92,0.83,0.2,-20.94,-75.81,-11.05
119,1747400995600,0.87,0.74,0.01,45.23,-34.36,-76.42
120,1747400995610,0.87,0.74,0.01,45.23,-34.36,-76.42
121,1747400995620,0.87,0.74,0.01,45.23,-34.36,-76.42
122,1747400995630,0.87,0.74,0.01,45.23,-34.36,-76.42
123,1747400995640,0.54,0.7,0.02,136.11,17.76,-146.0
124,1747400995650,0.54,0.7,0.02,136.11,17.76,-146.0
125,1747400995660,0.54,0.7,0.02,136.11,17.76,-146.0
126,1747400995670,0.56,0.77,0.11,136.11,17.76,-146.0
127,1747400995680,0.58,0.84,0.2,170.96,-7.93,-196.9
128,1747400995690,0.58,0.84,0.2,170.96,-7.93,-196.9
129,1747400995700,0.58,0.84,0.2,170.96,-7.93,-196.9
130,1747400995710,0.69,0.65,0.23,170.96,-7.93,-196.9
131,1747400995720,0.69,0.65,0.23,141.54,11.11,-195.62
132,1747400995730,0.69,0.65,0.23,141.54,11.11,-195.62
133,1747400995740,0.69,0.65,0.23,141.54,11.11,-195.62
134,1747400995750,0.53,0.49,0.16,138.12,67.32,-187.44
135,1747400995760,0.53,0.49,0.16,138.12,67.32,-187.44
136,1747400995770,0.53,0.49,0.16,138.12,67.32,-187.44
137,1747400995780,0.53,0.49,0.16,138.12,67.32,-187.44
138,1747400995790,0.55,0.37,0.28,151.98,61.46,-192.93
139,1747400995800,0.55,0.37,0.28,151.98,61.46,-192.93
140,1747400995810,0.55,0.37,0.28,151.98,61.46,-192.93
141,1747400995820,0.55,0.37,0.28,151.98,61.46,-192.93
142,1747400995830,0.8150000000000001,0.32,0.44,163.425,73.67,-196.41
143,1747400995840,1.08,0.27,0.6,174.87,85.88,-199.89
144,1747400995850,1.08,0.27,0.6,174.87,85.88,-199.89
145,1747400995860,1.08,0.27,0.6,174.87,85.88,-199.89
146,1747400995870,1.85,0.33,1.38,130.0,-39.25,-186.89
147,1747400995880,1.85,0.33,1.38,130.0,-39.25,-186.89
148,1747400995890,1.85,0.33,1.38,130.0,-39.25,-186.89
149,1747400995900,1.85,0.33,1.38,130.0,-39.25,-186.89
150,1747400995910,3.13,0.01,1.38,60.55,-102.84,-34.42
151,1747400995920,3.13,0.01,1.38,60.55,-102.84,-34.42
152,1747400995930,3.13,0.01,1.38,60.55,-102.84,-34.42
153,1747400995940,3.13,0.01,1.38,60.55,-102.84,-34.42
154,1747400995950,2.78,0.6,1.47,-6.29,83.31,74.16
155,1747400995960,2.78,0.6,1.47,-6.29,83.31,74.16
156,1747400995970,2.78,0.6,1.47,-6.29,83.31,74.16
157,1747400995980,2.78,0.6,1.47,-6.29,83.31,74.16
158,1747400995990,1.98,0.71,1.09,-163.33,40.04,148.56
159,1747400996000,1.98,0.71,1.09,-163.33,40.04,148.56
160,1747400996010,1.98,0.71,1.09,-163.33,40.04,148.56
161,1747400996020,1.98,0.71,1.09,-163.33,40.04,148.56
162,1747400996030,1.4,0.66,0.55,-217.29,8.97,186.58
163,1747400996040,1.4,0.66,0.55,-217.29,8.97,186.58
164,1747400996050,1.4,0.66,0.55,-217.29,8.97,186.58
165,1747400996060,1.01,0.73,0.23,-261.35,4.27,216.19
166,1747400996070,1.01,0.73,0.23,-261.35,4.27,216.19
167,1747400996080,1.01,0.73,0.23,-261.35,4.27,216.19
168,1747400996090,1.01,0.73,0.23,-261.35,4.27,216.19
169,1747400996100,0.87,0.74,0.14,-262.36,-12.485,235.965
170,1747400996110,0.73,0.75,0.05,-263.37,-29.24,255.74
171,1747400996120,0.73,0.75,0.05,-263.37,-29.24,255.74
172,1747400996130,0.73,0.75,0.05,-263.37,-29.24,255.74
173,1747400996140,0.5,0.79,0.14,-244.14,-35.37,249.545
174,1747400996150,0.5,0.79,0.14,-224.91,-41.5,243.35
175,1747400996160,0.5,0.79,0.14,-224.91,-41.5,243.35
176,1747400996170,0.5,0.79,0.14,-224.91,-41.5,243.35
177,1747400996180,0.46,0.66,0.18,-204.53,-61.77,204.59
178,1747400996190,0.46,0.66,0.18,-204.53,-61.77,204.59
179,1747400996200,0.46,0.66,0.18,-204.53,-61.77,204.59
180,1747400996210,0.46,0.66,0.18,-204.53,-61.77,204.59
181,1747400996220,0.51,0.625,0.1699999999999999,-169.13,-77.64,177.0
182,1747400996230,0.56,0.59,0.16,-133.73,-93.51,149.41
183,1747400996240,0.56,0.59,0.16,-133.73,-93.51,149.41
184,1747400996250,0.56,0.59,0.16,-133.73,-93.51,149.41
185,1747400996260,0.64,0.62,0.12,-65.98,-78.06,75.07
186,1747400996270,0.64,0.62,0.12,-65.98,-78.06,75.07
187,1747400996280,0.64,0.62,0.12,-65.98,-78.06,75.07
188,1747400996290,0.59,0.61,0.03,12.02,19.96,-19.59
189,1747400996300,0.59,0.61,0.03,12.02,19.96,-19.59
190,1747400996310,0.59,0.61,0.03,12.02,19.96,-19.59
191,1747400996320,0.59,0.61,0.03,12.02,19.96,-19.59
192,1747400996330,0.3,0.55,0.03,78.43,77.09,-115.66
193,1747400996340,0.3,0.55,0.03,78.43,77.09,-115.66
194,1747400996350,0.3,0.55,0.03,78.43,77.09,-115.66
195,1747400996360,0.3,0.55,0.03,78.43,77.09,-115.66
196,1747400996370,0.35,0.56,0.09,152.77,50.29,-195.5
197,1747400996380,0.35,0.56,0.09,152.77,50.29,-195.5
198,1747400996390,0.35,0.56,0.09,152.77,50.29,-195.5
199,1747400996400,0.35,0.56,0.09,152.77,50.29,-195.5
200,1747400996410,0.6,0.82,0.3,219.24,17.15,-245.06
201,1747400996420,0.6,0.82,0.3,219.24,17.15,-245.06
202,1747400996430,0.6,0.82,0.3,219.24,17.15,-245.06
203,1747400996440,0.735,0.8049999999999999,0.32,192.87,16.115,-244.845
204,1747400996450,0.87,0.79,0.34,166.5,15.08,-244.63
205,1747400996460,0.87,0.79,0.34,166.5,15.08,-244.63
206,1747400996470,0.87,0.79,0.34,166.5,15.08,-244.63
207,1747400996480,0.8300000000000001,0.675,0.295,174.62,47.12,-223.725
208,1747400996490,0.79,0.56,0.25,182.74,79.16,-202.82
209,1747400996500,0.79,0.56,0.25,182.74,79.16,-202.82
210,1747400996510,0.79,0.56,0.25,182.74,79.16,-202.82
211,1747400996520,0.795,0.495,0.305,182.74,79.16,-202.82
212,1747400996530,0.8,0.43,0.36,182.74,79.16,-202.82
213,1747400996540,0.8,0.43,0.36,172.97,50.23,-186.4
214,1747400996550,1.42,0.23,0.54,181.64,52.37,-161.07
215,1747400996560,1.42,0.23,0.54,181.64,52.37,-161.07
216,1747400996570,1.42,0.23,0.54,181.64,52.37,-161.07
217,1747400996580,1.42,0.23,0.54,181.64,52.37,-161.07
218,1747400996590,2.29,0.37,1.46,225.65,8.0,-127.99
219,1747400996600,2.29,0.37,1.46,225.65,8.0,-127.99
220,1747400996610,2.29,0.37,1.46,225.65,8.0,-127.99
221,1747400996620,2.29,0.37,1.46,225.65,8.0,-127.99
222,1747400996630,3.08,0.08,1.86,225.65,8.0,-127.99
223,1747400996640,3.08,0.08,1.86,78.86,9.58,-0.24
224,1747400996650,3.08,0.08,1.86,78.86,9.58,-0.24
225,1747400996660,3.08,0.08,1.86,78.86,9.58,-0.24
226,1747400996670,2.53,0.44,1.8,-56.76,63.6,92.9
227,1747400996680,2.53,0.44,1.8,-56.76,63.6,92.9
228,1747400996690,2.53,0.44,1.8,-56.76,63.6,92.9
229,1747400996700,2.53,0.44,1.8,-56.76,63.6,92.9
230,1747400996710,1.84,0.53,1.15,-188.84,-20.63,149.6
231,1747400996720,1.84,0.53,1.15,-188.84,-20.63,149.6
232,1747400996730,1.84,0.53,1.15,-188.84,-20.63,149.6
233,1747400996740,1.31,0.58,0.54,-238.95,-38.45,187.01
234,1747400996750,1.31,0.58,0.54,-238.95,-38.45,187.01
235,1747400996760,1.31,0.58,0.54,-238.95,-38.45,187.01
236,1747400996770,1.31,0.58,0.54,-238.95,-38.45,187.01
237,1747400996780,1.115,0.605,0.34,-255.46,-39.64,209.32
238,1747400996790,0.92,0.63,0.14,-271.97,-40.83,231.63
239,1747400996800,0.92,0.63,0.14,-271.97,-40.83,231.63
240,1747400996810,0.92,0.63,0.14,-271.97,-40.83,231.63
241,1747400996820,0.52,0.66,-0.01,-259.855,-36.53,246.765
242,1747400996830,0.52,0.66,-0.01,-247.74,-32.23,261.9
243,1747400996840,0.52,0.66,-0.01,-247.74,-32.23,261.9
244,1747400996850,0.43,0.64,0.005,-247.74,-32.23,261.9
245,1747400996860,0.34,0.62,0.02,-200.87,-41.14,235.66
246,1747400996870,0.34,0.62,0.02,-200.87,-41.14,235.66
247,1747400996880,0.34,0.62,0.02,-200.87,-41.14,235.66
248,1747400996890,0.34,0.62,0.02,-200.87,-41.14,235.66
249,1747400996900,0.39,0.53,0.09,-160.4,-48.28,190.61
250,1747400996910,0.39,0.53,0.09,-160.4,-48.28,190.61
251,1747400996920,0.39,0.53,0.09,-160.4,-48.28,190.61
252,1747400996930,0.39,0.53,0.09,-160.4,-48.28,190.61
253,1747400996940,0.62,0.49,0.18,-86.98,-74.34,116.88
254,1747400996950,0.62,0.49,0.18,-86.98,-74.34,116.88
255,1747400996960,0.62,0.49,0.18,-86.98,-74.34,116.88
256,1747400996970,0.76,0.54,0.07,-86.98,-74.34,116.88
257,1747400996980,0.76,0.54,0.07,-27.65,-18.92,61.04
258,1747400996990,0.76,0.54,0.07,-27.65,-18.92,61.04
259,1747400997000,0.76,0.54,0.07,-27.65,-18.92,61.04
260,1747400997010,0.46,0.47,-0.03,31.74,77.94,-41.38
261,1747400997020,0.46,0.47,-0.03,31.74,77.94,-41.38
262,1747400997030,0.46,0.47,-0.03,31.74,77.94,-41.38
263,1747400997040,0.46,0.47,-0.03,31.74,77.94,-41.38
264,1747400997050,0.46,0.47,-0.03,31.74,77.94,-41.38
265,1747400997060,0.4,0.415,-0.045,59.295,70.31,-95.915
266,1747400997070,0.34,0.36,-0.06,86.85,62.68,-150.45
267,1747400997080,0.34,0.36,-0.06,86.85,62.68,-150.45
268,1747400997090,0.6,0.59,0.1,203.61,38.21,-225.4
269,1747400997100,0.6,0.59,0.1,203.61,38.21,-225.4
270,1747400997110,0.6,0.59,0.1,203.61,38.21,-225.4
271,1747400997120,0.6,0.59,0.1,203.61,38.21,-225.4
272,1747400997130,0.93,0.96,0.3,230.35,5.31,-279.54
273,1747400997140,0.93,0.96,0.3,230.35,5.31,-279.54
274,1747400997150,0.93,0.96,0.3,230.35,5.31,-279.54
275,1747400997160,0.93,0.96,0.3,230.35,5.31,-279.54
276,1747400997170,1.21,0.67,0.33,198.36,5.19,-236.39
277,1747400997180,1.21,0.67,0.33,198.36,5.19,-236.39
278,1747400997190,1.21,0.67,0.33,198.36,5.19,-236.39
279,1747400997200,0.83,0.49,0.31,198.36,5.19,-236.39
280,1747400997210,0.83,0.49,0.31,207.34,72.81,-197.51
281,1747400997220,0.83,0.49,0.31,207.34,72.81,-197.51
282,1747400997230,0.83,0.49,0.31,207.34,72.81,-197.51
283,1747400997240,0.83,0.49,0.31,207.34,72.81,-197.51
284,1747400997250,0.82,0.31,0.41,173.71,44.43,-181.34
285,1747400997260,0.82,0.31,0.41,173.71,44.43,-181.34
286,1747400997270,0.82,0.31,0.41,173.71,44.43,-181.34
287,1747400997280,1.13,0.205,0.66,188.145,29.175,-172.64
288,1747400997290,1.44,0.1,0.91,202.58,13.92,-163.94
289,1747400997300,1.44,0.1,0.91,202.58,13.92,-163.94
290,1747400997310,1.44,0.1,0.91,202.58,13.92,-163.94
291,1747400997320,2.47,0.29,1.68,119.81,-92.9,-80.93
292,1747400997330,2.47,0.29,1.68,119.81,-92.9,-80.93
293,1747400997340,2.47,0.29,1.68,119.81,-92.9,-80.93
294,1747400997350,2.47,0.29,1.68,119.81,-92.9,-80.93
295,1747400997360,2.89,0.17,1.76,-1.59,34.12,27.4
296,1747400997370,2.89,0.17,1.76,-1.59,34.12,27.4
297,1747400997380,2.89,0.17,1.76,-1.59,34.12,27.4
298,1747400997390,2.89,0.17,1.76,-1.59,34.12,27.4
299,1747400997400,2.39,0.53,1.56,-99.67,49.38,123.84
300,1747400997410,2.39,0.53,1.56,-99.67,49.38,123.84
301,1747400997420,2.39,0.53,1.56,-99.67,49.38,123.84
302,1747400997430,2.075,0.565,1.295,-147.155,11.505,154.845
303,1747400997440,1.76,0.6,1.03,-194.64,-26.37,185.85
304,1747400997450,1.76,0.6,1.03,-194.64,-26.37,185.85
305,1747400997460,1.76,0.6,1.03,-194.64,-26.37,185.85
306,1747400997470,1.545,0.625,0.76,-214.17,-24.6,202.145
307,1747400997480,1.33,0.65,0.49,-233.7,-22.83,218.44
308,1747400997490,1.33,0.65,0.49,-233.7,-22.83,218.44
309,1747400997500,1.33,0.65,0.49,-233.7,-22.83,218.44
310,1747400997510,0.87,0.76,0.15,-256.41,0.73,248.54
311,1747400997520,0.87,0.76,0.15,-256.41,0.73,248.54
312,1747400997530,0.87,0.76,0.15,-256.41,0.73,248.54
313,1747400997540,0.87,0.76,0.15,-256.41,0.73,248.54
314,1747400997550,0.48,0.75,0.01,-243.16,-4.88,258.06
315,1747400997560,0.48,0.75,0.01,-243.16,-4.88,258.06
316,1747400997570,0.48,0.75,0.01,-243.16,-4.88,258.06
317,1747400997580,0.48,0.75,0.01,-243.16,-4.88,258.06
318,1747400997590,0.27,0.71,0.0,-205.69,-3.66,223.08
319,1747400997600,0.27,0.71,0.0,-205.69,-3.66,223.08
320,1747400997610,0.27,0.71,0.0,-205.69,-3.66,223.08
321,1747400997620,0.27,0.62,-0.015,-189.545,-9.52,184.57
322,1747400997630,0.27,0.53,-0.03,-173.4,-15.38,146.06
323,1747400997640,0.27,0.53,-0.03,-173.4,-15.38,146.06
324,1747400997650,0.27,0.53,-0.03,-173.4,-15.38,146.06
325,1747400997660,0.36,0.495,-0.02,-141.05,-35.31,117.465
326,1747400997670,0.45,0.46,-0.01,-108.7,-55.24,88.87
327,1747400997680,0.45,0.46,-0.01,-108.7,-55.24,88.87
328,1747400997690,0.45,0.46,-0.01,-108.7,-55.24,88.87
329,1747400997700,0.45,0.46,-0.01,-108.7,-55.24,88.87
330,1747400997710,0.67,0.57,0.04,-22.22,-41.63,18.55
331,1747400997720,0.67,0.57,0.04,-22.22,-41.63,18.55
332,1747400997730,0.67,0.57,0.04,-22.22,-41.63,18.55
333,1747400997740,0.655,0.615,0.035,15.900000000000002,-1.1300000000000026,-21.58
334,1747400997750,0.64,0.66,0.03,54.02,39.37,-61.71
335,1747400997760,0.64,0.66,0.03,54.02,39.37,-61.71
336,1747400997770,0.49,0.58,0.02,93.32,76.17,-137.94
337,1747400997780,0.49,0.58,0.02,93.32,76.17,-137.94
338,1747400997790,0.49,0.58,0.02,93.32,76.17,-137.94
339,1747400997800,0.49,0.58,0.02,93.32,76.17,-137.94
340,1747400997810,0.68,0.65,0.16,192.08,66.28,-224.12
341,1747400997820,0.68,0.65,0.16,192.08,66.28,-224.12
342,1747400997830,0.68,0.65,0.16,192.08,66.28,-224.12
343,1747400997840,0.68,0.65,0.16,192.08,66.28,-224.12
344,1747400997850,1.04,0.93,0.36,249.08,22.58,-250.24
345,1747400997860,1.04,0.93,0.36,249.08,22.58,-250.24
346,1747400997870,1.04,0.93,0.36,249.08,22.58,-250.24
347,1747400997880,1.04,0.93,0.36,249.08,22.58,-250.24
348,1747400997890,1.33,0.7,0.48,199.83,18.68,-237.92
349,1747400997900,1.33,0.7,0.48,199.83,18.68,-237.92
350,1747400997910,1.33,0.7,0.48,199.83,18.68,-237.92
351,1747400997920,1.01,0.4,0.46,197.6,69.43,-209.66
352,1747400997930,1.01,0.4,0.46,195.37,120.18,-181.4
353,1747400997940,1.01,0.4,0.46,195.37,120.18,-181.4
354,1747400997950,1.01,0.4,0.46,195.37,120.18,-181.4
355,1747400997960,0.87,0.3,0.51,186.065,100.615,-163.97500000000002
356,1747400997970,0.73,0.2,0.56,176.76,81.05,-146.55
357,1747400997980,0.73,0.2,0.56,176.76,81.05,-146.55
358,1747400997990,0.73,0.2,0.56,176.76,81.05,-146.55
359,1747400998000,1.07,-0.14,0.95,174.53,57.705,-142.0
360,1747400998010,1.07,-0.14,0.95,172.3,34.36,-137.45
361,1747400998020,1.07,-0.14,0.95,172.3,34.36,-137.45
362,1747400998030,1.07,-0.14,0.95,172.3,34.36,-137.45
363,1747400998040,1.92,0.04,1.67,157.29,-58.53,-82.52
364,1747400998050,1.92,0.04,1.67,157.29,-58.53,-82.52
365,1747400998060,1.92,0.04,1.67,157.29,-58.53,-82.52
366,1747400998070,1.92,0.04,1.67,157.29,-58.53,-82.52
367,1747400998080,2.72,-0.06,1.91,18.25,-38.02,9.52
368,1747400998090,2.72,-0.06,1.91,18.25,-38.02,9.52
369,1747400998100,2.72,-0.06,1.91,18.25,-38.02,9.52
370,1747400998110,2.625,0.145,1.785,-27.345,-18.430000000000003,71.045
371,1747400998120,2.53,0.35,1.66,-72.94,1.16,132.57
372,1747400998130,2.53,0.35,1.66,-72.94,1.16,132.57
373,1747400998140,2.53,0.35,1.66,-72.94,1.16,132.57
374,1747400998150,2.195,0.495,1.39,-121.49,-28.135,161.44
375,1747400998160,1.86,0.64,1.12,-170.04,-57.43,190.31
376,1747400998170,1.86,0.64,1.12,-170.04,-57.43,190.31
377,1747400998180,1.86,0.64,1.12,-170.04,-57.43,190.31
378,1747400998190,1.65,0.6950000000000001,0.8500000000000001,-197.69,-19.07,202.15
379,1747400998200,1.44,0.75,0.58,-225.34,19.29,213.99
380,1747400998210,1.44,0.75,0.58,-225.34,19.29,213.99
381,1747400998220,1.44,0.75,0.58,-225.34,19.29,213.99
382,1747400998230,0.84,0.84,0.21,-246.46,30.975,222.9
383,1747400998240,0.84,0.84,0.21,-267.58,42.66,231.81
384,1747400998250,0.84,0.84,0.21,-267.58,42.66,231.81
385,1747400998260,0.84,0.84,0.21,-267.58,42.66,231.81
386,1747400998270,0.47,0.81,-0.01,-292.42,-17.76,240.97
387,1747400998280,0.47,0.81,-0.01,-292.42,-17.76,240.97
388,1747400998290,0.47,0.81,-0.01,-292.42,-17.76,240.97
389,1747400998300,0.47,0.81,-0.01,-292.42,-17.76,240.97
390,1747400998310,0.37,0.73,-0.06,-251.53,-25.57,211.85
391,1747400998320,0.37,0.73,-0.06,-251.53,-25.57,211.85
392,1747400998330,0.37,0.73,-0.06,-251.53,-25.57,211.85
393,1747400998340,0.28,0.38,-0.03,-251.53,-25.57,211.85
394,1747400998350,0.28,0.38,-0.03,-224.67,-6.47,138.67
395,1747400998360,0.28,0.38,-0.03,-224.67,-6.47,138.67
396,1747400998370,0.28,0.38,-0.03,-224.67,-6.47,138.67
397,1747400998380,0.38,0.345,0.005,-178.435,-46.175,119.355
398,1747400998390,0.48,0.31,0.04,-132.2,-85.88,100.04
399,1747400998400,0.48,0.31,0.04,-132.2,-85.88,100.04
400,1747400998410,0.48,0.31,0.04,-132.2,-85.88,100.04
401,1747400998420,0.79,0.49,0.09,-26.61,-85.08,33.2
402,1747400998430,0.79,0.49,0.09,-26.61,-85.08,33.2
403,1747400998440,0.79,0.49,0.09,-26.61,-85.08,33.2
404,1747400998450,0.79,0.49,0.09,-26.61,-85.08,33.2
405,1747400998460,0.62,0.52,0.04,48.22,81.97,-60.0
406,1747400998470,0.62,0.52,0.04,48.22,81.97,-60.0
407,1747400998480,0.62,0.52,0.04,48.22,81.97,-60.0
408,1747400998490,0.4,0.46,-0.05,99.61,108.28,-132.14
409,1747400998500,0.4,0.46,-0.05,99.61,108.28,-132.14
410,1747400998510,0.4,0.46,-0.05,99.61,108.28,-132.14
411,1747400998520,0.4,0.46,-0.05,99.61,108.28,-132.14
412,1747400998530,0.46,0.6,0.08,225.59,75.99,-226.81
413,1747400998540,0.46,0.6,0.08,225.59,75.99,-226.81
414,1747400998550,0.46,0.6,0.08,225.59,75.99,-226.81
415,1747400998560,0.655,0.78,0.235,225.59,75.99,-226.81
416,1747400998570,0.85,0.96,0.39,283.08,0.37,-270.87
417,1747400998580,0.85,0.96,0.39,283.08,0.37,-270.87
418,1747400998590,0.85,0.96,0.39,283.08,0.37,-270.87
419,1747400998600,1.03,0.85,0.43,246.305,-1.86,-259.155
420,1747400998610,1.21,0.74,0.47,209.53,-4.09,-247.44
421,1747400998620,1.21,0.74,0.47,209.53,-4.09,-247.44
422,1747400998630,1.21,0.74,0.47,209.53,-4.09,-247.44
423,1747400998640,0.93,0.49,0.34,216.49,90.52,-203.06
424,1747400998650,0.93,0.49,0.34,216.49,90.52,-203.06
425,1747400998660,0.93,0.49,0.34,216.49,90.52,-203.06
426,1747400998670,0.93,0.49,0.34,216.49,90.52,-203.06
427,1747400998680,0.7,0.33,0.45,207.03,60.18,-171.33
428,1747400998690,0.7,0.33,0.45,207.03,60.18,-171.33
429,1747400998700,0.7,0.33,0.45,207.03,60.18,-171.33
430,1747400998710,0.7,0.33,0.45,207.03,60.18,-171.33
431,1747400998720,1.27,0.08,0.93,194.95,7.57,-157.9
432,1747400998730,1.27,0.08,0.93,194.95,7.57,-157.9
433,1747400998740,1.27,0.08,0.93,194.95,7.57,-157.9
434,1747400998750,1.86,0.145,1.295,194.95,7.57,-157.9
435,1747400998760,2.45,0.21,1.66,113.4,-113.46,-89.05
436,1747400998770,2.45,0.21,1.66,113.4,-113.46,-89.05
437,1747400998780,2.45,0.21,1.66,113.4,-113.46,-89.05
438,1747400998790,2.68,0.0799999999999999,1.665,47.115,-37.9,-26.975
439,1747400998800,2.91,-0.05,1.67,-19.17,37.66,35.1
440,1747400998810,2.91,-0.05,1.67,-19.17,37.66,35.1
441,1747400998820,2.91,-0.05,1.67,-19.17,37.66,35.1
442,1747400998830,2.91,-0.05,1.67,-19.17,37.66,35.1
443,1747400998840,2.41,0.44,1.56,-108.34,39.18,138.55
444,1747400998850,2.41,0.44,1.56,-108.34,39.18,138.55
445,1747400998860,2.41,0.44,1.56,-108.34,39.18,138.55
446,1747400998870,2.205,0.55,1.32,-108.34,39.18,138.55
447,1747400998880,2.0,0.66,1.08,-108.34,39.18,138.55
448,1747400998890,2.0,0.66,1.08,-205.99,-10.93,194.21
449,1747400998900,2.0,0.66,1.08,-205.99,-10.93,194.21
450,1747400998910,1.74,0.7,0.845,-224.915,9.395,206.39
451,1747400998920,1.48,0.74,0.61,-243.84,29.72,218.57
452,1747400998930,1.48,0.74,0.61,-243.84,29.72,218.57
453,1747400998940,1.48,0.74,0.61,-243.84,29.72,218.57
454,1747400998950,0.94,0.81,0.3,-256.99,29.325,228.915
455,1747400998960,0.94,0.81,0.3,-270.14,28.93,239.26
456,1747400998970,0.94,0.81,0.3,-270.14,28.93,239.26
457,1747400998980,0.94,0.81,0.3,-270.14,28.93,239.26
458,1747400998990,0.53,0.81,0.11,-269.23,-1.65,251.1
459,1747400999000,0.53,0.81,0.11,-269.23,-1.65,251.1
460,1747400999010,0.53,0.81,0.11,-269.23,-1.65,251.1
461,1747400999020,0.415,0.79,0.055,-252.38,-11.69,240.42
462,1747400999030,0.3,0.77,0.0,-235.53,-21.73,229.74
463,1747400999040,0.3,0.77,0.0,-235.53,-21.73,229.74
464,1747400999050,0.3,0.77,0.0,-235.53,-21.73,229.74
465,1747400999060,0.24,0.635,-0.045,-218.41,-33.725,199.89
466,1747400999070,0.18,0.5,-0.09,-201.29,-45.72,170.04
467,1747400999080,0.18,0.5,-0.09,-201.29,-45.72,170.04
468,1747400999090,0.18,0.5,-0.09,-201.29,-45.72,170.04
469,1747400999100,0.285,0.45,-0.0499999999999999,-149.565,-64.67,126.95
470,1747400999110,0.39,0.4,-0.01,-97.84,-83.62,83.86
471,1747400999120,0.39,0.4,-0.01,-97.84,-83.62,83.86
472,1747400999130,0.39,0.4,-0.01,-97.84,-83.62,83.86
473,1747400999140,0.5549999999999999,0.445,0.02,-62.93,-79.89500000000001,67.25999999999999
474,1747400999150,0.72,0.49,0.05,-28.02,-76.17,50.66
475,1747400999160,0.72,0.49,0.05,-28.02,-76.17,50.66
476,1747400999170,0.72,0.49,0.05,-28.02,-76.17,50.66
477,1747400999180,0.47,0.53,-0.02,1.7699999999999996,1.2199999999999989,-7.385000000000005
478,1747400999190,0.47,0.53,-0.02,31.56,78.61,-65.43
479,1747400999200,0.47,0.53,-0.02,31.56,78.61,-65.43
480,1747400999210,0.41,0.495,-0.045,63.63,61.95,-116.88
481,1747400999220,0.35,0.46,-0.07,95.7,45.29,-168.33
482,1747400999230,0.35,0.46,-0.07,95.7,45.29,-168.33
483,1747400999240,0.35,0.46,-0.07,95.7,45.29,-168.33
484,1747400999250,0.485,0.5700000000000001,0.015,95.7,45.29,-168.33
485,1747400999260,0.62,0.68,0.1,227.48,22.09,-252.93
486,1747400999270,0.62,0.68,0.1,227.48,22.09,-252.93
487,1747400999280,0.62,0.68,0.1,227.48,22.09,-252.93
488,1747400999290,0.62,0.68,0.1,227.48,22.09,-252.93
489,1747400999300,1.05,1.17,0.47,278.63,-40.1,-302.37
490,1747400999310,1.05,1.17,0.47,278.63,-40.1,-302.37
491,1747400999320,1.05,1.17,0.47,278.63,-40.1,-302.37
492,1747400999330,1.255,1.0,0.5,227.48,-42.755,-277.375
493,1747400999340,1.46,0.83,0.53,176.33,-45.41,-252.38
494,1747400999350,1.46,0.83,0.53,176.33,-45.41,-252.38
495,1747400999360,1.46,0.83,0.53,176.33,-45.41,-252.38
496,1747400999370,0.98,0.46,0.33,173.46,81.42,-219.36
497,1747400999380,0.98,0.46,0.33,173.46,81.42,-219.36
498,1747400999390,0.98,0.46,0.33,173.46,81.42,-219.36
499,1747400999400,0.98,0.46,0.33,173.46,81.42,-219.36
500,1747400999410,0.79,0.36,0.32,182.74,56.7,-191.71
501,1747400999420,0.79,0.36,0.32,182.74,56.7,-191.71
502,1747400999430,0.79,0.36,0.32,182.74,56.7,-191.71
503,1747400999440,0.79,0.36,0.32,182.74,56.7,-191.71
504,1747400999450,1.25,0.18,0.73,218.81,-1.4,-173.22
505,1747400999460,1.25,0.18,0.73,218.81,-1.4,-173.22
506,1747400999470,1.25,0.18,0.73,218.81,-1.4,-173.22
507,1747400999480,1.785,0.25,1.025,183.44,-60.515,-146.85
508,1747400999490,2.32,0.32,1.32,148.07,-119.63,-120.48
509,1747400999500,2.32,0.32,1.32,148.07,-119.63,-120.48
510,1747400999510,2.32,0.32,1.32,148.07,-119.63,-120.48
511,1747400999520,2.71,0.17,1.375,87.31,-61.25,-58.685
512,1747400999530,3.1,0.02,1.43,26.55,-2.87,3.11
513,1747400999540,3.1,0.02,1.43,26.55,-2.87,3.11
514,1747400999550,3.1,0.02,1.43,26.55,-2.87,3.11
515,1747400999560,2.84,0.48,1.37,-51.21,38.45,127.44
516,1747400999570,2.84,0.48,1.37,-51.21,38.45,127.44
517,1747400999580,2.84,0.48,1.37,-51.21,38.45,127.44
518,1747400999590,2.84,0.48,1.37,-51.21,38.45,127.44
519,1747400999600,2.11,0.61,0.89,-150.02,58.53,211.18
520,1747400999610,2.11,0.61,0.89,-150.02,58.53,211.18
521,1747400999620,2.11,0.61,0.89,-150.02,58.53,211.18
522,1747400999630,1.74,0.59,0.655,-150.02,58.53,211.18
523,1747400999640,1.37,0.57,0.42,-190.43,90.94,238.77
524,1747400999650,1.37,0.57,0.42,-190.43,90.94,238.77
525,1747400999660,1.37,0.57,0.42,-190.43,90.94,238.77
526,1747400999670,1.37,0.57,0.42,-190.43,90.94,238.77
527,1747400999680,0.98,0.66,0.21,-218.51,55.11,260.44
528,1747400999690,0.98,0.66,0.21,-218.51,55.11,260.44
529,1747400999700,0.98,0.66,0.21,-218.51,55.11,260.44
530,1747400999710,0.72,0.73,0.06,-224.46,43.025,270.815
531,1747400999720,0.72,0.73,0.06,-230.41,30.94,281.19
532,1747400999730,0.72,0.73,0.06,-230.41,30.94,281.19
533,1747400999740,0.72,0.73,0.06,-230.41,30.94,281.19
534,1747400999750,0.63,0.75,0.045,-223.39,22.885,274.26
535,1747400999760,0.54,0.77,0.03,-216.37,14.83,267.33
536,1747400999770,0.54,0.77,0.03,-216.37,14.83,267.33
537,1747400999780,0.54,0.77,0.03,-216.37,14.83,267.33
538,1747400999790,0.41,0.69,-0.02,-189.45,-30.88,227.78
539,1747400999800,0.41,0.69,-0.02,-189.45,-30.88,227.78
540,1747400999810,0.41,0.69,-0.02,-189.45,-30.88,227.78
541,1747400999820,0.5,0.6499999999999999,-0.01,-148.07,-49.405,182.035
542,1747400999830,0.59,0.61,0.0,-106.69,-67.93,136.29
543,1747400999840,0.59,0.61,0.0,-106.69,-67.93,136.29
544,1747400999850,0.59,0.61,0.0,-106.69,-67.93,136.29
545,1747400999860,0.63,0.585,-0.015,-80.475,-36.405,100.095
546,1747400999870,0.67,0.56,-0.03,-54.26,-4.88,63.9
547,1747400999880,0.67,0.56,-0.03,-54.26,-4.88,63.9
548,1747400999890,0.67,0.56,-0.03,-54.26,-4.88,63.9
549,1747400999900,0.67,0.56,-0.03,-54.26,-4.88,63.9
550,1747400999910,0.5,0.49,-0.1,15.75,41.87,-59.02
551,1747400999920,0.5,0.49,-0.1,15.75,41.87,-59.02
552,1747400999930,0.5,0.49,-0.1,15.75,41.87,-59.02
553,1747400999940,0.52,0.46,-0.06,15.75,41.87,-59.02
554,1747400999950,0.52,0.46,-0.06,89.97,21.12,-166.81
555,1747400999960,0.52,0.46,-0.06,89.97,21.12,-166.81
556,1747400999970,0.52,0.46,-0.06,89.97,21.12,-166.81
557,1747400999980,0.625,0.575,0.04,144.04500000000002,15.32,-210.33
558,1747400999990,0.73,0.69,0.14,198.12,9.52,-253.85
559,1747401000000,0.73,0.69,0.14,198.12,9.52,-253.85
560,1747401000010,0.73,0.69,0.14,198.12,9.52,-253.85
561,1747401000020,0.905,0.79,0.255,205.72,-9.095,-268.555
562,1747401000030,1.08,0.89,0.37,213.32,-27.71,-283.26
563,1747401000040,1.08,0.89,0.37,213.32,-27.71,-283.26
564,1747401000050,1.08,0.89,0.37,213.32,-27.71,-283.26
565,1747401000060,1.07,0.55,0.35,157.29,5.49,-239.81
566,1747401000070,,,,,,
567,1747401000080,1.07,0.55,0.35,157.29,5.49,-239.81
568,1747401000090,1.07,0.55,0.35,157.29,5.49,-239.81
569,1747401000100,0.75,0.4,0.24,170.53,62.56,-215.39
570,1747401000110,0.75,0.4,0.24,170.53,62.56,-215.39
571,1747401000120,0.75,0.4,0.24,170.53,62.56,-215.39
572,1747401000130,0.81,0.34,0.3399999999999999,167.63,44.585,-208.19
573,1747401000140,0.87,0.28,0.44,164.73,26.61,-200.99
574,1747401000150,0.87,0.28,0.44,164.73,26.61,-200.99
575,1747401000160,0.87,0.28,0.44,164.73,26.61,-200.99
576,1747401000170,1.215,0.19,0.775,176.665,24.14,-198.365
577,1747401000180,1.56,0.1,1.11,188.6,21.67,-195.74
578,1747401000190,1.56,0.1,1.11,188.6,21.67,-195.74
579,1747401000200,1.56,0.1,1.11,188.6,21.67,-195.74
580,1747401000210,2.215,0.05,1.4,188.6,21.67,-195.74
581,1747401000220,2.87,0.0,1.69,29.24,-112.92,-72.63
582,1747401000230,2.87,0.0,1.69,29.24,-112.92,-72.63
583,1747401000240,2.87,0.0,1.69,29.24,-112.92,-72.63
584,1747401000250,2.83,-0.08,1.53,-48.52,46.26,36.25
585,1747401000260,2.83,-0.08,1.53,-48.52,46.26,36.25
586,1747401000270,2.83,-0.08,1.53,-48.52,46.26,36.25
587,1747401000280,2.83,-0.08,1.53,-48.52,46.26,36.25
588,1747401000290,2.33,0.31,1.29,-89.81,28.685,91.335
589,1747401000300,2.33,0.31,1.29,-131.1,11.11,146.42
590,1747401000310,2.33,0.31,1.29,-131.1,11.11,146.42
591,1747401000320,2.105,0.395,1.05,-131.1,11.11,146.42
592,1747401000330,1.88,0.48,0.81,-202.09,-4.09,206.73
593,1747401000340,1.88,0.48,0.81,-202.09,-4.09,206.73
594,1747401000350,1.88,0.48,0.81,-202.09,-4.09,206.73
595,1747401000360,1.88,0.48,0.81,-202.09,-4.09,206.73
596,1747401000370,1.28,0.58,0.44,-216.43,39.79,227.42
597,1747401000380,1.28,0.58,0.44,-216.43,39.79,227.42
598,1747401000390,1.28,0.58,0.44,-216.43,39.79,227.42
599,1747401000400,1.08,0.615,0.315,-227.965,26.275,236.48
600,1747401000410,0.88,0.65,0.19,-239.5,12.76,245.54
601,1747401000420,0.88,0.65,0.19,-239.5,12.76,245.54
602,1747401000430,0.88,0.65,0.19,-239.5,12.76,245.54
603,1747401000440,0.735,0.675,0.1,-235.23,-5.185,253.965
604,1747401000450,0.59,0.7,0.01,-230.96,-23.13,262.39
605,1747401000460,0.59,0.7,0.01,-230.96,-23.13,262.39
606,1747401000470,0.59,0.7,0.01,-230.96,-23.13,262.39
607,1747401000480,0.34,0.78,-0.05,-187.56,-40.83,250.24
608,1747401000490,0.34,0.78,-0.05,-187.56,-40.83,250.24
609,1747401000500,0.34,0.78,-0.05,-187.56,-40.83,250.24
610,1747401000510,0.34,0.78,-0.05,-187.56,-40.83,250.24
611,1747401000520,0.275,0.675,-0.06,-178.16,-62.68,220.365
612,1747401000530,0.21,0.57,-0.07,-168.76,-84.53,190.49
613,1747401000540,0.21,0.57,-0.07,-168.76,-84.53,190.49
614,1747401000550,0.4499999999999999,0.48,-0.02,-168.76,-84.53,190.49
615,1747401000560,0.69,0.39,0.03,-93.2,-125.73,95.76
616,1747401000570,0.69,0.39,0.03,-93.2,-125.73,95.76
617,1747401000580,0.69,0.39,0.03,-93.2,-125.73,95.76
618,1747401000590,0.74,0.405,0.015,-50.415,-54.93,55.755
619,1747401000600,0.79,0.42,0.0,-7.63,15.87,15.75
620,1747401000610,0.79,0.42,0.0,-7.63,15.87,15.75
621,1747401000620,0.79,0.42,0.0,-7.63,15.87,15.75
622,1747401000630,0.67,0.33,0.02,-7.63,15.87,15.75
623,1747401000640,0.67,0.33,0.02,87.28,40.34,-90.76
624,1747401000650,0.67,0.33,0.02,87.28,40.34,-90.76
625,1747401000660,0.67,0.33,0.02,87.28,40.34,-90.76
626,1747401000670,0.67,0.385,0.095,133.12,40.71,-139.19
627,1747401000680,0.67,0.44,0.17,178.96,41.08,-187.62
628,1747401000690,0.67,0.44,0.17,178.96,41.08,-187.62
629,1747401000700,0.67,0.44,0.17,178.96,41.08,-187.62
630,1747401000710,0.86,0.76,0.45,237.37,-7.02,-255.31
631,1747401000720,0.86,0.76,0.45,237.37,-7.02,-255.31
632,1747401000730,0.86,0.76,0.45,237.37,-7.02,-255.31
633,1747401000740,0.86,0.76,0.45,237.37,-7.02,-255.31
634,1747401000750,1.24,0.75,0.6,203.495,-18.035,-265.71500000000003
635,1747401000760,1.24,0.75,0.6,169.62,-29.05,-276.12
636,1747401000770,1.24,0.75,0.6,169.62,-29.05,-276.12
637,1747401000780,1.24,0.75,0.6,169.62,-29.05,-276.12
638,1747401000790,0.95,0.37,0.42,139.65,28.14,-243.65
639,1747401000800,0.95,0.37,0.42,139.65,28.14,-243.65
640,1747401000810,0.95,0.37,0.42,139.65,28.14,-243.65
641,1747401000820,0.95,0.37,0.42,139.65,28.14,-243.65
642,1747401000830,0.73,0.25,0.33,140.75,34.64,-236.905
643,1747401000840,0.73,0.25,0.33,141.85,41.14,-230.16
644,1747401000850,0.73,0.25,0.33,141.85,41.14,-230.16
645,1747401000860,0.73,0.25,0.33,141.85,41.14,-230.16
646,1747401000870,0.84,0.01,0.41,134.89,16.85,-222.53
647,1747401000880,0.84,0.01,0.41,134.89,16.85,-222.53
648,1747401000890,0.84,0.01,0.41,134.89,16.85,-222.53
649,1747401000900,1.32,-0.0699999999999999,0.65,138.825,-29.175,-210.445
650,1747401000910,1.8,-0.15,0.89,142.76,-75.2,-198.36
651,1747401000920,1.8,-0.15,0.89,142.76,-75.2,-198.36
652,1747401000930,1.8,-0.15,0.89,142.76,-75.2,-198.36
653,1747401000940,3.18,-0.29,1.25,75.2,-1.89,-91.8
654,1747401000950,3.18,-0.29,1.25,75.2,-1.89,-91.8
655,1747401000960,,,,,,
656,1747401000970,2.95,-0.19,1.56,56.95,60.365,-17.854999999999997
657,1747401000980,2.95,-0.19,1.56,38.7,122.62,56.09
658,1747401000990,2.95,-0.19,1.56,38.7,122.62,56.09
659,1747401001000,2.95,-0.19,1.56,38.7,122.62,56.09
660,1747401001010,2.44,0.37,1.51,38.7,122.62,56.09
661,1747401001020,2.44,0.37,1.51,-77.27,47.49,166.08
662,1747401001030,2.44,0.37,1.51,-77.27,47.49,166.08
663,1747401001040,2.205,0.42,1.245,-130.125,31.465,186.95
664,1747401001050,1.97,0.47,0.98,-182.98,15.44,207.82
665,1747401001060,1.97,0.47,0.98,-182.98,15.44,207.82
666,1747401001070,1.97,0.47,0.98,-182.98,15.44,207.82
667,1747401001080,1.35,0.65,0.52,-227.91,53.41,229.25
668,1747401001090,1.35,0.65,0.52,-227.91,53.41,229.25
669,1747401001100,1.35,0.65,0.52,-227.91,53.41,229.25
670,1747401001110,1.13,0.7150000000000001,0.335,-227.91,53.41,229.25
671,1747401001120,0.91,0.78,0.15,-280.94,-3.48,251.89
672,1747401001130,0.91,0.78,0.15,-280.94,-3.48,251.89
673,1747401001140,0.91,0.78,0.15,-280.94,-3.48,251.89
674,1747401001150,0.91,0.78,0.15,-280.94,-3.48,251.89
675,1747401001160,0.68,0.88,0.02,-255.25,-34.36,281.07
676,1747401001170,0.68,0.88,0.02,-255.25,-34.36,281.07
677,1747401001180,0.68,0.88,0.02,-255.25,-34.36,281.07
678,1747401001190,0.545,0.875,0.025,-237.06,-25.175,260.04
679,1747401001200,0.41,0.87,0.03,-218.87,-15.99,239.01
680,1747401001210,0.41,0.87,0.03,-218.87,-15.99,239.01
681,1747401001220,0.41,0.87,0.03,-218.87,-15.99,239.01
682,1747401001230,0.41,0.87,0.03,-218.87,-15.99,239.01
683,1747401001240,0.32,0.48,-0.04,-188.35,-36.56,156.74
684,1747401001250,0.32,0.48,-0.04,-188.35,-36.56,156.74
685,1747401001260,0.32,0.48,-0.04,-188.35,-36.56,156.74
686,1747401001270,0.32,0.48,-0.04,-188.35,-36.56,156.74
687,1747401001280,0.5,0.43,0.02,-88.62,-103.52,91.0
688,1747401001290,0.5,0.43,0.02,-88.62,-103.52,91.0
689,1747401001300,0.5,0.43,0.02,-88.62,-103.52,91.0
690,1747401001310,0.5,0.43,0.02,-88.62,-103.52,91.0
691,1747401001320,0.89,0.38,0.02,-13.0,-59.63,16.48
692,1747401001330,0.89,0.38,0.02,-13.0,-59.63,16.48
693,1747401001340,0.89,0.38,0.02,-13.0,-59.63,16.48
694,1747401001350,0.73,0.36,-0.03,96.62,79.04,-71.59
695,1747401001360,0.73,0.36,-0.03,96.62,79.04,-71.59
696,1747401001370,0.73,0.36,-0.03,96.62,79.04,-71.59
697,1747401001380,0.73,0.36,-0.03,96.62,79.04,-71.59
698,1747401001390,0.47,0.4,0.05,184.81,99.12,-184.45
699,1747401001400,0.47,0.4,0.05,184.81,99.12,-184.45
700,1747401001410,0.47,0.4,0.05,184.81,99.12,-184.45
701,1747401001420,0.47,0.4,0.05,184.81,99.12,-184.45
702,1747401001430,0.72,0.68,0.25,263.92,6.96,-250.37
703,1747401001440,0.72,0.68,0.25,263.92,6.96,-250.37
704,1747401001450,0.72,0.68,0.25,263.92,6.96,-250.37
705,1747401001460,1.11,0.86,0.39,268.92,-51.76,-277.89
706,1747401001470,1.11,0.86,0.39,268.92,-51.76,-277.89
707,1747401001480,1.11,0.86,0.39,268.92,-51.76,-277.89
708,1747401001490,1.11,0.86,0.39,268.92,-51.76,-277.89
709,1747401001500,1.11,0.58,0.42,201.54,-21.97,-239.93
710,1747401001510,1.11,0.58,0.42,201.54,-21.97,-239.93
711,1747401001520,1.11,0.58,0.42,201.54,-21.97,-239.93
712,1747401001530,1.11,0.58,0.42,201.54,-21.97,-239.93
713,1747401001540,0.88,0.31,0.31,181.27,63.11,-205.81
714,1747401001550,0.88,0.31,0.31,181.27,63.11,-205.81
715,1747401001560,0.88,0.31,0.31,181.27,63.11,-205.81
716,1747401001570,0.89,0.21,0.47,181.27,63.11,-205.81
717,1747401001580,0.89,0.21,0.47,185.85,66.1,-174.8
718,1747401001590,0.89,0.21,0.47,185.85,66.1,-174.8
719,1747401001600,0.89,0.21,0.47,185.85,66.1,-174.8
720,1747401001610,1.29,0.105,0.785,190.855,44.86,-165.83
721,1747401001620,1.69,0.0,1.1,195.86,23.62,-156.86
722,1747401001630,1.69,0.0,1.1,195.86,23.62,-156.86
723,1747401001640,1.69,0.0,1.1,195.86,23.62,-156.86
724,1747401001650,2.57,-0.12,1.81,110.84,-10.8,-38.88
725,1747401001660,2.57,-0.12,1.81,110.84,-10.8,-38.88
726,1747401001670,2.57,-0.12,1.81,110.84,-10.8,-38.88
727,1747401001680,2.57,-0.12,1.81,110.84,-10.8,-38.88
728,1747401001690,2.39,-0.1,1.93,3.17,74.22,67.08
729,1747401001700,2.39,-0.1,1.93,3.17,74.22,67.08
730,1747401001710,2.39,-0.1,1.93,3.17,74.22,67.08
731,1747401001720,2.39,-0.1,1.93,3.17,74.22,67.08
732,1747401001730,1.98,0.23,1.66,-106.51,9.77,127.26
733,1747401001740,1.98,0.23,1.66,-106.51,9.77,127.26
734,1747401001750,1.98,0.23,1.66,-106.51,9.77,127.26
735,1747401001760,1.98,0.23,1.66,-106.51,9.77,127.26
736,1747401001770,1.77,0.41,1.15,-206.67,9.95,149.17
737,1747401001780,1.77,0.41,1.15,-206.67,9.95,149.17
738,1747401001790,1.77,0.41,1.15,-206.67,9.95,149.17
739,1747401001800,1.54,0.475,0.895,-233.705,22.185,159.67
740,1747401001810,1.31,0.54,0.64,-260.74,34.42,170.17
741,1747401001820,1.31,0.54,0.64,-260.74,34.42,170.17
742,1747401001830,1.31,0.54,0.64,-260.74,34.42,170.17
743,1747401001840,1.31,0.54,0.64,-260.74,34.42,170.17
744,1747401001850,0.94,0.62,0.27,-299.07,4.21,200.81
745,1747401001860,0.94,0.62,0.27,-299.07,4.21,200.81
746,1747401001870,0.94,0.62,0.27,-299.07,4.21,200.81
747,1747401001880,0.62,0.71,0.11,-280.58,-3.11,224.79
748,1747401001890,0.62,0.71,0.11,-280.58,-3.11,224.79
749,1747401001900,0.62,0.71,0.11,-280.58,-3.11,224.79
750,1747401001910,0.62,0.71,0.11,-280.58,-3.11,224.79
751,1747401001920,0.62,0.71,0.11,-280.58,-3.11,224.79
752,1747401001930,0.39,0.72,0.1,-250.37,-17.4,205.99
753,1747401001940,0.39,0.72,0.1,-250.37,-17.4,205.99
754,1747401001950,0.41,0.62,0.075,-250.37,-17.4,205.99
755,1747401001960,0.43,0.52,0.05,-229.37,-45.78,159.0
756,1747401001970,0.43,0.52,0.05,-229.37,-45.78,159.0
757,1747401001980,0.43,0.52,0.05,-229.37,-45.78,159.0
758,1747401001990,0.43,0.52,0.05,-229.37,-45.78,159.0
759,1747401002000,0.53,0.41,0.07,-148.8,-91.8,86.79
760,1747401002010,0.53,0.41,0.07,-148.8,-91.8,86.79
761,1747401002020,0.53,0.41,0.07,-148.8,-91.8,86.79
762,1747401002030,0.62,0.4,0.005,-107.97,-65.28,58.93000000000001
763,1747401002040,0.71,0.39,-0.06,-67.14,-38.76,31.07
764,1747401002050,0.71,0.39,-0.06,-67.14,-38.76,31.07
765,1747401002060,0.71,0.39,-0.06,-67.14,-38.76,31.07
766,1747401002070,0.55,0.3,-0.15,69.89,81.79,-53.34
767,1747401002080,0.55,0.3,-0.15,69.89,81.79,-53.34
768,1747401002090,0.55,0.3,-0.15,69.89,81.79,-53.34
769,1747401002100,0.55,0.3,-0.15,69.89,81.79,-53.34
770,1747401002110,0.47,0.42,-0.05,150.33,60.91,-143.8
771,1747401002120,0.47,0.42,-0.05,150.33,60.91,-143.8
772,1747401002130,0.47,0.42,-0.05,150.33,60.91,-143.8
773,1747401002140,0.47,0.42,-0.05,150.33,60.91,-143.8
774,1747401002150,0.67,0.56,0.19,256.65,30.88,-213.44
775,1747401002160,0.67,0.56,0.19,256.65,30.88,-213.44
776,1747401002170,0.67,0.56,0.19,256.65,30.88,-213.44
777,1747401002180,0.67,0.56,0.19,256.65,30.88,-213.44
778,1747401002190,1.07,0.96,0.63,287.23,-42.97,-240.23
779,1747401002200,1.07,0.96,0.63,287.23,-42.97,-240.23
780,1747401002210,1.07,0.96,0.63,287.23,-42.97,-240.23
781,1747401002220,1.125,0.74,0.615,223.84500000000003,-12.3,-233.09
782,1747401002230,1.18,0.52,0.6,160.46,18.37,-225.95
783,1747401002240,1.18,0.52,0.6,160.46,18.37,-225.95
784,1747401002250,1.18,0.52,0.6,160.46,18.37,-225.95
785,1747401002260,0.975,0.39,0.5,166.87,46.995000000000005,-206.815
786,1747401002270,0.77,0.26,0.4,173.28,75.62,-187.68
787,1747401002280,0.77,0.26,0.4,173.28,75.62,-187.68
788,1747401002290,0.77,0.26,0.4,173.28,75.62,-187.68
789,1747401002300,0.72,0.12,0.43,167.025,59.69,-183.35
790,1747401002310,0.72,0.12,0.43,160.77,43.76,-179.02
791,1747401002320,0.72,0.12,0.43,160.77,43.76,-179.02
792,1747401002330,0.72,0.12,0.43,160.77,43.76,-179.02
793,1747401002340,1.14,-0.18,0.7,165.77,15.08,-168.64
794,1747401002350,1.14,-0.18,0.7,165.77,15.08,-168.64
795,1747401002360,1.14,-0.18,0.7,165.77,15.08,-168.64
796,1747401002370,1.14,-0.18,0.7,165.77,15.08,-168.64
797,1747401002380,2.27,-0.21,1.28,132.2,-92.65,-68.48
798,1747401002390,2.27,-0.21,1.28,132.2,-92.65,-68.48
799,1747401002400,2.27,-0.21,1.28,132.2,-92.65,-68.48
800,1747401002410,2.27,-0.21,1.28,132.2,-92.65,-68.48
801,1747401002420,3.07,-0.26,1.73,99.24,62.81,57.74
802,1747401002430,3.07,-0.26,1.73,99.24,62.81,57.74
803,1747401002440,3.07,-0.26,1.73,99.24,62.81,57.74
804,1747401002450,2.825,0.035,1.78,55.815,89.905,114.805
805,1747401002460,2.58,0.33,1.83,12.39,117.0,171.87
806,1747401002470,2.58,0.33,1.83,12.39,117.0,171.87
807,1747401002480,2.58,0.33,1.83,12.39,117.0,171.87
808,1747401002490,1.8,0.47,1.33,-57.92,98.935,177.09
809,1747401002500,1.8,0.47,1.33,-128.23,80.87,182.31
810,1747401002510,1.8,0.47,1.33,-128.23,80.87,182.31
811,1747401002520,1.8,0.47,1.33,-128.23,80.87,182.31
812,1747401002530,1.52,0.495,1.065,-174.345,70.25,173.005
813,1747401002540,1.24,0.52,0.8,-220.46,59.63,163.7
814,1747401002550,1.24,0.52,0.8,-220.46,59.63,163.7
815,1747401002560,1.24,0.52,0.8,-220.46,59.63,163.7
816,1747401002570,0.9,0.7,0.42,-285.4,19.9,159.73
817,1747401002580,0.9,0.7,0.42,-285.4,19.9,159.73
818,1747401002590,0.9,0.7,0.42,-285.4,19.9,159.73
819,1747401002600,0.9,0.7,0.42,-285.4,19.9,159.73
820,1747401002610,0.69,0.77,0.03,-323.73,-34.18,174.5
821,1747401002620,0.69,0.77,0.03,-323.73,-34.18,174.5
822,1747401002630,0.69,0.77,0.03,-323.73,-34.18,174.5
823,1747401002640,0.69,0.77,0.03,-323.73,-34.18,174.5
824,1747401002650,0.54,0.69,-0.1,-292.85,-39.92,170.72
825,1747401002660,0.54,0.69,-0.1,-292.85,-39.92,170.72
826,1747401002670,0.54,0.69,-0.1,-292.85,-39.92,170.72
827,1747401002680,0.46,0.54,-0.12,-272.58500000000004,-33.325,157.87
828,1747401002690,0.38,0.39,-0.14,-252.32,-26.73,145.02
829,1747401002700,0.38,0.39,-0.14,-252.32,-26.73,145.02
830,1747401002710,0.38,0.39,-0.14,-252.32,-26.73,145.02
831,1747401002720,0.35,0.285,-0.145,-216.83,-31.645000000000003,114.805
832,1747401002730,0.32,0.18,-0.15,-181.34,-36.56,84.59
833,1747401002740,0.32,0.18,-0.15,-181.34,-36.56,84.59
834,1747401002750,0.32,0.18,-0.15,-181.34,-36.56,84.59
835,1747401002760,0.68,0.27,-0.01,-73.55,-99.79,23.86
836,1747401002770,0.68,0.27,-0.01,-73.55,-99.79,23.86
837,1747401002780,0.68,0.27,-0.01,-73.55,-99.79,23.86
838,1747401002790,0.68,0.27,-0.01,-73.55,-99.79,23.86
839,1747401002800,0.89,0.31,-0.01,56.46,-19.47,-42.85
840,1747401002810,0.89,0.31,-0.01,56.46,-19.47,-42.85
841,1747401002820,0.89,0.31,-0.01,56.46,-19.47,-42.85
842,1747401002830,0.89,0.31,-0.01,56.46,-19.47,-42.85
843,1747401002840,0.55,0.42,0.06,176.57,97.53,-118.04
844,1747401002850,0.55,0.42,0.06,176.57,97.53,-118.04
845,1747401002860,0.55,0.42,0.06,176.57,97.53,-118.04
846,1747401002870,0.535,0.49,0.16,176.57,97.53,-118.04
847,1747401002880,0.52,0.56,0.26,257.81,58.53,-181.03
848,1747401002890,0.52,0.56,0.26,257.81,58.53,-181.03
849,1747401002900,0.52,0.56,0.26,257.81,58.53,-181.03
850,1747401002910,0.84,0.83,0.52,257.81,58.53,-181.03
851,1747401002920,0.84,0.83,0.52,270.32,-12.7,-214.66
852,1747401002930,0.84,0.83,0.52,270.32,-12.7,-214.66
853,1747401002940,0.84,0.83,0.52,270.32,-12.7,-214.66
854,1747401002950,0.875,0.72,0.535,230.495,-8.515,-216.005
855,1747401002960,0.91,0.61,0.55,190.67,-4.33,-217.35
856,1747401002970,0.91,0.61,0.55,190.67,-4.33,-217.35
857,1747401002980,0.91,0.61,0.55,190.67,-4.33,-217.35
858,1747401002990,0.76,0.34,0.37,160.34,29.54,-185.55
859,1747401003000,0.76,0.34,0.37,160.34,29.54,-185.55
860,1747401003010,0.76,0.34,0.37,160.34,29.54,-185.55
861,1747401003020,0.76,0.34,0.37,160.34,29.54,-185.55
862,1747401003030,0.69,0.23,0.36,156.34,36.255,-182.255
863,1747401003040,0.69,0.23,0.36,152.34,42.97,-178.96
864,1747401003050,0.69,0.23,0.36,152.34,42.97,-178.96
865,1747401003060,0.69,0.23,0.36,152.34,42.97,-178.96
866,1747401003070,1.24,0.0,0.63,147.46,-0.49,-167.85
867,1747401003080,1.24,0.0,0.63,147.46,-0.49,-167.85
868,1747401003090,1.24,0.0,0.63,147.46,-0.49,-167.85
869,1747401003100,1.24,0.0,0.63,147.46,-0.49,-167.85
870,1747401003110,2.35,0.01,1.39,162.41,-65.61,-92.65
871,1747401003120,2.35,0.01,1.39,162.41,-65.61,-92.65
872,1747401003130,2.35,0.01,1.39,162.41,-65.61,-92.65
873,1747401003140,2.35,0.01,1.39,162.41,-65.61,-92.65
874,1747401003150,2.69,0.01,1.74,78.19,25.57,1.4
875,1747401003160,2.69,0.01,1.74,78.19,25.57,1.4
876,1747401003170,2.69,0.01,1.74,78.19,25.57,1.4
877,1747401003180,2.515,0.165,1.7,78.19,25.57,1.4
878,1747401003190,2.34,0.32,1.66,-14.16,60.12,75.81
879,1747401003200,2.34,0.32,1.66,-14.16,60.12,75.81
880,1747401003210,2.34,0.32,1.66,-14.16,60.12,75.81
881,1747401003220,2.125,0.355,1.385,-84.075,31.005,99.49
882,1747401003230,1.91,0.39,1.11,-153.99,1.89,123.17
883,1747401003240,1.91,0.39,1.11,-153.99,1.89,123.17
884,1747401003250,1.91,0.39,1.11,-153.99,1.89,123.17
885,1747401003260,1.65,0.42,0.8500000000000001,-181.245,27.405,137.42
886,1747401003270,1.39,0.45,0.59,-208.5,52.92,151.67
887,1747401003280,1.39,0.45,0.59,-208.5,52.92,151.67
888,1747401003290,1.39,0.45,0.59,-208.5,52.92,151.67
889,1747401003300,1.13,0.49,0.425,-233.37,48.89,162.505
890,1747401003310,0.87,0.53,0.26,-258.24,44.86,173.34
891,1747401003320,0.87,0.53,0.26,-258.24,44.86,173.34
892,1747401003330,0.87,0.53,0.26,-258.24,44.86,173.34
893,1747401003340,0.59,0.56,0.04,-259.43,22.95,186.34
894,1747401003350,0.59,0.56,0.04,-260.62,1.04,199.34
895,1747401003360,0.59,0.56,0.04,-260.62,1.04,199.34
896,1747401003370,0.59,0.56,0.04,-260.62,1.04,199.34
897,1747401003380,0.39,0.63,0.04,-247.465,-5.005000000000001,197.145
898,1747401003390,0.39,0.63,0.04,-234.31,-11.05,194.95
899,1747401003400,0.39,0.63,0.04,-234.31,-11.05,194.95
900,1747401003410,0.3399999999999999,0.5549999999999999,0.06,-234.31,-11.05,194.95
901,1747401003420,0.29,0.48,0.08,-221.62,-41.81,158.02
902,1747401003430,0.29,0.48,0.08,-221.62,-41.81,158.02
903,1747401003440,0.29,0.48,0.08,-221.62,-41.81,158.02
904,1747401003450,0.385,0.4549999999999999,0.05,-188.11,-54.625,135.62
905,1747401003460,0.48,0.43,0.02,-154.6,-67.44,113.22
906,1747401003470,0.48,0.43,0.02,-154.6,-67.44,113.22
907,1747401003480,0.48,0.43,0.02,-154.6,-67.44,113.22
908,1747401003490,0.575,0.44,0.03,-103.91,-62.345,76.265
909,1747401003500,0.67,0.45,0.04,-53.22,-57.25,39.31
910,1747401003510,0.67,0.45,0.04,-53.22,-57.25,39.31
911,1747401003520,0.67,0.45,0.04,-53.22,-57.25,39.31
912,1747401003530,0.72,0.475,0.075,6.869999999999997,-17.61,-7.564999999999998
913,1747401003540,0.77,0.5,0.11,66.96,22.03,-54.44
914,1747401003550,0.77,0.5,0.11,66.96,22.03,-54.44
915,1747401003560,0.77,0.5,0.11,66.96,22.03,-54.44
916,1747401003570,0.57,0.54,0.1,135.74,61.83,-140.38
917,1747401003580,0.57,0.54,0.1,135.74,61.83,-140.38
918,1747401003590,0.57,0.54,0.1,135.74,61.83,-140.38
919,1747401003600,0.57,0.54,0.1,135.74,61.83,-140.38
920,1747401003610,0.7200000000000001,0.71,0.26,183.6733333333333,23.21666666666667,-186.28
921,1747401003620,0.72,0.71,0.26,207.64,3.91,-209.23
922,1747401003630,0.72,0.71,0.26,207.64,3.91,-209.23
923,1747401003640,0.72,0.71,0.26,207.64,3.91,-209.23
924,1747401003650,0.98,0.78,0.41,215.39,-13.24,-229.61
925,1747401003660,0.98,0.78,0.41,215.39,-13.24,-229.61
926,1747401003670,0.98,0.78,0.41,215.39,-13.24,-229.61
927,1747401003680,0.98,0.78,0.41,215.39,-13.24,-229.61
928,1747401003690,0.9,0.56,0.34,215.39,-13.24,-229.61
929,1747401003700,0.9,0.56,0.34,164.79,16.91,-205.99
930,1747401003710,0.9,0.56,0.34,164.79,16.91,-205.99
931,1747401003720,0.8,0.455,0.28,165.035,38.7,-194.73
932,1747401003730,0.7,0.35,0.22,165.28,60.49,-183.47
933,1747401003740,0.7,0.35,0.22,165.28,60.49,-183.47
934,1747401003750,0.7,0.35,0.22,165.28,60.49,-183.47
935,1747401003760,0.74,0.28,0.31,168.95,55.91,-168.95
936,1747401003770,0.74,0.28,0.31,168.95,55.91,-168.95
937,1747401003780,0.74,0.28,0.31,168.95,55.91,-168.95
938,1747401003790,0.74,0.28,0.31,168.95,55.91,-168.95
939,1747401003800,1.35,0.09,0.81,181.065,27.16,-158.01999999999998
940,1747401003810,1.35,0.09,0.81,193.18,-1.59,-147.09
941,1747401003820,1.35,0.09,0.81,193.18,-1.59,-147.09
942,1747401003830,1.35,0.09,0.81,193.18,-1.59,-147.09
943,1747401003840,2.64,0.37,1.78,165.47,-94.18,-69.64
944,1747401003850,2.64,0.37,1.78,165.47,-94.18,-69.64
945,1747401003860,2.64,0.37,1.78,165.47,-94.18,-69.64
946,1747401003870,2.64,0.37,1.78,165.47,-94.18,-69.64
947,1747401003880,2.83,0.34,1.88,-6.9,48.65,11.66
948,1747401003890,2.83,0.34,1.88,-6.9,48.65,11.66
949,1747401003900,2.83,0.34,1.88,-6.9,48.65,11.66
950,1747401003910,2.83,0.34,1.88,-6.9,48.65,11.66
951,1747401003920,2.15,0.52,1.39,-146.24,25.7,80.93
952,1747401003930,2.15,0.52,1.39,-146.24,25.7,80.93
953,1747401003940,2.15,0.52,1.39,-146.24,25.7,80.93
954,1747401003950,1.84,0.51,1.035,-193.33,-10.160000000000002,108.885
955,1747401003960,1.53,0.5,0.68,-240.42,-46.02,136.84
956,1747401003970,1.53,0.5,0.68,-240.42,-46.02,136.84
957,1747401003980,1.53,0.5,0.68,-240.42,-46.02,136.84
958,1747401003990,1.53,0.5,0.68,-240.42,-46.02,136.84
959,1747401004000,1.06,0.43,0.26,-259.46,-24.05,166.56
960,1747401004010,1.06,0.43,0.26,-259.46,-24.05,166.56
961,1747401004020,1.06,0.43,0.26,-259.46,-24.05,166.56
962,1747401004030,0.77,0.45,0.14,-249.235,-20.725,185.695
963,1747401004040,0.77,0.45,0.14,-239.01,-17.4,204.83
964,1747401004050,0.77,0.45,0.14,-239.01,-17.4,204.83
965,1747401004060,0.77,0.45,0.14,-239.01,-17.4,204.83
966,1747401004070,0.55,0.56,0.1,-211.43,-23.44,238.89
967,1747401004080,0.55,0.56,0.1,-211.43,-23.44,238.89
968,1747401004090,0.55,0.56,0.1,-211.43,-23.44,238.89
969,1747401004100,0.55,0.56,0.1,-211.43,-23.44,238.89
970,1747401004110,0.43,0.56,0.2,-185.12,-12.82,208.07
971,1747401004120,0.43,0.56,0.2,-185.12,-12.82,208.07
972,1747401004130,0.43,0.56,0.2,-185.12,-12.82,208.07
973,1747401004140,0.33,0.46,0.23,-185.85,-49.5,191.41
974,1747401004150,0.33,0.46,0.23,-185.85,-49.5,191.41
975,1747401004160,0.33,0.46,0.23,-185.85,-49.5,191.41
976,1747401004170,0.44,0.385,0.19,-168.24,-74.435,160.34
977,1747401004180,0.55,0.31,0.15,-150.63,-99.37,129.27
978,1747401004190,0.55,0.31,0.15,-150.63,-99.37,129.27
979,1747401004200,0.55,0.31,0.15,-150.63,-99.37,129.27
980,1747401004210,0.83,0.35,0.14,-29.79,-81.67,59.88
981,1747401004220,0.83,0.35,0.14,-29.79,-81.67,59.88
982,1747401004230,0.83,0.35,0.14,-29.79,-81.67,59.88
983,1747401004240,0.815,0.395,0.13,29.265,-27.405,15.14
984,1747401004250,0.8,0.44,0.12,88.32,26.86,-29.6
985,1747401004260,0.8,0.44,0.12,88.32,26.86,-29.6
986,1747401004270,0.8,0.44,0.12,88.32,26.86,-29.6
987,1747401004280,0.8,0.44,0.12,88.32,26.86,-29.6
988,1747401004290,0.45,0.62,0.13,154.72,73.18,-126.1
989,1747401004300,0.45,0.62,0.13,154.72,73.18,-126.1
990,1747401004310,0.45,0.62,0.13,154.72,73.18,-126.1
991,1747401004320,0.58,0.68,0.15,185.42,23.01,-189.88
992,1747401004330,0.58,0.68,0.15,185.42,23.01,-189.88
993,1747401004340,0.58,0.68,0.15,185.42,23.01,-189.88
994,1747401004350,0.58,0.68,0.15,185.42,23.01,-189.88
995,1747401004360,0.645,0.665,0.19,198.21,26.55,-194.46
996,1747401004370,0.71,0.65,0.23,211.0,30.09,-199.04
997,1747401004380,0.71,0.65,0.23,211.0,30.09,-199.04
998,1747401004390,0.71,0.65,0.23,211.0,30.09,-199.04
999,1747401004400,0.63,0.53,0.24,172.49,33.39,-183.84
1000,1747401004410,0.63,0.53,0.24,172.49,33.39,-183.84
