id,timestamp,acc_x,acc_y,acc_z,gyro_x,gyro_y,gyro_z
0,1747592202400,-0.02,-3.01,-0.44,55.66,367.86,186.16
1,1747592202410,-0.71,-3.15,-0.92,55.66,367.86,186.16
2,1747592202420,-0.71,-3.15,-0.92,136.41,230.47,161.32
3,1747592202430,-0.71,-3.15,-0.92,136.41,230.47,161.32
4,1747592202440,-0.71,-3.15,-0.92,136.41,230.47,161.32
5,1747592202450,-1.66,-2.68,-1.52,136.41,230.47,161.32
6,1747592202460,-1.66,-2.68,-1.52,152.71,116.58,191.59
7,1747592202470,-1.66,-2.68,-1.52,152.71,116.58,191.59
8,1747592202480,-1.66,-2.68,-1.52,152.71,116.58,191.59
9,1747592202490,,,,,,
10,1747592202500,-1.64,-2.19,-1.31,129.52,31.74,284.61
11,1747592202510,-1.64,-2.19,-1.31,129.52,31.74,284.61
12,1747592202520,-1.41,-1.9,-1.21,129.52,31.74,284.61
13,1747592202530,-1.41,-1.9,-1.21,186.52,-94.67,299.19
14,1747592202540,-1.41,-1.9,-1.21,186.52,-94.67,299.19
15,1747592202550,-1.41,-1.9,-1.21,186.52,-94.67,299.19
16,1747592202560,-1.41,-1.9,-1.21,186.52,-94.67,299.19
17,1747592202570,-1.3,-1.86,-1.09,184.33,-129.76,319.82
18,1747592202580,-1.3,-1.86,-1.09,184.33,-129.76,319.82
19,1747592202590,-1.3,-1.86,-1.09,184.33,-129.76,319.82
20,1747592202600,-1.085,-2.145,-1.36,161.015,-145.54,377.285
21,1747592202610,-0.87,-2.43,-1.63,137.7,-161.32,434.75
22,1747592202620,-0.87,-2.43,-1.63,137.7,-161.32,434.75
23,1747592202630,-0.87,-2.43,-1.63,137.7,-161.32,434.75
24,1747592202640,-0.87,-2.43,-1.63,137.7,-161.32,434.75
25,1747592202650,0.12,-2.38,-1.7,159.0,-227.23,416.2
26,1747592202660,0.12,-2.38,-1.7,159.0,-227.23,416.2
27,1747592202670,0.12,-2.38,-1.7,159.0,-227.23,416.2
28,1747592202680,0.17,-2.68,-1.91,171.63,-352.11,445.62
29,1747592202690,0.17,-2.68,-1.91,171.63,-352.11,445.62
30,1747592202700,0.17,-2.68,-1.91,171.63,-352.11,445.62
31,1747592202710,0.17,-2.68,-1.91,171.63,-352.11,445.62
32,1747592202720,0.55,-2.52,-1.32,213.2,-288.39,475.71
33,1747592202730,0.55,-2.52,-1.32,213.2,-288.39,475.71
34,1747592202740,0.55,-2.52,-1.32,213.2,-288.39,475.71
35,1747592202750,0.55,-2.52,-1.32,213.2,-288.39,475.71
36,1747592202760,0.79,-1.95,-1.23,229.8,-186.22,464.36
37,1747592202770,0.79,-1.95,-1.23,229.8,-186.22,464.36
38,1747592202780,0.79,-1.95,-1.23,229.8,-186.22,464.36
39,1747592202790,1.54,-0.93,-0.58,229.8,-186.22,464.36
40,1747592202800,1.54,-0.93,-0.58,55.91,-7.39,444.03
41,1747592202810,1.54,-0.93,-0.58,55.91,-7.39,444.03
42,1747592202820,1.54,-0.93,-0.58,55.91,-7.39,444.03
43,1747592202830,1.54,-0.93,-0.58,55.91,-7.39,444.03
44,1747592202840,3.7,1.14,1.15,20.63,45.47,377.38
45,1747592202850,3.7,1.14,1.15,20.63,45.47,377.38
46,1747592202860,3.7,1.14,1.15,20.63,45.47,377.38
47,1747592202870,4.300000000000001,1.56,0.69,20.325,53.56,223.755
48,1747592202880,4.9,1.98,0.23,20.02,61.65,70.13
49,1747592202890,4.9,1.98,0.23,20.02,61.65,70.13
50,1747592202900,4.9,1.98,0.23,20.02,61.65,70.13
51,1747592202910,4.16,1.33,0.54,-47.67,108.86,-86.515
52,1747592202920,4.16,1.33,0.54,-115.36,156.07,-243.16
53,1747592202930,4.16,1.33,0.54,-115.36,156.07,-243.16
54,1747592202940,4.16,1.33,0.54,-115.36,156.07,-243.16
55,1747592202950,1.93,-0.86,-0.48,-94.06,305.54,-347.9
56,1747592202960,1.93,-0.86,-0.48,-94.06,305.54,-347.9
57,1747592202970,1.93,-0.86,-0.48,-94.06,305.54,-347.9
58,1747592202980,1.93,-0.86,-0.48,-94.06,305.54,-347.9
59,1747592202990,0.42,-2.65,-1.78,11.29,261.41,-434.2
60,1747592203000,0.42,-2.65,-1.78,11.29,261.41,-434.2
61,1747592203010,0.42,-2.65,-1.78,11.29,261.41,-434.2
62,1747592203020,0.42,-2.65,-1.78,11.29,261.41,-434.2
63,1747592203030,-0.8,-2.65,-2.15,-63.84,235.6,-435.49
64,1747592203040,-0.8,-2.65,-2.15,-63.84,235.6,-435.49
65,1747592203050,-0.8,-2.65,-2.15,-63.84,235.6,-435.49
66,1747592203060,-0.8,-2.65,-2.15,-63.84,235.6,-435.49
67,1747592203070,-0.39,-1.77,-1.5,-63.84,235.6,-435.49
68,1747592203080,-0.39,-1.77,-1.5,-134.77,303.65,-324.58
69,1747592203090,-0.39,-1.77,-1.5,-134.77,303.65,-324.58
70,1747592203100,-0.39,-1.77,-1.5,-134.77,303.65,-324.58
71,1747592203110,0.07,-1.51,-1.28,-98.63,293.15,-305.97
72,1747592203120,0.07,-1.51,-1.28,-98.63,293.15,-305.97
73,1747592203130,0.07,-1.51,-1.28,-98.63,293.15,-305.97
74,1747592203140,,,,,,
75,1747592203150,0.07,-1.51,-1.28,-98.63,293.15,-305.97
76,1747592203160,0.03,-1.66,-1.29,-55.3,273.93,-344.6
77,1747592203170,,,,,,
78,1747592203180,0.015,-1.69,-1.235,-34.64,283.02,-342.68
79,1747592203190,0.0,-1.72,-1.18,-13.98,292.11,-340.76
80,1747592203200,0.0,-1.72,-1.18,-13.98,292.11,-340.76
81,1747592203210,0.0,-1.72,-1.18,-13.98,292.11,-340.76
82,1747592203220,-0.96,-2.45,-1.69,46.94,309.94,-297.97
83,1747592203230,-0.96,-2.45,-1.69,46.94,309.94,-297.97
84,1747592203240,-0.96,-2.45,-1.69,46.94,309.94,-297.97
85,1747592203250,,,,,,
86,1747592203260,-1.73,-2.56,-1.855,34.73,335.33000000000004,-246.58
87,1747592203270,-2.5,-2.67,-2.02,22.52,360.72,-195.19
88,1747592203280,-2.5,-2.67,-2.02,22.52,360.72,-195.19
89,1747592203290,-2.5,-2.67,-2.02,22.52,360.72,-195.19
90,1747592203300,-4.23,-2.51,-2.11,49.62,226.93,-144.41
91,1747592203310,-4.23,-2.51,-2.11,49.62,226.93,-144.41
92,1747592203320,-4.23,-2.51,-2.11,49.62,226.93,-144.41
93,1747592203330,-4.23,-2.51,-2.11,49.62,226.93,-144.41
94,1747592203340,,,,,,
95,1747592203350,-5.37,-4.24,-1.49,40.83,-417.6,-82.76
96,1747592203360,-5.37,-4.24,-1.49,40.83,-417.6,-82.76
97,1747592203370,-5.37,-4.24,-1.49,40.83,-417.6,-82.76
98,1747592203380,-5.37,-4.24,-1.49,40.83,-417.6,-82.76
99,1747592203390,-2.99,-3.58,-1.72,70.43,47.85,278.26
100,1747592203400,-2.99,-3.58,-1.72,70.43,47.85,278.26
101,1747592203410,-2.99,-3.58,-1.72,70.43,47.85,278.26
102,1747592203420,-1.31,-2.29,-1.83,-71.84,167.91,441.83
103,1747592203430,-1.31,-2.29,-1.83,-71.84,167.91,441.83
104,1747592203440,-1.31,-2.29,-1.83,-71.84,167.91,441.83
105,1747592203450,-0.76,-1.71,-1.62,-93.69,-139.47,345.15
106,1747592203460,,,,,,
107,1747592203470,-0.76,-1.71,-1.62,-93.69,-139.47,345.15
108,1747592203480,,,,,,
109,1747592203490,-0.54,-1.76,-1.36,-74.16,-341.86,291.2
110,1747592203500,-0.54,-1.76,-1.36,-74.16,-341.86,291.2
111,1747592203510,-0.54,-1.76,-1.36,-74.16,-341.86,291.2
112,1747592203520,,,,,,
113,1747592203530,-0.25,-2.07,-1.39,38.27,-402.65,330.75
114,1747592203540,-0.25,-2.07,-1.39,38.27,-402.65,330.75
115,1747592203550,-0.25,-2.07,-1.39,38.27,-402.65,330.75
116,1747592203560,-0.25,-2.07,-1.39,38.27,-402.65,330.75
117,1747592203570,-0.06,-2.21,-1.46,22.16,-363.89,400.15
118,1747592203580,-0.06,-2.21,-1.46,22.16,-363.89,400.15
119,1747592203590,-0.06,-2.21,-1.46,22.16,-363.89,400.15
120,1747592203600,,,,,,
121,1747592203610,-0.08,-2.36,-1.52,64.27,-279.24,448.06
122,1747592203620,-0.08,-2.36,-1.52,64.27,-279.24,448.06
123,1747592203630,-0.08,-2.36,-1.52,64.27,-279.24,448.06
124,1747592203640,-0.08,-2.36,-1.52,64.27,-279.24,448.06
125,1747592203650,-0.06,-2.46,-1.59,59.51,-303.47,465.58
126,1747592203660,-0.06,-2.46,-1.59,59.51,-303.47,465.58
127,1747592203670,-0.06,-2.46,-1.59,59.51,-303.47,465.58
128,1747592203680,0.24,-2.07,-1.37,137.88,-417.36,355.04
129,1747592203690,0.24,-2.07,-1.37,137.88,-417.36,355.04
130,1747592203700,0.24,-2.07,-1.37,137.88,-417.36,355.04
131,1747592203710,0.24,-2.07,-1.37,137.88,-417.36,355.04
132,1747592203720,0.24,-2.07,-1.37,137.88,-417.36,355.04
133,1747592203730,1.39,-0.44,-0.75,158.57,-363.53,211.79
134,1747592203740,1.39,-0.44,-0.75,158.57,-363.53,211.79
135,1747592203750,1.39,-0.44,-0.75,158.57,-363.53,211.79
136,1747592203760,3.36,1.43,-0.46,17.15,75.81,245.24
137,1747592203770,3.36,1.43,-0.46,17.15,75.81,245.24
138,1747592203780,3.36,1.43,-0.46,17.15,75.81,245.24
139,1747592203790,3.51,1.86,-1.06,-78.37,5.68,0.85
140,1747592203800,3.51,1.86,-1.06,-78.37,5.68,0.85
141,1747592203810,3.51,1.86,-1.06,-78.37,5.68,0.85
142,1747592203820,3.51,1.86,-1.06,-78.37,5.68,0.85
143,1747592203830,3.51,1.86,-1.06,-78.37,5.68,0.85
144,1747592203840,3.97,1.92,0.16,-277.59,76.29,-87.16
145,1747592203850,3.97,1.92,0.16,-277.59,76.29,-87.16
146,1747592203860,3.97,1.92,0.16,-277.59,76.29,-87.16
147,1747592203870,2.51,0.31,0.26,-335.57,228.76,-251.22
148,1747592203880,2.51,0.31,0.26,-335.57,228.76,-251.22
149,1747592203890,2.51,0.31,0.26,-335.57,228.76,-251.22
150,1747592203900,2.51,0.31,0.26,-335.57,228.76,-251.22
151,1747592203910,1.39,-0.81,-0.24,-227.48,411.62,-270.69
152,1747592203920,1.39,-0.81,-0.24,-227.48,411.62,-270.69
153,1747592203930,1.39,-0.81,-0.24,-227.48,411.62,-270.69
154,1747592203940,1.39,-0.81,-0.24,-227.48,411.62,-270.69
155,1747592203950,0.68,-2.2,-1.93,48.16,501.83,-301.09
156,1747592203960,0.68,-2.2,-1.93,48.16,501.83,-301.09
157,1747592203970,0.68,-2.2,-1.93,48.16,501.83,-301.09
158,1747592203980,0.68,-2.2,-1.93,48.16,501.83,-301.09
159,1747592203990,-0.1,-2.1,-2.76,-60.36,355.83,-384.83
160,1747592204000,-0.1,-2.1,-2.76,-60.36,355.83,-384.83
161,1747592204010,-0.1,-2.1,-2.76,-60.36,355.83,-384.83
162,1747592204020,-0.1,-2.1,-2.76,-60.36,355.83,-384.83
163,1747592204030,0.24,-1.52,-2.23,-176.76,401.0,-371.77
164,1747592204040,0.24,-1.52,-2.23,-176.76,401.0,-371.77
165,1747592204050,0.24,-1.52,-2.23,-176.76,401.0,-371.77
166,1747592204060,0.24,-1.52,-2.23,-176.76,401.0,-371.77
167,1747592204070,0.32,-1.19,-1.74,-218.44,482.67,-304.99
168,1747592204080,0.32,-1.19,-1.74,-218.44,482.67,-304.99
169,1747592204090,0.32,-1.19,-1.74,-218.44,482.67,-304.99
170,1747592204100,0.32,-1.19,-1.74,-218.44,482.67,-304.99
171,1747592204110,0.62,-1.17,-1.31,-98.39,564.03,-149.96
172,1747592204120,0.62,-1.17,-1.31,-98.39,564.03,-149.96
173,1747592204130,0.62,-1.17,-1.31,-98.39,564.03,-149.96
174,1747592204140,0.62,-1.17,-1.31,-98.39,564.03,-149.96
175,1747592204150,0.62,-1.48,-2.02,174.38,382.45,-249.82
176,1747592204160,0.62,-1.48,-2.02,174.38,382.45,-249.82
177,1747592204170,0.62,-1.48,-2.02,174.38,382.45,-249.82
178,1747592204180,-0.86,-2.61,-3.11,69.95,226.44,-272.4
179,1747592204190,-0.86,-2.61,-3.11,69.95,226.44,-272.4
180,1747592204200,,,,,,
181,1747592204210,-0.86,-2.61,-3.11,69.95,226.44,-272.4
182,1747592204220,-3.18,-2.95,-2.98,69.95,226.44,-272.4
183,1747592204230,-3.18,-2.95,-2.98,-60.06,317.5,-91.8
184,1747592204240,-3.18,-2.95,-2.98,-60.06,317.5,-91.8
185,1747592204250,-3.18,-2.95,-2.98,-60.06,317.5,-91.8
186,1747592204260,-3.79,-3.81,-3.18,55.11,-19.23,-92.53
187,1747592204270,-3.79,-3.81,-3.18,55.11,-19.23,-92.53
188,1747592204280,-3.79,-3.81,-3.18,55.11,-19.23,-92.53
189,1747592204290,-3.79,-3.81,-3.18,55.11,-19.23,-92.53
190,1747592204300,-2.71,-3.93,-3.64,114.75,-179.81,184.14
191,1747592204310,-2.71,-3.93,-3.64,114.75,-179.81,184.14
192,1747592204320,-2.71,-3.93,-3.64,114.75,-179.81,184.14
193,1747592204330,-0.85,-2.67,-2.92,114.75,-179.81,184.14
194,1747592204340,-0.85,-2.67,-2.92,-117.55,1.53,370.36
195,1747592204350,-0.85,-2.67,-2.92,-117.55,1.53,370.36
196,1747592204360,-0.85,-2.67,-2.92,-117.55,1.53,370.36
197,1747592204370,-0.26,-2.0,-2.31,-96.56,-251.34,281.86
198,1747592204380,-0.26,-2.0,-2.31,-96.56,-251.34,281.86
199,1747592204390,-0.26,-2.0,-2.31,-96.56,-251.34,281.86
200,1747592204400,-0.285,-1.995,-1.98,-78.645,-335.415,263.58000000000004
201,1747592204410,-0.31,-1.99,-1.65,-60.73,-419.49,245.3
202,1747592204420,-0.31,-1.99,-1.65,-60.73,-419.49,245.3
203,1747592204430,-0.31,-1.99,-1.65,-60.73,-419.49,245.3
204,1747592204440,-0.13,-2.02,-1.465,-14.984999999999998,-436.675,305.57
205,1747592204450,0.05,-2.05,-1.28,30.76,-453.86,365.84
206,1747592204460,0.05,-2.05,-1.28,30.76,-453.86,365.84
207,1747592204470,0.05,-2.05,-1.28,30.76,-453.86,365.84
208,1747592204480,0.53,-2.09,-1.52,30.76,-453.86,365.84
209,1747592204490,0.53,-2.09,-1.52,91.25,-428.71,399.66
210,1747592204500,0.53,-2.09,-1.52,91.25,-428.71,399.66
211,1747592204510,0.53,-2.09,-1.52,91.25,-428.71,399.66
212,1747592204520,0.445,-2.2,-1.5550000000000002,107.82,-412.325,420.9
213,1747592204530,0.36,-2.31,-1.59,124.39,-395.94,442.14
214,1747592204540,0.36,-2.31,-1.59,124.39,-395.94,442.14
215,1747592204550,0.36,-2.31,-1.59,124.39,-395.94,442.14
216,1747592204560,0.37,-2.48,-1.62,149.69,-395.39,442.9
217,1747592204570,0.37,-2.48,-1.62,174.99,-394.84,443.66
218,1747592204580,0.37,-2.48,-1.62,174.99,-394.84,443.66
219,1747592204590,0.36,-2.405,-1.52,174.99,-394.84,443.66
220,1747592204600,0.35,-2.33,-1.42,275.39,-467.71,381.04
221,1747592204610,0.35,-2.33,-1.42,275.39,-467.71,381.04
222,1747592204620,0.35,-2.33,-1.42,275.39,-467.71,381.04
223,1747592204630,0.35,-2.33,-1.42,275.39,-467.71,381.04
224,1747592204640,0.69,-1.2,-1.3,251.04,-277.59,340.94
225,1747592204650,,,,,,
226,1747592204660,0.69,-1.2,-1.3,251.04,-277.59,340.94
227,1747592204670,2.51,0.75,-1.12,251.04,-277.59,340.94
228,1747592204680,2.51,0.75,-1.12,-38.64,68.85,326.29
229,1747592204690,2.51,0.75,-1.12,-38.64,68.85,326.29
230,1747592204700,2.51,0.75,-1.12,-38.64,68.85,326.29
231,1747592204710,2.51,0.75,-1.12,-38.64,68.85,326.29
232,1747592204720,4.34,2.1,-0.78,-64.94,-65.67,72.45
233,1747592204730,4.34,2.1,-0.78,-64.94,-65.67,72.45
234,1747592204740,4.34,2.1,-0.78,-64.94,-65.67,72.45
235,1747592204750,4.135,2.02,-0.77,-125.945,-41.93,-3.6000000000000014
236,1747592204760,3.93,1.94,-0.76,-186.95,-18.19,-79.65
237,1747592204770,3.93,1.94,-0.76,-186.95,-18.19,-79.65
238,1747592204780,3.93,1.94,-0.76,-186.95,-18.19,-79.65
239,1747592204790,2.66,0.68,0.34,-321.96,133.18,-200.26
240,1747592204800,2.66,0.68,0.34,-321.96,133.18,-200.26
241,1747592204810,2.66,0.68,0.34,-321.96,133.18,-200.26
242,1747592204820,2.66,0.68,0.34,-321.96,133.18,-200.26
243,1747592204830,1.68,-0.36,0.09,-249.57,320.8,-235.11
244,1747592204840,1.68,-0.36,0.09,-249.57,320.8,-235.11
245,1747592204850,1.68,-0.36,0.09,-249.57,320.8,-235.11
246,1747592204860,1.68,-0.36,0.09,-249.57,320.8,-235.11
247,1747592204870,1.305,-0.885,-0.32,-174.195,383.82,-280.46000000000004
248,1747592204880,0.93,-1.41,-0.73,-98.82,446.84,-325.81
249,1747592204890,0.93,-1.41,-0.73,-98.82,446.84,-325.81
250,1747592204900,0.93,-1.41,-0.73,-98.82,446.84,-325.81
251,1747592204910,-0.08,-2.6,-2.34,24.48,423.34,-343.38
252,1747592204920,-0.08,-2.6,-2.34,24.48,423.34,-343.38
253,1747592204930,-0.08,-2.6,-2.34,24.48,423.34,-343.38
254,1747592204940,-0.08,-2.6,-2.34,24.48,423.34,-343.38
255,1747592204950,-0.43,-2.2,-2.2,-63.6,349.85,-341.37
256,1747592204960,-0.43,-2.2,-2.2,-63.6,349.85,-341.37
257,1747592204970,-0.43,-2.2,-2.2,-63.6,349.85,-341.37
258,1747592204980,-0.255,-1.9,-1.875,-72.205,343.99,-314.33000000000004
259,1747592204990,-0.08,-1.6,-1.55,-80.81,338.13,-287.29
260,1747592205000,-0.08,-1.6,-1.55,-80.81,338.13,-287.29
261,1747592205010,-0.08,-1.6,-1.55,-80.81,338.13,-287.29
262,1747592205020,0.015,-1.54,-1.51,-62.895,369.995,-275.88
263,1747592205030,0.11,-1.48,-1.47,-44.98,401.86,-264.47
264,1747592205040,0.11,-1.48,-1.47,-44.98,401.86,-264.47
265,1747592205050,0.11,-1.48,-1.47,-44.98,401.86,-264.47
266,1747592205060,-0.23,-1.69,-1.51,66.28,400.39,-253.85
267,1747592205070,-0.23,-1.69,-1.51,66.28,400.39,-253.85
268,1747592205080,-0.23,-1.69,-1.51,66.28,400.39,-253.85
269,1747592205090,-0.23,-1.69,-1.51,66.28,400.39,-253.85
270,1747592205100,-1.79,-1.34,-2.01,66.28,400.39,-253.85
271,1747592205110,-1.79,-1.34,-2.01,21.85,329.65,-232.48
272,1747592205120,-1.79,-1.34,-2.01,21.85,329.65,-232.48
273,1747592205130,-1.79,-1.34,-2.01,21.85,329.65,-232.48
274,1747592205140,-3.23,-1.99,-1.61,34.36,293.95,-128.72
275,1747592205150,-3.23,-1.99,-1.61,34.36,293.95,-128.72
276,1747592205160,-3.23,-1.99,-1.61,34.36,293.95,-128.72
277,1747592205170,-3.23,-1.99,-1.61,34.36,293.95,-128.72
278,1747592205180,-4.94,-1.98,-2.19,33.08,23.99,-103.09
279,1747592205190,-4.94,-1.98,-2.19,33.08,23.99,-103.09
280,1747592205200,-4.94,-1.98,-2.19,33.08,23.99,-103.09
281,1747592205210,-4.94,-1.98,-2.19,33.08,23.99,-103.09
282,1747592205220,-4.02,-3.51,-2.67,102.36,-127.38,103.03
283,1747592205230,-4.02,-3.51,-2.67,102.36,-127.38,103.03
284,1747592205240,-4.02,-3.51,-2.67,102.36,-127.38,103.03
285,1747592205250,-2.24,-2.82,-2.86,-4.03,17.76,275.02
286,1747592205260,-2.24,-2.82,-2.86,-4.03,17.76,275.02
287,1747592205270,-2.24,-2.82,-2.86,-4.03,17.76,275.02
288,1747592205280,-2.24,-2.82,-2.86,-4.03,17.76,275.02
289,1747592205290,-2.24,-2.82,-2.86,-4.03,17.76,275.02
290,1747592205300,-1.3,-1.81,-2.05,-2.62,-209.72,202.94
291,1747592205310,-1.3,-1.81,-2.05,-2.62,-209.72,202.94
292,1747592205320,-1.3,-1.81,-2.05,-2.62,-209.72,202.94
293,1747592205330,-1.315,-1.69,-1.795,-17.665,-244.66000000000005,207.795
294,1747592205340,-1.33,-1.57,-1.54,-32.71,-279.6,212.65
295,1747592205350,-1.33,-1.57,-1.54,-32.71,-279.6,212.65
296,1747592205360,-1.33,-1.57,-1.54,-32.71,-279.6,212.65
297,1747592205370,-0.55,-1.54,-1.14,-63.35,-267.33,329.22
298,1747592205380,-0.55,-1.54,-1.14,-63.35,-267.33,329.22
299,1747592205390,-0.55,-1.54,-1.14,-63.35,-267.33,329.22
300,1747592205400,-0.55,-1.54,-1.14,-63.35,-267.33,329.22
301,1747592205410,0.18,-1.61,-1.17,-29.42,-295.53,377.26
302,1747592205420,0.18,-1.61,-1.17,-29.42,-295.53,377.26
303,1747592205430,0.18,-1.61,-1.17,-29.42,-295.53,377.26
304,1747592205440,0.18,-1.61,-1.17,-29.42,-295.53,377.26
305,1747592205450,0.26,-1.77,-1.25,-6.41,-313.42,381.53
306,1747592205460,0.26,-1.77,-1.25,-6.41,-313.42,381.53
307,1747592205470,0.26,-1.77,-1.25,-6.41,-313.42,381.53
308,1747592205480,0.26,-1.77,-1.25,-6.41,-313.42,381.53
309,1747592205490,0.23,-1.89,-1.32,24.72,-303.71,397.46
310,1747592205500,0.23,-1.89,-1.32,24.72,-303.71,397.46
311,1747592205510,0.23,-1.89,-1.32,24.72,-303.71,397.46
312,1747592205520,0.23,-1.89,-1.32,24.72,-303.71,397.46
313,1747592205530,0.52,-2.28,-1.37,64.76,-288.27,404.72
314,1747592205540,0.52,-2.28,-1.37,64.76,-288.27,404.72
315,1747592205550,0.52,-2.28,-1.37,64.76,-288.27,404.72
316,1747592205560,0.36,-1.98,-0.66,64.76,-288.27,404.72
317,1747592205570,0.36,-1.98,-0.66,67.32,-251.59,368.96
318,1747592205580,0.36,-1.98,-0.66,67.32,-251.59,368.96
319,1747592205590,0.36,-1.98,-0.66,67.32,-251.59,368.96
320,1747592205600,1.8,-0.69,-0.41,98.27,-85.82,444.52
321,1747592205610,1.8,-0.69,-0.41,98.27,-85.82,444.52
322,1747592205620,1.8,-0.69,-0.41,98.27,-85.82,444.52
323,1747592205630,1.8,-0.69,-0.41,98.27,-85.82,444.52
324,1747592205640,4.07,1.27,0.73,98.27,-85.82,444.52
325,1747592205650,4.07,1.27,0.73,-23.38,-22.4,253.85
326,1747592205660,4.07,1.27,0.73,-23.38,-22.4,253.85
327,1747592205670,4.07,1.27,0.73,-23.38,-22.4,253.85
328,1747592205680,4.68,1.83,0.77,-23.38,-22.4,253.85
329,1747592205690,4.68,1.83,0.77,-0.73,51.39,-46.63
330,1747592205700,4.68,1.83,0.77,-0.73,51.39,-46.63
331,1747592205710,4.68,1.83,0.77,-0.73,51.39,-46.63
332,1747592205720,4.17,1.28,0.54,-75.01,125.18,-280.46
333,1747592205730,4.17,1.28,0.54,-75.01,125.18,-280.46
334,1747592205740,4.17,1.28,0.54,-75.01,125.18,-280.46
335,1747592205750,4.17,1.28,0.54,-75.01,125.18,-280.46
336,1747592205760,2.61,-0.72,-0.25,-132.02,293.27,-465.09
337,1747592205770,2.61,-0.72,-0.25,-132.02,293.27,-465.09
338,1747592205780,2.61,-0.72,-0.25,-132.02,293.27,-465.09
339,1747592205790,2.61,-0.72,-0.25,-132.02,293.27,-465.09
340,1747592205800,1.13,-2.64,-1.34,14.4,367.61,-506.35
341,1747592205810,1.13,-2.64,-1.34,14.4,367.61,-506.35
342,1747592205820,1.13,-2.64,-1.34,14.4,367.61,-506.35
343,1747592205830,1.13,-2.64,-1.34,14.4,367.61,-506.35
344,1747592205840,-0.22,-3.47,-2.35,15.38,206.91,-583.07
345,1747592205850,-0.22,-3.47,-2.35,15.38,206.91,-583.07
346,1747592205860,-0.22,-3.47,-2.35,15.38,206.91,-583.07
347,1747592205870,-0.41,-3.335,-2.28,15.38,206.91,-583.07
348,1747592205880,-0.6,-3.2,-2.21,-98.63,259.03,-467.59
349,1747592205890,-0.6,-3.2,-2.21,-98.63,259.03,-467.59
350,1747592205900,-0.495,-2.905,-1.975,-107.85,268.525,-440.765
351,1747592205910,-0.39,-2.61,-1.74,-117.07,278.02,-413.94
352,1747592205920,-0.39,-2.61,-1.74,-117.07,278.02,-413.94
353,1747592205930,-0.39,-2.61,-1.74,-117.07,278.02,-413.94
354,1747592205940,-0.09,-2.17,-1.44,-75.44,198.18,-403.26
355,1747592205950,-0.09,-2.17,-1.44,-75.44,198.18,-403.26
356,1747592205960,-0.09,-2.17,-1.44,-75.44,198.18,-403.26
357,1747592205970,-0.09,-2.17,-1.44,-75.44,198.18,-403.26
358,1747592205980,-0.235,-2.165,-1.405,-70.19,241.485,-372.68
359,1747592205990,-0.38,-2.16,-1.37,-64.94,284.79,-342.1
360,1747592206000,-0.38,-2.16,-1.37,-64.94,284.79,-342.1
361,1747592206010,-0.74,-1.8,-1.22,-40.83,300.26,-298.86
362,1747592206020,-0.74,-1.8,-1.22,-16.72,315.73,-255.62
363,1747592206030,-0.74,-1.8,-1.22,-16.72,315.73,-255.62
364,1747592206040,-1.09,-1.57,-1.27,-16.72,315.73,-255.62
365,1747592206050,-1.44,-1.34,-1.32,-16.66,301.27,-110.6
366,1747592206060,-1.44,-1.34,-1.32,-16.66,301.27,-110.6
367,1747592206070,-1.44,-1.34,-1.32,-16.66,301.27,-110.6
368,1747592206080,-1.405,-1.21,-1.3250000000000002,-16.66,301.27,-110.6
369,1747592206090,-1.37,-1.08,-1.33,13.85,430.05,-3.85
370,1747592206100,-1.37,-1.08,-1.33,13.85,430.05,-3.85
371,1747592206110,-1.37,-1.08,-1.33,13.85,430.05,-3.85
372,1747592206120,-4.6850000000000005,-2.65,-2.015,-64.36500000000001,200.07,-127.93
373,1747592206130,-8.0,-4.22,-2.7,-142.58,-29.91,-252.01
374,1747592206140,-8.0,-4.22,-2.7,-142.58,-29.91,-252.01
375,1747592206150,-8.0,-4.22,-2.7,-142.58,-29.91,-252.01
376,1747592206160,-8.0,-4.22,-2.7,-142.58,-29.91,-252.01
377,1747592206170,-2.58,-3.47,-2.44,11.78,-175.72,230.1
378,1747592206180,-2.58,-3.47,-2.44,11.78,-175.72,230.1
379,1747592206190,-2.58,-3.47,-2.44,11.78,-175.72,230.1
380,1747592206200,-2.58,-3.47,-2.44,11.78,-175.72,230.1
381,1747592206210,-1.18,-3.09,-2.64,-50.35,187.87,394.84
382,1747592206220,-1.18,-3.09,-2.64,-50.35,187.87,394.84
383,1747592206230,-1.18,-3.09,-2.64,-50.35,187.87,394.84
384,1747592206240,-0.845,-2.57,-2.6100000000000003,-77.605,91.89,354.22
385,1747592206250,-0.51,-2.05,-2.58,-104.86,-4.09,313.6
386,1747592206260,-0.51,-2.05,-2.58,-104.86,-4.09,313.6
387,1747592206270,-0.51,-2.05,-2.58,-104.86,-4.09,313.6
388,1747592206280,-0.71,-1.48,-2.01,-165.1,-194.27,230.1
389,1747592206290,-0.71,-1.48,-2.01,-165.1,-194.27,230.1
390,1747592206300,-0.71,-1.48,-2.01,-165.1,-194.27,230.1
391,1747592206310,-0.71,-1.48,-2.01,-165.1,-194.27,230.1
392,1747592206320,-0.39,-1.81,-1.45,-221.37,-305.48,287.35
393,1747592206330,-0.39,-1.81,-1.45,-221.37,-305.48,287.35
394,1747592206340,-0.39,-1.81,-1.45,-221.37,-305.48,287.35
395,1747592206350,-0.39,-1.81,-1.45,-221.37,-305.48,287.35
396,1747592206360,0.16,-2.02,-1.38,-196.23,-355.22,339.05
397,1747592206370,0.16,-2.02,-1.38,-196.23,-355.22,339.05
398,1747592206380,0.16,-2.02,-1.38,-196.23,-355.22,339.05
399,1747592206390,0.31,-2.06,-1.3849999999999998,-200.225,-334.53,361.295
400,1747592206400,0.46,-2.1,-1.39,-204.22,-313.84,383.54
401,1747592206410,0.46,-2.1,-1.39,-204.22,-313.84,383.54
402,1747592206420,0.46,-2.1,-1.39,-204.22,-313.84,383.54
403,1747592206430,0.46,-2.1,-1.39,-204.22,-313.84,383.54
404,1747592206440,0.65,-2.06,-1.31,-183.41,-282.29,374.33
405,1747592206450,0.65,-2.06,-1.31,-183.41,-282.29,374.33
406,1747592206460,0.65,-2.06,-1.31,-183.41,-282.29,374.33
407,1747592206470,0.545,-1.95,-1.29,-158.75,-269.105,357.115
408,1747592206480,0.44,-1.84,-1.27,-134.09,-255.92,339.9
409,1747592206490,0.44,-1.84,-1.27,-134.09,-255.92,339.9
410,1747592206500,0.44,-1.84,-1.27,-134.09,-255.92,339.9
411,1747592206510,0.62,-1.58,-0.95,-134.09,-255.92,339.9
412,1747592206520,0.62,-1.58,-0.95,-134.09,-268.01,314.76
413,1747592206530,0.62,-1.58,-0.95,-134.09,-268.01,314.76
414,1747592206540,0.62,-1.58,-0.95,-134.09,-268.01,314.76
415,1747592206550,1.26,-0.83,0.0,-102.445,-300.905,294.16
416,1747592206560,1.26,-0.83,0.0,-70.8,-333.8,273.56
417,1747592206570,1.26,-0.83,0.0,-70.8,-333.8,273.56
418,1747592206580,1.26,-0.83,0.0,-70.8,-333.8,273.56
419,1747592206590,2.9,0.37,0.61,-38.15,-200.56,239.14
420,1747592206600,2.9,0.37,0.61,-38.15,-200.56,239.14
421,1747592206610,2.9,0.37,0.61,-38.15,-200.56,239.14
422,1747592206620,3.715,0.7050000000000001,0.74,-63.66,-98.51,172.14999999999998
423,1747592206630,4.53,1.04,0.87,-89.17,3.54,105.16
424,1747592206640,4.53,1.04,0.87,-89.17,3.54,105.16
425,1747592206650,4.53,1.04,0.87,-89.17,3.54,105.16
426,1747592206660,4.08,0.92,1.57,-182.74,76.48,-180.42
427,1747592206670,4.08,0.92,1.57,-182.74,76.48,-180.42
428,1747592206680,4.08,0.92,1.57,-182.74,76.48,-180.42
429,1747592206690,4.08,0.92,1.57,-182.74,76.48,-180.42
430,1747592206700,3.465,0.45,1.405,-182.74,76.48,-180.42
431,1747592206710,2.85,-0.02,1.24,-140.81,302.43,-320.86
432,1747592206720,2.85,-0.02,1.24,-140.81,302.43,-320.86
433,1747592206730,2.385,-0.61,0.59,-92.59,412.72,-366.24
434,1747592206740,1.92,-1.2,-0.06,-44.37,523.01,-411.62
435,1747592206750,1.92,-1.2,-0.06,-44.37,523.01,-411.62
436,1747592206760,1.92,-1.2,-0.06,-44.37,523.01,-411.62
437,1747592206770,1.92,-1.2,-0.06,-44.37,523.01,-411.62
438,1747592206780,1.92,-1.2,-0.06,-44.37,523.01,-411.62
439,1747592206790,0.92,-2.68,-1.99,212.1,610.78,-343.38
440,1747592206800,0.92,-2.68,-1.99,212.1,610.78,-343.38
441,1747592206810,0.7150000000000001,-2.715,-2.58,247.07,496.37,-360.47
442,1747592206820,0.51,-2.75,-3.17,282.04,381.96,-377.56
443,1747592206830,0.51,-2.75,-3.17,282.04,381.96,-377.56
444,1747592206840,0.51,-2.75,-3.17,282.04,381.96,-377.56
445,1747592206850,0.095,-2.625,-3.0700000000000003,191.8,349.73,-387.45
446,1747592206860,-0.32,-2.5,-2.97,101.56,317.5,-397.34
447,1747592206870,-0.32,-2.5,-2.97,101.56,317.5,-397.34
448,1747592206880,-0.32,-2.5,-2.97,101.56,317.5,-397.34
449,1747592206890,-0.05,-1.86,-1.86,47.06,328.55,-273.68
450,1747592206900,-0.05,-1.86,-1.86,47.06,328.55,-273.68
451,1747592206910,-0.05,-1.86,-1.86,47.06,328.55,-273.68
452,1747592206920,-0.05,-1.86,-1.86,47.06,328.55,-273.68
453,1747592206930,-0.15,-1.38,-2.06,89.23,392.7,-254.82
454,1747592206940,-0.15,-1.38,-2.06,89.23,392.7,-254.82
455,1747592206950,-0.15,-1.38,-2.06,89.23,392.7,-254.82
456,1747592206960,-0.15,-1.38,-2.06,89.23,392.7,-254.82
457,1747592206970,-0.77,-1.28,-1.93,21.85,341.19,-283.08
458,1747592206980,-0.77,-1.28,-1.93,21.85,341.19,-283.08
459,1747592206990,-0.77,-1.28,-1.93,21.85,341.19,-283.08
460,1747592207000,-0.77,-1.28,-1.93,21.85,341.19,-283.08
461,1747592207010,-2.03,-0.94,-2.26,-4.52,271.97,-149.78
462,1747592207020,-2.03,-0.94,-2.26,-4.52,271.97,-149.78
463,1747592207030,-2.03,-0.94,-2.26,-4.52,271.97,-149.78
464,1747592207040,-2.66,-1.12,-2.56,-103.03,251.4,-64.82
465,1747592207050,-2.66,-1.12,-2.56,-103.03,251.4,-64.82
466,1747592207060,-2.66,-1.12,-2.56,-103.03,251.4,-64.82
467,1747592207070,-2.66,-1.12,-2.56,-103.03,251.4,-64.82
468,1747592207080,-3.045,-2.1950000000000003,-3.115,2.93,61.035,-41.535
469,1747592207090,-3.43,-3.27,-3.67,108.89,-129.33,-18.25
470,1747592207100,-3.43,-3.27,-3.67,108.89,-129.33,-18.25
471,1747592207110,-3.43,-3.27,-3.67,108.89,-129.33,-18.25
472,1747592207120,-1.33,-2.91,-3.84,-3.85,-163.94,164.18
473,1747592207130,-1.33,-2.91,-3.84,-3.85,-163.94,164.18
474,1747592207140,-1.33,-2.91,-3.84,-3.85,-163.94,164.18
475,1747592207150,-1.33,-2.91,-3.84,-3.85,-163.94,164.18
476,1747592207160,-0.7,-2.14,-2.74,-73.79,-171.33,186.22
477,1747592207170,-0.7,-2.14,-2.74,-73.79,-171.33,186.22
478,1747592207180,-0.7,-2.14,-2.74,-73.79,-171.33,186.22
479,1747592207190,-0.7,-2.14,-2.74,-73.79,-171.33,186.22
480,1747592207200,-0.9,-1.56,-2.04,-48.83,-283.45,180.18
481,1747592207210,-0.9,-1.56,-2.04,-48.83,-283.45,180.18
482,1747592207220,-0.9,-1.56,-2.04,-48.83,-283.45,180.18
483,1747592207230,-0.9,-1.56,-2.04,-48.83,-283.45,180.18
484,1747592207240,-0.64,-1.47,-1.6,-55.05,-348.51,271.3
485,1747592207250,-0.64,-1.47,-1.6,-55.05,-348.51,271.3
486,1747592207260,-0.64,-1.47,-1.6,-55.05,-348.51,271.3
487,1747592207270,-0.26,-1.5499999999999998,-1.52,-51.145,-366.12,312.65
488,1747592207280,0.12,-1.63,-1.44,-47.24,-383.73,354.0
489,1747592207290,0.12,-1.63,-1.44,-47.24,-383.73,354.0
490,1747592207300,0.12,-1.63,-1.44,-47.24,-383.73,354.0
491,1747592207310,0.255,-1.755,-1.535,-63.260000000000005,-365.725,393.615
492,1747592207320,0.39,-1.88,-1.63,-79.28,-347.72,433.23
493,1747592207330,0.39,-1.88,-1.63,-79.28,-347.72,433.23
494,1747592207340,0.39,-1.88,-1.63,-79.28,-347.72,433.23
495,1747592207350,0.505,-1.905,-1.58,-103.695,-324.68,450.655
496,1747592207360,0.62,-1.93,-1.53,-128.11,-301.64,468.08
497,1747592207370,0.62,-1.93,-1.53,-128.11,-301.64,468.08
498,1747592207380,0.62,-1.93,-1.53,-128.11,-301.64,468.08
499,1747592207390,0.65,-1.815,-1.445,-126.22,-298.405,452.09
500,1747592207400,0.68,-1.7,-1.36,-124.33,-295.17,436.1
501,1747592207410,0.68,-1.7,-1.36,-124.33,-295.17,436.1
502,1747592207420,0.68,-1.7,-1.36,-124.33,-295.17,436.1
503,1747592207430,0.68,-1.7,-1.36,-124.33,-295.17,436.1
504,1747592207440,0.53,-1.45,-1.24,-98.57,-290.22,399.23
505,1747592207450,0.53,-1.45,-1.24,-98.57,-290.22,399.23
506,1747592207460,0.53,-1.45,-1.24,-98.57,-290.22,399.23
507,1747592207470,0.74,-0.92,-0.64,-104.74,-315.86,368.59
508,1747592207480,0.74,-0.92,-0.64,-104.74,-315.86,368.59
509,1747592207490,0.74,-0.92,-0.64,-104.74,-315.86,368.59
510,1747592207500,0.74,-0.92,-0.64,-104.74,-315.86,368.59
511,1747592207510,2.16,-0.35,0.51,13.98,-349.98,273.13
512,1747592207520,2.16,-0.35,0.51,13.98,-349.98,273.13
513,1747592207530,2.16,-0.35,0.51,13.98,-349.98,273.13
514,1747592207540,3.565,0.225,0.295,5.4350000000000005,-236.025,208.525
515,1747592207550,4.97,0.8,0.08,-3.11,-122.07,143.92
516,1747592207560,4.97,0.8,0.08,-3.11,-122.07,143.92
517,1747592207570,4.97,0.8,0.08,-3.11,-122.07,143.92
518,1747592207580,4.915,0.955,0.6950000000000001,-3.11,-122.07,143.92
519,1747592207590,4.86,1.11,1.31,-150.63,111.02,-176.27
520,1747592207600,4.86,1.11,1.31,-150.63,111.02,-176.27
521,1747592207610,4.86,1.11,1.31,-150.63,111.02,-176.27
522,1747592207620,4.0600000000000005,0.4600000000000001,1.025,-114.865,173.34,-295.87
523,1747592207630,3.26,-0.19,0.74,-79.1,235.66,-415.47
524,1747592207640,3.26,-0.19,0.74,-79.1,235.66,-415.47
525,1747592207650,3.26,-0.19,0.74,-79.1,235.66,-415.47
526,1747592207660,2.12,-1.66,-0.47,-56.335,330.81,-451.54
527,1747592207670,2.12,-1.66,-0.47,-33.57,425.96,-487.61
528,1747592207680,2.12,-1.66,-0.47,-33.57,425.96,-487.61
529,1747592207690,2.12,-1.66,-0.47,-33.57,425.96,-487.61
530,1747592207700,0.26,-3.31,-2.24,67.015,471.68,-479.43
531,1747592207710,0.26,-3.31,-2.24,167.6,517.4,-471.25
532,1747592207720,0.26,-3.31,-2.24,167.6,517.4,-471.25
533,1747592207730,0.26,-3.31,-2.24,167.6,517.4,-471.25
534,1747592207740,-0.58,-2.98,-2.88,138.73,285.46,-468.08
535,1747592207750,-0.58,-2.98,-2.88,138.73,285.46,-468.08
536,1747592207760,-0.58,-2.98,-2.88,138.73,285.46,-468.08
537,1747592207770,-0.58,-2.98,-2.88,138.73,285.46,-468.08
538,1747592207780,-0.65,-2.23,-2.28,-6.04,250.55,-392.94
539,1747592207790,-0.65,-2.23,-2.28,-6.04,250.55,-392.94
540,1747592207800,-0.65,-2.23,-2.28,-6.04,250.55,-392.94
541,1747592207810,-0.65,-2.23,-2.28,-6.04,250.55,-392.94
542,1747592207820,-0.18,-1.66,-1.57,-65.55,302.86,-312.56
543,1747592207830,-0.18,-1.66,-1.57,-65.55,302.86,-312.56
544,1747592207840,-0.18,-1.66,-1.57,-65.55,302.86,-312.56
545,1747592207850,-0.11,-1.465,-1.395,-32.379999999999995,322.33000000000004,-285.155
546,1747592207860,-0.04,-1.27,-1.22,0.79,341.8,-257.75
547,1747592207870,-0.04,-1.27,-1.22,0.79,341.8,-257.75
548,1747592207880,-0.04,-1.27,-1.22,0.79,341.8,-257.75
549,1747592207890,-0.29,-1.15,-1.51,0.79,341.8,-257.75
550,1747592207900,-0.29,-1.15,-1.51,20.57,411.32,-217.35
551,1747592207910,-0.29,-1.15,-1.51,20.57,411.32,-217.35
552,1747592207920,-0.29,-1.15,-1.51,20.57,411.32,-217.35
553,1747592207930,-0.29,-1.15,-1.51,20.57,411.32,-217.35
554,1747592207940,-1.51,-1.08,-1.6,47.91,342.53,-142.76
555,1747592207950,-1.51,-1.08,-1.6,47.91,342.53,-142.76
556,1747592207960,-1.51,-1.08,-1.6,47.91,342.53,-142.76
557,1747592207970,-2.52,-1.59,-2.4,44.62,243.23,-132.02
558,1747592207980,-2.52,-1.59,-2.4,44.62,243.23,-132.02
559,1747592207990,-2.52,-1.59,-2.4,44.62,243.23,-132.02
560,1747592208000,-2.52,-1.59,-2.4,44.62,243.23,-132.02
561,1747592208010,-3.345,-2.44,-2.45,83.985,53.80499999999999,-150.055
562,1747592208020,-4.17,-3.29,-2.5,123.35,-135.62,-168.09
563,1747592208030,-4.17,-3.29,-2.5,123.35,-135.62,-168.09
564,1747592208040,-4.17,-3.29,-2.5,123.35,-135.62,-168.09
565,1747592208050,-3.67,-3.625,-2.805,133.515,-170.87,-39.64
566,1747592208060,-3.17,-3.96,-3.11,143.68,-206.12,88.81
567,1747592208070,-3.17,-3.96,-3.11,143.68,-206.12,88.81
568,1747592208080,-3.17,-3.96,-3.11,143.68,-206.12,88.81
569,1747592208090,-1.81,-2.77,-2.35,-45.29,69.89,267.52
570,1747592208100,-1.81,-2.77,-2.35,-45.29,69.89,267.52
571,1747592208110,-1.81,-2.77,-2.35,-45.29,69.89,267.52
572,1747592208120,-1.355,-2.1950000000000003,-2.095,-45.29,69.89,267.52
573,1747592208130,-0.9,-1.62,-1.84,-40.89,-72.08,273.8
574,1747592208140,-0.9,-1.62,-1.84,-40.89,-72.08,273.8
575,1747592208150,-0.87,-1.455,-1.81,-40.89,-72.08,273.8
576,1747592208160,-0.84,-1.29,-1.78,-74.52,-178.89,248.84
577,1747592208170,-0.84,-1.29,-1.78,-74.52,-178.89,248.84
578,1747592208180,-0.84,-1.29,-1.78,-74.52,-178.89,248.84
579,1747592208190,-0.84,-1.29,-1.78,-74.52,-178.89,248.84
580,1747592208200,-0.2,-1.52,-1.41,-127.87,-264.83,336.06
581,1747592208210,-0.2,-1.52,-1.41,-127.87,-264.83,336.06
582,1747592208220,-0.2,-1.52,-1.41,-127.87,-264.83,336.06
583,1747592208230,0.06,-1.61,-1.4049999999999998,-116.09,-298.185,331.515
584,1747592208240,0.32,-1.7,-1.4,-104.31,-331.54,326.97
585,1747592208250,0.32,-1.7,-1.4,-104.31,-331.54,326.97
586,1747592208260,0.32,-1.7,-1.4,-104.31,-331.54,326.97
587,1747592208270,0.3,-1.845,-1.415,-91.735,-328.795,351.41
588,1747592208280,0.28,-1.99,-1.43,-79.16,-326.05,375.85
589,1747592208290,0.28,-1.99,-1.43,-79.16,-326.05,375.85
590,1747592208300,0.28,-1.99,-1.43,-79.16,-326.05,375.85
591,1747592208310,0.51,-1.96,-1.38,-70.07,-324.04,394.35
592,1747592208320,0.51,-1.96,-1.38,-70.07,-324.04,394.35
593,1747592208330,0.51,-1.96,-1.38,-70.07,-324.04,394.35
594,1747592208340,0.51,-1.96,-1.38,-70.07,-324.04,394.35
595,1747592208350,0.56,-1.77,-1.17,-70.07,-324.04,394.35
596,1747592208360,0.61,-1.58,-0.96,-36.01,-328.61,377.01
597,1747592208370,0.61,-1.58,-0.96,-36.01,-328.61,377.01
598,1747592208380,0.61,-1.58,-0.96,-36.01,-328.61,377.01
599,1747592208390,0.95,-0.96,-0.58,2.2,-286.74,351.32
600,1747592208400,0.95,-0.96,-0.58,2.2,-286.74,351.32
601,1747592208410,0.95,-0.96,-0.58,2.2,-286.74,351.32
602,1747592208420,0.95,-0.96,-0.58,2.2,-286.74,351.32
603,1747592208430,1.12,-0.19,-0.24,11.6,-196.29,253.36
604,1747592208440,1.12,-0.19,-0.24,11.6,-196.29,253.36
605,1747592208450,1.12,-0.19,-0.24,11.6,-196.29,253.36
606,1747592208460,1.99,0.7,0.22,11.6,-196.29,253.36
607,1747592208470,1.99,0.7,0.22,-75.07,-50.17,242.43
608,1747592208480,1.99,0.7,0.22,-75.07,-50.17,242.43
609,1747592208490,1.99,0.7,0.22,-75.07,-50.17,242.43
610,1747592208500,1.99,0.7,0.22,-75.07,-50.17,242.43
611,1747592208510,3.87,1.4,0.86,-75.38,-10.62,97.05
612,1747592208520,3.87,1.4,0.86,-75.38,-10.62,97.05
613,1747592208530,3.87,1.4,0.86,-75.38,-10.62,97.05
614,1747592208540,3.855,1.45,1.27,-52.4,-11.87,-25.205000000000005
615,1747592208550,3.84,1.5,1.68,-29.42,-13.12,-147.46
616,1747592208560,3.84,1.5,1.68,-29.42,-13.12,-147.46
617,1747592208570,3.84,1.5,1.68,-29.42,-13.12,-147.46
618,1747592208580,3.4,0.795,1.03,-44.68,127.93,-232.88
619,1747592208590,2.96,0.09,0.38,-59.94,268.98,-318.3
620,1747592208600,2.96,0.09,0.38,-59.94,268.98,-318.3
621,1747592208610,2.96,0.09,0.38,-59.94,268.98,-318.3
622,1747592208620,2.275,-0.955,-0.315,-34.335,378.935,-374.695
623,1747592208630,1.59,-2.0,-1.01,-8.73,488.89,-431.09
624,1747592208640,1.59,-2.0,-1.01,-8.73,488.89,-431.09
625,1747592208650,1.59,-2.0,-1.01,-8.73,488.89,-431.09
626,1747592208660,0.05,-3.3,-2.52,149.66,414.0,-429.87
627,1747592208670,0.05,-3.3,-2.52,149.66,414.0,-429.87
628,1747592208680,0.05,-3.3,-2.52,149.66,414.0,-429.87
629,1747592208690,0.05,-3.3,-2.52,149.66,414.0,-429.87
630,1747592208700,-0.1,-2.71,-2.49,86.85,285.28,-445.07
631,1747592208710,-0.1,-2.71,-2.49,86.85,285.28,-445.07
632,1747592208720,-0.1,-2.71,-2.49,86.85,285.28,-445.07
633,1747592208730,-0.215,-2.635,-2.345,54.23,270.51,-434.115
634,1747592208740,-0.33,-2.56,-2.2,21.61,255.74,-423.16
635,1747592208750,-0.33,-2.56,-2.2,21.61,255.74,-423.16
636,1747592208760,-0.33,-2.56,-2.2,21.61,255.74,-423.16
637,1747592208770,-0.48,-2.41,-1.9,19.715,231.475,-393.615
638,1747592208780,-0.63,-2.26,-1.6,17.82,207.21,-364.07
639,1747592208790,-0.63,-2.26,-1.6,17.82,207.21,-364.07
640,1747592208800,-0.63,-2.26,-1.6,17.82,207.21,-364.07
641,1747592208810,-0.65,-1.845,-1.59,17.82,207.21,-364.07
642,1747592208820,-0.67,-1.43,-1.58,-5.8,305.36,-247.74
643,1747592208830,-0.67,-1.43,-1.58,-5.8,305.36,-247.74
644,1747592208840,-0.67,-1.43,-1.58,-5.8,305.36,-247.74
645,1747592208850,-1.0,-1.27,-1.52,-12.36,318.635,-207.64
646,1747592208860,-1.33,-1.11,-1.46,-18.92,331.91,-167.54
647,1747592208870,-1.33,-1.11,-1.46,-18.92,331.91,-167.54
648,1747592208880,-1.33,-1.11,-1.46,-18.92,331.91,-167.54
649,1747592208890,-1.33,-1.11,-1.46,-18.92,331.91,-167.54
650,1747592208900,-1.33,-1.11,-1.46,-18.92,331.91,-167.54
651,1747592208910,-2.87,-1.18,-1.63,41.75,229.31,-106.87
652,1747592208920,-2.87,-1.18,-1.63,41.75,229.31,-106.87
653,1747592208930,-4.79,-1.66,-2.68,39.46,212.435,-118.865
654,1747592208940,-4.79,-1.66,-2.68,37.17,195.56,-130.86
655,1747592208950,-4.79,-1.66,-2.68,37.17,195.56,-130.86
656,1747592208960,-4.79,-1.66,-2.68,37.17,195.56,-130.86
657,1747592208970,-3.82,-3.21,-3.12,104.19,-342.22,77.94
658,1747592208980,-3.82,-3.21,-3.12,104.19,-342.22,77.94
659,1747592208990,-3.82,-3.21,-3.12,104.19,-342.22,77.94
660,1747592209000,-3.82,-3.21,-3.12,104.19,-342.22,77.94
661,1747592209010,-1.88,-2.81,-2.66,-7.93,-131.9,240.6
662,1747592209020,-1.88,-2.81,-2.66,-7.93,-131.9,240.6
663,1747592209030,-1.88,-2.81,-2.66,-7.93,-131.9,240.6
664,1747592209040,-1.6949999999999998,-2.585,-2.325,-7.93,-131.9,240.6
665,1747592209050,-1.51,-2.36,-1.99,-28.56,-151.43,258.0
666,1747592209060,-1.51,-2.36,-1.99,-28.56,-151.43,258.0
667,1747592209070,-1.51,-2.36,-1.99,-28.56,-151.43,258.0
668,1747592209080,-1.51,-2.36,-1.99,-28.56,-151.43,258.0
669,1747592209090,-1.3,-1.67,-1.48,-46.51,-250.61,279.05
670,1747592209100,-1.3,-1.67,-1.48,-46.51,-250.61,279.05
671,1747592209110,-1.3,-1.67,-1.48,-46.51,-250.61,279.05
672,1747592209120,-1.005,-1.64,-1.265,-67.23,-232.45,318.845
673,1747592209130,-0.71,-1.61,-1.05,-87.95,-214.29,358.64
674,1747592209140,-0.71,-1.61,-1.05,-87.95,-214.29,358.64
675,1747592209150,-0.71,-1.61,-1.05,-87.95,-214.29,358.64
676,1747592209160,-0.13,-1.86,-1.29,-94.45,-214.445,381.715
677,1747592209170,-0.13,-1.86,-1.29,-100.95,-214.6,404.79
678,1747592209180,-0.13,-1.86,-1.29,-100.95,-214.6,404.79
679,1747592209190,-0.13,-1.86,-1.29,-100.95,-214.6,404.79
680,1747592209200,0.0549999999999999,-1.96,-1.225,-122.25,-219.24,406.56
681,1747592209210,0.24,-2.06,-1.16,-143.55,-223.88,408.33
682,1747592209220,0.24,-2.06,-1.16,-143.55,-223.88,408.33
683,1747592209230,0.24,-2.06,-1.16,-143.55,-223.88,408.33
684,1747592209240,0.26,-2.0,-1.08,-121.275,-246.525,401.86
685,1747592209250,0.26,-2.0,-1.08,-99.0,-269.17,395.39
686,1747592209260,0.26,-2.0,-1.08,-99.0,-269.17,395.39
687,1747592209270,0.26,-2.0,-1.08,-99.0,-269.17,395.39
688,1747592209280,0.34,-1.85,-0.9,-69.89,-276.12,412.72
689,1747592209290,0.34,-1.85,-0.9,-69.89,-276.12,412.72
690,1747592209300,0.34,-1.85,-0.9,-69.89,-276.12,412.72
691,1747592209310,0.34,-1.85,-0.9,-69.89,-276.12,412.72
692,1747592209320,0.74,-1.3,-0.65,-9.03,-235.05,377.87
693,1747592209330,0.74,-1.3,-0.65,-9.03,-235.05,377.87
694,1747592209340,0.74,-1.3,-0.65,-9.03,-235.05,377.87
695,1747592209350,0.74,-1.3,-0.65,-9.03,-235.05,377.87
696,1747592209360,1.17,-0.34,0.12,30.21,-197.02,287.41
697,1747592209370,1.17,-0.34,0.12,30.21,-197.02,287.41
698,1747592209380,1.17,-0.34,0.12,30.21,-197.02,287.41
699,1747592209390,2.05,0.32,0.15,-9.09,-31.92,247.5
700,1747592209400,2.05,0.32,0.15,-9.09,-31.92,247.5
701,1747592209410,2.05,0.32,0.15,-9.09,-31.92,247.5
702,1747592209420,2.05,0.32,0.15,-9.09,-31.92,247.5
703,1747592209430,3.47,0.7,0.6,-122.38,32.9,48.89
704,1747592209440,3.47,0.7,0.6,-122.38,32.9,48.89
705,1747592209450,3.47,0.7,0.6,-122.38,32.9,48.89
706,1747592209460,3.47,0.7,0.6,-122.38,32.9,48.89
707,1747592209470,4.21,1.36,1.52,-94.48,14.95,-81.73
708,1747592209480,4.21,1.36,1.52,-94.48,14.95,-81.73
709,1747592209490,4.21,1.36,1.52,-94.48,14.95,-81.73
710,1747592209500,3.09,0.47,0.57,-40.89,121.46,-315.49
711,1747592209510,3.09,0.47,0.57,-40.89,121.46,-315.49
712,1747592209520,3.09,0.47,0.57,-40.89,121.46,-315.49
713,1747592209530,2.47,-0.38,0.0499999999999999,-40.89,121.46,-315.49
714,1747592209540,1.85,-1.23,-0.47,-62.44,391.3,-438.11
715,1747592209550,1.85,-1.23,-0.47,-62.44,391.3,-438.11
716,1747592209560,1.85,-1.23,-0.47,-62.44,391.3,-438.11
717,1747592209570,1.85,-1.23,-0.47,-62.44,391.3,-438.11
718,1747592209580,0.17,-2.87,-2.06,107.06,395.26,-460.21
719,1747592209590,0.17,-2.87,-2.06,107.06,395.26,-460.21
720,1747592209600,0.17,-2.87,-2.06,107.06,395.26,-460.21
721,1747592209610,0.17,-2.87,-2.06,107.06,395.26,-460.21
722,1747592209620,-0.105,-2.78,-2.23,86.705,338.83500000000004,-459.78
723,1747592209630,-0.38,-2.69,-2.4,66.35,282.41,-459.35
724,1747592209640,-0.38,-2.69,-2.4,66.35,282.41,-459.35
725,1747592209650,-0.32,-2.18,-1.91,66.35,282.41,-459.35
726,1747592209660,-0.32,-2.18,-1.91,10.31,212.4,-415.22
727,1747592209670,-0.32,-2.18,-1.91,10.31,212.4,-415.22
728,1747592209680,-0.32,-2.18,-1.91,10.31,212.4,-415.22
729,1747592209690,0.01,-1.87,-1.39,-10.864999999999998,210.875,-407.31500000000005
730,1747592209700,0.01,-1.87,-1.39,-32.04,209.35,-399.41
731,1747592209710,0.01,-1.87,-1.39,-32.04,209.35,-399.41
732,1747592209720,0.01,-1.87,-1.39,-32.04,209.35,-399.41
733,1747592209730,-0.055,-1.865,-1.285,-21.085,275.3,-360.35
734,1747592209740,-0.12,-1.86,-1.18,-10.13,341.25,-321.29
735,1747592209750,-0.12,-1.86,-1.18,-10.13,341.25,-321.29
736,1747592209760,-0.12,-1.86,-1.18,-10.13,341.25,-321.29
737,1747592209770,-0.37,-1.89,-1.55,55.91,402.16,-298.77
738,1747592209780,-0.37,-1.89,-1.55,55.91,402.16,-298.77
739,1747592209790,-0.37,-1.89,-1.55,55.91,402.16,-298.77
740,1747592209800,-0.37,-1.89,-1.55,55.91,402.16,-298.77
741,1747592209810,-1.7,-2.16,-1.88,61.28,263.06,-179.32
742,1747592209820,-1.7,-2.16,-1.88,61.28,263.06,-179.32
743,1747592209830,-1.7,-2.16,-1.88,61.28,263.06,-179.32
744,1747592209840,-2.56,-2.16,-1.92,20.935,244.415,-157.165
745,1747592209850,-3.42,-2.16,-1.96,-19.41,225.77,-135.01
746,1747592209860,-3.42,-2.16,-1.96,-19.41,225.77,-135.01
747,1747592209870,-3.42,-2.16,-1.96,-19.41,225.77,-135.01
748,1747592209880,-4.045,-2.795,-2.045,20.200000000000003,87.92,-131.045
749,1747592209890,-4.67,-3.43,-2.13,59.81,-49.93,-127.08
750,1747592209900,-4.67,-3.43,-2.13,59.81,-49.93,-127.08
751,1747592209910,-4.67,-3.43,-2.13,59.81,-49.93,-127.08
752,1747592209920,-4.12,-3.8,-2.11,59.81,-49.93,-127.08
753,1747592209930,-3.57,-4.17,-2.09,142.15,-390.75,62.62
754,1747592209940,-3.57,-4.17,-2.09,142.15,-390.75,62.62
755,1747592209950,-3.57,-4.17,-2.09,142.15,-390.75,62.62
756,1747592209960,-2.915,-3.5,-2.0,59.355,-158.785,191.1
757,1747592209970,-2.26,-2.83,-1.91,-23.44,73.18,319.58
758,1747592209980,-2.26,-2.83,-1.91,-23.44,73.18,319.58
759,1747592209990,-2.26,-2.83,-1.91,-23.44,73.18,319.58
760,1747592210000,-1.13,-1.75,-1.33,-41.385,22.215000000000003,338.255
761,1747592210010,-1.13,-1.75,-1.33,-59.33,-28.75,356.93
762,1747592210020,-1.13,-1.75,-1.33,-59.33,-28.75,356.93
763,1747592210030,-1.13,-1.75,-1.33,-59.33,-28.75,356.93
764,1747592210040,-0.63,-1.47,-1.5,-62.74,-197.08,336.18
765,1747592210050,-0.63,-1.47,-1.5,-62.74,-197.08,336.18
766,1747592210060,-0.63,-1.47,-1.5,-62.74,-197.08,336.18
767,1747592210070,-0.63,-1.47,-1.5,-62.74,-197.08,336.18
768,1747592210080,-0.63,-1.47,-1.5,-62.74,-197.08,336.18
769,1747592210090,0.05,-1.8,-1.56,-96.68,-279.11,345.4
770,1747592210100,0.05,-1.8,-1.56,-96.68,-279.11,345.4
771,1747592210110,0.05,-1.8,-1.56,-96.68,-279.11,345.4
772,1747592210120,0.23,-1.82,-1.57,-31.49,-331.3,346.25
773,1747592210130,0.23,-1.82,-1.57,-31.49,-331.3,346.25
774,1747592210140,0.23,-1.82,-1.57,-31.49,-331.3,346.25
775,1747592210150,0.23,-1.82,-1.57,-31.49,-331.3,346.25
776,1747592210160,0.28,-1.99,-1.83,-62.74,-280.03,390.69
777,1747592210170,0.28,-1.99,-1.83,-62.74,-280.03,390.69
778,1747592210180,0.28,-1.99,-1.83,-62.74,-280.03,390.69
779,1747592210190,0.28,-1.99,-1.83,-62.74,-280.03,390.69
780,1747592210200,0.43,-1.93,-1.67,-75.62,-272.28,413.64
781,1747592210210,0.43,-1.93,-1.67,-75.62,-272.28,413.64
782,1747592210220,0.43,-1.93,-1.67,-75.62,-272.28,413.64
783,1747592210230,0.4649999999999999,-1.775,-1.565,-80.9,-266.635,410.83
784,1747592210240,0.5,-1.62,-1.46,-86.18,-260.99,408.02
785,1747592210250,0.5,-1.62,-1.46,-86.18,-260.99,408.02
786,1747592210260,0.5,-1.62,-1.46,-86.18,-260.99,408.02
787,1747592210270,0.81,-1.25,-0.99,-130.07,-194.58,353.94
788,1747592210280,0.81,-1.25,-0.99,-130.07,-194.58,353.94
789,1747592210290,0.81,-1.25,-0.99,-130.07,-194.58,353.94
790,1747592210300,0.81,-1.25,-0.99,-130.07,-194.58,353.94
791,1747592210310,1.22,-0.8049999999999999,-0.345,-148.04500000000002,-213.38,298.825
792,1747592210320,1.63,-0.36,0.3,-166.02,-232.18,243.71
793,1747592210330,1.63,-0.36,0.3,-166.02,-232.18,243.71
794,1747592210340,1.63,-0.36,0.3,-166.02,-232.18,243.71
795,1747592210350,4.39,0.65,1.78,-84.29,-216.125,208.83
796,1747592210360,4.39,0.65,1.78,-2.56,-200.07,173.95
797,1747592210370,4.39,0.65,1.78,-2.56,-200.07,173.95
798,1747592210380,4.39,0.65,1.78,-2.56,-200.07,173.95
799,1747592210390,5.23,1.24,2.03,-119.81,50.54,-42.85
800,1747592210400,5.23,1.24,2.03,-119.81,50.54,-42.85
801,1747592210410,5.23,1.24,2.03,-119.81,50.54,-42.85
802,1747592210420,5.23,1.24,2.03,-119.81,50.54,-42.85
803,1747592210430,2.92,-0.02,1.16,-103.76,284.61,-253.85
804,1747592210440,2.92,-0.02,1.16,-103.76,284.61,-253.85
805,1747592210450,2.92,-0.02,1.16,-103.76,284.61,-253.85
806,1747592210460,2.355,-0.535,0.4449999999999999,-67.75,376.435,-277.985
807,1747592210470,1.79,-1.05,-0.27,-31.74,468.26,-302.12
808,1747592210480,1.79,-1.05,-0.27,-31.74,468.26,-302.12
809,1747592210490,1.79,-1.05,-0.27,-31.74,468.26,-302.12
810,1747592210500,0.63,-2.05,-1.8,155.09,469.06,-327.88
811,1747592210510,0.63,-2.05,-1.8,155.09,469.06,-327.88
812,1747592210520,0.63,-2.05,-1.8,155.09,469.06,-327.88
813,1747592210530,0.63,-2.05,-1.8,155.09,469.06,-327.88
814,1747592210540,0.32,-2.24,-2.63,162.05,368.47,-351.14
815,1747592210550,0.32,-2.24,-2.63,162.05,368.47,-351.14
816,1747592210560,0.32,-2.24,-2.63,162.05,368.47,-351.14
817,1747592210570,0.32,-2.24,-2.63,162.05,368.47,-351.14
818,1747592210580,0.07,-2.2,-2.57,125.61,316.5,-363.65
819,1747592210590,-0.18,-2.16,-2.51,89.17,264.53,-376.16
820,1747592210600,-0.18,-2.16,-2.51,89.17,264.53,-376.16
821,1747592210610,-0.18,-2.16,-2.51,89.17,264.53,-376.16
822,1747592210620,-0.09,-1.85,-2.03,18.86,172.06,-383.79
823,1747592210630,-0.09,-1.85,-2.03,18.86,172.06,-383.79
824,1747592210640,-0.09,-1.85,-2.03,18.86,172.06,-383.79
825,1747592210650,-0.09,-1.85,-2.03,18.86,172.06,-383.79
826,1747592210660,-0.39,-1.66,-1.71,-25.45,251.28,-335.75
827,1747592210670,-0.39,-1.66,-1.71,-25.45,251.28,-335.75
828,1747592210680,-0.39,-1.66,-1.71,-25.45,251.28,-335.75
829,1747592210690,-0.525,-1.665,-1.655,-25.45,251.28,-335.75
830,1747592210700,-0.66,-1.67,-1.6,-27.16,304.2,-259.46
831,1747592210710,-0.66,-1.67,-1.6,-27.16,304.2,-259.46
832,1747592210720,-0.66,-1.67,-1.6,-27.16,304.2,-259.46
833,1747592210730,-1.34,-1.65,-1.42,-18.645,264.07,-210.51
834,1747592210740,-2.02,-1.63,-1.24,-10.13,223.94,-161.56
835,1747592210750,-2.02,-1.63,-1.24,-10.13,223.94,-161.56
836,1747592210760,-2.02,-1.63,-1.24,-10.13,223.94,-161.56
837,1747592210770,-2.37,-1.61,-1.1949999999999998,-3.875,327.515,-81.97
838,1747592210780,-2.72,-1.59,-1.15,2.38,431.09,-2.38
839,1747592210790,-2.72,-1.59,-1.15,2.38,431.09,-2.38
840,1747592210800,-2.72,-1.59,-1.15,2.38,431.09,-2.38
841,1747592210810,-3.68,-2.48,-2.55,64.91,323.455,-57.92
842,1747592210820,-3.68,-2.48,-2.55,127.44,215.82,-113.46
843,1747592210830,-3.68,-2.48,-2.55,127.44,215.82,-113.46
844,1747592210840,-3.68,-2.48,-2.55,127.44,215.82,-113.46
845,1747592210850,-4.42,-3.82,-2.97,114.32,-325.56,-70.13
846,1747592210860,-4.42,-3.82,-2.97,114.32,-325.56,-70.13
847,1747592210870,-4.42,-3.82,-2.97,114.32,-325.56,-70.13
848,1747592210880,-3.365,-3.235,-2.5250000000000004,114.32,-325.56,-70.13
849,1747592210890,-2.31,-2.65,-2.08,-91.86,79.71,298.83
850,1747592210900,-2.31,-2.65,-2.08,-91.86,79.71,298.83
851,1747592210910,-2.31,-2.65,-2.08,-91.86,79.71,298.83
852,1747592210920,-1.855,-2.12,-1.85,-82.37,-10.315000000000005,291.84000000000003
853,1747592210930,-1.4,-1.59,-1.62,-72.88,-100.34,284.85
854,1747592210940,-1.4,-1.59,-1.62,-72.88,-100.34,284.85
855,1747592210950,-1.4,-1.59,-1.62,-72.88,-100.34,284.85
856,1747592210960,-1.4,-1.59,-1.62,-72.88,-100.34,284.85
857,1747592210970,-0.96,-1.3,-1.46,-70.19,-208.37,255.86
858,1747592210980,-0.96,-1.3,-1.46,-70.19,-208.37,255.86
859,1747592210990,-0.96,-1.3,-1.46,-70.19,-208.37,255.86
860,1747592211000,-0.62,-1.425,-1.46,-70.19,-208.37,255.86
861,1747592211010,-0.28,-1.55,-1.46,-79.71,-262.57,300.11
862,1747592211020,-0.28,-1.55,-1.46,-79.71,-262.57,300.11
863,1747592211030,-0.28,-1.55,-1.46,-79.71,-262.57,300.11
864,1747592211040,0.0549999999999999,-1.565,-1.46,-87.525,-270.72,308.165
865,1747592211050,0.39,-1.58,-1.46,-95.34,-278.87,316.22
866,1747592211060,0.39,-1.58,-1.46,-95.34,-278.87,316.22
867,1747592211070,0.39,-1.58,-1.46,-95.34,-278.87,316.22
868,1747592211080,0.43,-1.72,-1.37,-93.875,-288.24,315.55
869,1747592211090,0.43,-1.72,-1.37,-92.41,-297.61,314.88
870,1747592211100,0.43,-1.72,-1.37,-92.41,-297.61,314.88
871,1747592211110,0.43,-1.72,-1.37,-92.41,-297.61,314.88
872,1747592211120,0.4,-1.8,-1.57,-65.98,-304.44,372.68
873,1747592211130,0.4,-1.8,-1.57,-65.98,-304.44,372.68
874,1747592211140,0.4,-1.8,-1.57,-65.98,-304.44,372.68
875,1747592211150,0.4,-1.8,-1.57,-65.98,-304.44,372.68
876,1747592211160,0.42,-1.68,-1.46,-86.43,-310.67,370.0
877,1747592211170,0.42,-1.68,-1.46,-86.43,-310.67,370.0
878,1747592211180,0.42,-1.68,-1.46,-86.43,-310.67,370.0
879,1747592211190,0.48,-1.485,-1.29,-86.43,-310.67,370.0
880,1747592211200,0.54,-1.29,-1.12,-68.91,-283.94,360.23
881,1747592211210,0.54,-1.29,-1.12,-68.91,-283.94,360.23
882,1747592211220,0.54,-1.29,-1.12,-68.91,-283.94,360.23
883,1747592211230,1.17,-0.73,-0.33,-116.88,-244.32,304.63
884,1747592211240,1.17,-0.73,-0.33,-116.88,-244.32,304.63
885,1747592211250,1.17,-0.73,-0.33,-116.88,-244.32,304.63
886,1747592211260,2.12,-0.1399999999999999,0.5549999999999999,-116.88,-244.32,304.63
887,1747592211270,3.07,0.45,1.44,-35.22,-221.5,210.69
888,1747592211280,3.07,0.45,1.44,-35.22,-221.5,210.69
889,1747592211290,3.07,0.45,1.44,-35.22,-221.5,210.69
890,1747592211300,4.13,1.24,1.465,-28.625,-156.405,127.285
891,1747592211310,5.19,2.03,1.49,-22.03,-91.31,43.88
892,1747592211320,5.19,2.03,1.49,-22.03,-91.31,43.88
893,1747592211330,5.19,2.03,1.49,-22.03,-91.31,43.88
894,1747592211340,4.575,1.47,1.66,-22.03,-91.31,43.88
895,1747592211350,3.96,0.91,1.83,-132.63,181.4,-286.32
896,1747592211360,3.96,0.91,1.83,-132.63,181.4,-286.32
897,1747592211370,3.96,0.91,1.83,-132.63,181.4,-286.32
898,1747592211380,3.255,0.225,1.105,-96.525,291.87,-332.89
899,1747592211390,2.55,-0.46,0.38,-60.42,402.34,-379.46
900,1747592211400,2.55,-0.46,0.38,-60.42,402.34,-379.46
901,1747592211410,2.55,-0.46,0.38,-60.42,402.34,-379.46
902,1747592211420,1.34,-2.2,-1.49,12.515,462.705,-396.09
903,1747592211430,1.34,-2.2,-1.49,85.45,523.07,-412.72
904,1747592211440,1.34,-2.2,-1.49,85.45,523.07,-412.72
905,1747592211450,1.34,-2.2,-1.49,85.45,523.07,-412.72
906,1747592211460,0.57,-2.83,-2.79,202.21,412.9,-387.7
907,1747592211470,0.57,-2.83,-2.79,202.21,412.9,-387.7
908,1747592211480,0.57,-2.83,-2.79,202.21,412.9,-387.7
909,1747592211490,0.57,-2.83,-2.79,202.21,412.9,-387.7
910,1747592211500,0.13,-2.52,-2.59,94.48,307.92,-399.17
911,1747592211510,0.13,-2.52,-2.59,94.48,307.92,-399.17
912,1747592211520,0.13,-2.52,-2.59,94.48,307.92,-399.17
913,1747592211530,0.13,-2.52,-2.59,94.48,307.92,-399.17
914,1747592211540,0.07,-1.98,-1.97,33.2,247.19,-362.18
915,1747592211550,0.07,-1.98,-1.97,33.2,247.19,-362.18
916,1747592211560,0.07,-1.98,-1.97,33.2,247.19,-362.18
917,1747592211570,0.07,-1.98,-1.97,33.2,247.19,-362.18
918,1747592211580,0.07,-1.98,-1.97,33.2,247.19,-362.18
919,1747592211590,0.17,-1.71,-1.76,-25.51,291.69,-331.73
920,1747592211600,0.17,-1.71,-1.76,-25.51,291.69,-331.73
921,1747592211610,-0.0949999999999999,-1.66,-1.66,-28.32,339.02,-295.015
922,1747592211620,-0.36,-1.61,-1.56,-31.13,386.35,-258.3
923,1747592211630,-0.36,-1.61,-1.56,-31.13,386.35,-258.3
924,1747592211640,-0.36,-1.61,-1.56,-31.13,386.35,-258.3
925,1747592211650,-1.48,-1.25,-1.89,-19.53,360.535,-201.17
926,1747592211660,-1.48,-1.25,-1.89,-7.93,334.72,-144.04
927,1747592211670,-1.48,-1.25,-1.89,-7.93,334.72,-144.04
928,1747592211680,-1.48,-1.25,-1.89,-7.93,334.72,-144.04
929,1747592211690,-1.605,-1.41,-1.99,-16.965,324.405,-85.47999999999999
930,1747592211700,-1.73,-1.57,-2.09,-26.0,314.09,-26.92
931,1747592211710,-1.73,-1.57,-2.09,-26.0,314.09,-26.92
932,1747592211720,-1.73,-1.57,-2.09,-26.0,314.09,-26.92
933,1747592211730,-2.91,-1.28,-2.49,-7.45,209.59,-54.02
934,1747592211740,-2.91,-1.28,-2.49,-7.45,209.59,-54.02
935,1747592211750,-2.91,-1.28,-2.49,-7.45,209.59,-54.02
936,1747592211760,-2.91,-1.28,-2.49,-7.45,209.59,-54.02
937,1747592211770,-3.34,-3.33,-3.81,94.3,-244.57,1.16
938,1747592211780,-3.34,-3.33,-3.81,94.3,-244.57,1.16
939,1747592211790,-3.34,-3.33,-3.81,94.3,-244.57,1.16
940,1747592211800,-2.425,-3.02,-3.625,94.3,-244.57,1.16
941,1747592211810,-1.51,-2.71,-3.44,-7.26,-150.21,169.92
942,1747592211820,-1.51,-2.71,-3.44,-7.26,-150.21,169.92
943,1747592211830,-1.51,-2.71,-3.44,-7.26,-150.21,169.92
944,1747592211840,-1.13,-2.32,-2.98,-78.675,-103.15,207.795
945,1747592211850,-0.75,-1.93,-2.52,-150.09,-56.09,245.67
946,1747592211860,-0.75,-1.93,-2.52,-150.09,-56.09,245.67
947,1747592211870,-0.75,-1.93,-2.52,-150.09,-56.09,245.67
948,1747592211880,-0.52,-1.3,-2.06,-91.86,-263.12,176.33
949,1747592211890,-0.52,-1.3,-2.06,-91.86,-263.12,176.33
950,1747592211900,-0.52,-1.3,-2.06,-91.86,-263.12,176.33
951,1747592211910,-0.52,-1.3,-2.06,-91.86,-263.12,176.33
952,1747592211920,-0.44,-1.235,-1.82,-109.775,-292.48,193.54
953,1747592211930,-0.36,-1.17,-1.58,-127.69,-321.84,210.75
954,1747592211940,-0.36,-1.17,-1.58,-127.69,-321.84,210.75
955,1747592211950,-0.36,-1.17,-1.58,-127.69,-321.84,210.75
956,1747592211960,-0.0649999999999999,-1.1949999999999998,-1.435,-134.22,-340.64,239.96
957,1747592211970,0.23,-1.22,-1.29,-140.75,-359.44,269.17
958,1747592211980,0.23,-1.22,-1.29,-140.75,-359.44,269.17
959,1747592211990,0.23,-1.22,-1.29,-140.75,-359.44,269.17
960,1747592212000,0.58,-1.3,-1.31,-134.46,-331.73,284.85
961,1747592212010,0.58,-1.3,-1.31,-134.46,-331.73,284.85
962,1747592212020,0.58,-1.3,-1.31,-134.46,-331.73,284.85
963,1747592212030,0.58,-1.3,-1.31,-134.46,-331.73,284.85
964,1747592212040,0.48,-1.44,-1.44,-123.54,-307.07,298.58
965,1747592212050,0.48,-1.44,-1.44,-123.54,-307.07,298.58
966,1747592212060,0.48,-1.44,-1.44,-123.54,-307.07,298.58
967,1747592212070,0.48,-1.44,-1.44,-123.54,-307.07,298.58
968,1747592212080,0.57,-1.48,-1.39,-138.24,-323.91,328.37
969,1747592212090,0.57,-1.48,-1.39,-138.24,-323.91,328.37
970,1747592212100,0.57,-1.48,-1.39,-138.24,-323.91,328.37
971,1747592212110,0.57,-1.48,-1.39,-138.24,-323.91,328.37
972,1747592212120,0.47,-1.51,-1.38,-161.74,-259.46,335.21
973,1747592212130,0.47,-1.51,-1.38,-161.74,-259.46,335.21
974,1747592212140,0.47,-1.51,-1.38,-161.74,-259.46,335.21
975,1747592212150,0.87,-1.02,-0.48,-161.74,-259.46,335.21
976,1747592212160,0.87,-1.02,-0.48,-272.22,-146.97,327.45
977,1747592212170,0.87,-1.02,-0.48,-272.22,-146.97,327.45
978,1747592212180,0.87,-1.02,-0.48,-272.22,-146.97,327.45
979,1747592212190,1.41,-0.67,0.8400000000000001,-235.69,-178.68,264.92
980,1747592212200,1.95,-0.32,2.16,-199.16,-210.39,202.39
981,1747592212210,1.95,-0.32,2.16,-199.16,-210.39,202.39
982,1747592212220,1.95,-0.32,2.16,-199.16,-210.39,202.39
983,1747592212230,1.95,-0.32,2.16,-199.16,-210.39,202.39
984,1747592212240,1.95,-0.32,2.16,-199.16,-210.39,202.39
985,1747592212250,2.96,0.21,3.04,71.29,-154.36,150.51
986,1747592212260,2.96,0.21,3.04,71.29,-154.36,150.51
987,1747592212270,3.74,0.92,2.72,84.53,21.0,-21.24
988,1747592212280,3.74,0.92,2.72,84.53,21.0,-21.24
989,1747592212290,3.74,0.92,2.72,84.53,21.0,-21.24
990,1747592212300,3.74,0.92,2.72,84.53,21.0,-21.24
991,1747592212310,2.92,0.07,1.76,54.14,282.41,-247.92
992,1747592212320,2.92,0.07,1.76,54.14,282.41,-247.92
993,1747592212330,2.92,0.07,1.76,54.14,282.41,-247.92
994,1747592212340,2.92,0.07,1.76,54.14,282.41,-247.92
995,1747592212350,2.17,-1.09,-0.11,142.09,497.07,-357.67
996,1747592212360,2.17,-1.09,-0.11,142.09,497.07,-357.67
997,1747592212370,2.17,-1.09,-0.11,142.09,497.07,-357.67
998,1747592212380,1.81,-1.56,-1.0699999999999998,243.38,480.895,-341.31
999,1747592212390,1.45,-2.03,-2.03,344.67,464.72,-324.95
1000,1747592212400,1.45,-2.03,-2.03,344.67,464.72,-324.95
