id,timestamp,acc_x,acc_y,acc_z,gyro_x,gyro_y,gyro_z
0,1747401047900,2.24,0.88,1.48,163.7,46.39,-151.98
1,1747401047910,2.24,0.88,1.48,163.7,46.39,-151.98
2,1747401047920,2.73,0.75,2.02,157.29,34.42,-45.23
3,1747401047930,,,,,,
4,1747401047940,2.73,0.75,2.02,157.29,34.42,-45.23
5,1747401047950,2.73,0.75,2.02,157.29,34.42,-45.23
6,1747401047960,1.89,0.26,1.76,-2.75,118.96,-10.07
7,1747401047970,1.89,0.26,1.76,-2.75,118.96,-10.07
8,1747401047980,1.89,0.26,1.76,-2.75,118.96,-10.07
9,1747401047990,1.89,0.26,1.76,-2.75,118.96,-10.07
10,1747401048000,1.25,0.05,0.99,-69.82,-50.42,27.77
11,1747401048010,1.25,0.05,0.99,-69.82,-50.42,27.77
12,1747401048020,1.25,0.05,0.99,-69.82,-50.42,27.77
13,1747401048030,1.25,0.05,0.99,-69.82,-50.42,27.77
14,1747401048040,1.04,0.13,0.56,-208.37,-4.39,62.81
15,1747401048050,1.04,0.13,0.56,-208.37,-4.39,62.81
16,1747401048060,1.04,0.13,0.56,-208.37,-4.39,62.81
17,1747401048070,1.04,0.13,0.56,-208.37,-4.39,62.81
18,1747401048080,0.66,0.13,0.25,-312.13,15.08,122.99
19,1747401048090,0.66,0.13,0.25,-312.13,15.08,122.99
20,1747401048100,0.66,0.13,0.25,-312.13,15.08,122.99
21,1747401048110,0.5,0.47,0.22,-315.12,17.58,179.14
22,1747401048120,0.5,0.47,0.22,-315.12,17.58,179.14
23,1747401048130,0.5,0.47,0.22,-315.12,17.58,179.14
24,1747401048140,0.5,0.47,0.22,-315.12,17.58,179.14
25,1747401048150,0.57,0.59,0.37,-317.57,-54.5,173.89
26,1747401048160,0.57,0.59,0.37,-317.57,-54.5,173.89
27,1747401048170,0.57,0.59,0.37,-317.57,-54.5,173.89
28,1747401048180,0.57,0.59,0.37,-317.57,-54.5,173.89
29,1747401048190,0.72,0.28,0.43,-250.67,-62.99,168.76
30,1747401048200,0.72,0.28,0.43,-250.67,-62.99,168.76
31,1747401048210,0.72,0.28,0.43,-250.67,-62.99,168.76
32,1747401048220,0.755,0.44,0.545,-250.67,-62.99,168.76
33,1747401048230,0.79,0.6,0.66,-129.39,-162.29,129.27
34,1747401048240,0.79,0.6,0.66,-129.39,-162.29,129.27
35,1747401048250,0.79,0.6,0.66,-129.39,-162.29,129.27
36,1747401048260,0.79,0.6,0.66,-129.39,-162.29,129.27
37,1747401048270,0.99,0.76,0.48,-37.78,-66.22,38.7
38,1747401048280,0.99,0.76,0.48,-37.78,-66.22,38.7
39,1747401048290,0.99,0.76,0.48,-37.78,-66.22,38.7
40,1747401048300,0.99,0.76,0.48,-37.78,-66.22,38.7
41,1747401048310,0.67,0.88,0.18,42.54,37.54,-40.65
42,1747401048320,0.67,0.88,0.18,42.54,37.54,-40.65
43,1747401048330,0.67,0.88,0.18,42.54,37.54,-40.65
44,1747401048340,0.67,0.88,0.18,42.54,37.54,-40.65
45,1747401048350,0.24,0.69,0.05,97.66,54.57,-123.6
46,1747401048360,0.24,0.69,0.05,97.66,54.57,-123.6
47,1747401048370,0.24,0.69,0.05,97.66,54.57,-123.6
48,1747401048380,0.24,0.69,0.05,97.66,54.57,-123.6
49,1747401048390,0.26,0.78,0.06,154.85,-5.43,-184.57
50,1747401048400,0.26,0.78,0.06,154.85,-5.43,-184.57
51,1747401048410,0.26,0.78,0.06,154.85,-5.43,-184.57
52,1747401048420,0.37,0.82,0.05,154.85,-5.43,-184.57
53,1747401048430,0.37,0.82,0.05,160.34,1.53,-195.37
54,1747401048440,0.37,0.82,0.05,160.34,1.53,-195.37
55,1747401048450,0.37,0.82,0.05,160.34,1.53,-195.37
56,1747401048460,0.34,0.88,-0.01,160.005,33.39,-186.705
57,1747401048470,0.34,0.88,-0.01,159.67,65.25,-178.04
58,1747401048480,0.34,0.88,-0.01,159.67,65.25,-178.04
59,1747401048490,0.34,0.88,-0.01,159.67,65.25,-178.04
60,1747401048500,0.46,0.9,0.29,183.41,100.52,-180.05
61,1747401048510,0.46,0.9,0.29,183.41,100.52,-180.05
62,1747401048520,0.46,0.9,0.29,183.41,100.52,-180.05
63,1747401048530,0.82,0.905,0.575,188.75,94.115,-187.01
64,1747401048540,1.18,0.91,0.86,194.09,87.71,-193.97
65,1747401048550,1.18,0.91,0.86,194.09,87.71,-193.97
66,1747401048560,1.18,0.91,0.86,194.09,87.71,-193.97
67,1747401048570,2.0,0.59,1.63,218.02,54.99,-134.46
68,1747401048580,2.0,0.59,1.63,218.02,54.99,-134.46
69,1747401048590,2.0,0.59,1.63,218.02,54.99,-134.46
70,1747401048600,2.0,0.59,1.63,218.02,54.99,-134.46
71,1747401048610,2.63,0.32,2.0,111.45,11.47,-57.43
72,1747401048620,2.63,0.32,2.0,111.45,11.47,-57.43
73,1747401048630,2.63,0.32,2.0,111.45,11.47,-57.43
74,1747401048640,2.63,0.32,2.0,111.45,11.47,-57.43
75,1747401048650,2.48,0.06,1.83,-6.71,44.01,51.94
76,1747401048660,2.48,0.06,1.83,-6.71,44.01,51.94
77,1747401048670,2.48,0.06,1.83,-6.71,44.01,51.94
78,1747401048680,,,,,,
79,1747401048690,1.65,0.18,1.25,-132.93,-16.3,101.2
80,1747401048700,1.65,0.18,1.25,-132.93,-16.3,101.2
81,1747401048710,1.65,0.18,1.25,-132.93,-16.3,101.2
82,1747401048720,1.65,0.18,1.25,-132.93,-16.3,101.2
83,1747401048730,1.27,0.23,0.71,-205.99,-72.75,133.12
84,1747401048740,1.27,0.23,0.71,-205.99,-72.75,133.12
85,1747401048750,1.27,0.23,0.71,-205.99,-72.75,133.12
86,1747401048760,1.27,0.23,0.71,-205.99,-72.75,133.12
87,1747401048770,0.96,0.49,0.44,-249.82,-58.17,181.76
88,1747401048780,0.96,0.49,0.44,-249.82,-58.17,181.76
89,1747401048790,0.96,0.49,0.44,-249.82,-58.17,181.76
90,1747401048800,0.73,0.61,0.23,-249.82,-58.17,181.76
91,1747401048810,0.73,0.61,0.23,-265.38,-84.23,226.2
92,1747401048820,0.73,0.61,0.23,-265.38,-84.23,226.2
93,1747401048830,0.73,0.61,0.23,-265.38,-84.23,226.2
94,1747401048840,0.67,0.64,0.33,-265.38,-84.23,226.2
95,1747401048850,0.67,0.64,0.33,-219.85,-77.21,238.59
96,1747401048860,0.67,0.64,0.33,-219.85,-77.21,238.59
97,1747401048870,0.67,0.64,0.33,-219.85,-77.21,238.59
98,1747401048880,0.66,0.66,0.49,-199.46,-133.12,223.63
99,1747401048890,0.66,0.66,0.49,-199.46,-133.12,223.63
100,1747401048900,0.66,0.66,0.49,-199.46,-133.12,223.63
101,1747401048910,0.66,0.66,0.49,-199.46,-133.12,223.63
102,1747401048920,0.79,0.71,0.48,-163.145,-133.21,201.78
103,1747401048930,0.79,0.71,0.48,-126.83,-133.3,179.93
104,1747401048940,0.79,0.71,0.48,-126.83,-133.3,179.93
105,1747401048950,0.79,0.71,0.48,-126.83,-133.3,179.93
106,1747401048960,0.79,0.81,0.32,-67.2,-49.87,90.7
107,1747401048970,0.79,0.81,0.32,-67.2,-49.87,90.7
108,1747401048980,0.79,0.81,0.32,-67.2,-49.87,90.7
109,1747401048990,0.79,0.81,0.32,-67.2,-49.87,90.7
110,1747401049000,0.64,0.73,0.16,14.77,49.44,-6.77
111,1747401049010,0.64,0.73,0.16,14.77,49.44,-6.77
112,1747401049020,0.64,0.73,0.16,14.77,49.44,-6.77
113,1747401049030,0.45,0.7050000000000001,0.11,53.16,71.75,-52.03
114,1747401049040,0.26,0.68,0.06,91.55,94.06,-97.29
115,1747401049050,0.26,0.68,0.06,91.55,94.06,-97.29
116,1747401049060,0.26,0.68,0.06,91.55,94.06,-97.29
117,1747401049070,0.26,0.7,0.075,122.04,73.975,-143.645
118,1747401049080,0.26,0.72,0.09,152.53,53.89,-190.0
119,1747401049090,0.26,0.72,0.09,152.53,53.89,-190.0
120,1747401049100,0.26,0.72,0.09,152.53,53.89,-190.0
121,1747401049110,0.47,0.87,0.24,195.92,33.51,-229.13
122,1747401049120,0.47,0.87,0.24,195.92,33.51,-229.13
123,1747401049130,0.47,0.87,0.24,195.92,33.51,-229.13
124,1747401049140,0.47,0.87,0.24,195.92,33.51,-229.13
125,1747401049150,0.56,0.57,0.34,160.4,81.42,-205.2
126,1747401049160,0.56,0.57,0.34,160.4,81.42,-205.2
127,1747401049170,0.56,0.57,0.34,160.4,81.42,-205.2
128,1747401049180,0.56,0.57,0.34,160.4,81.42,-205.2
129,1747401049190,0.56,0.46,0.29,182.19,161.25,-169.62
130,1747401049200,0.56,0.46,0.29,182.19,161.25,-169.62
131,1747401049210,0.56,0.46,0.29,182.19,161.25,-169.62
132,1747401049220,0.56,0.46,0.29,182.19,161.25,-169.62
133,1747401049230,0.8,0.42,0.65,202.15,160.77,-140.87
134,1747401049240,0.8,0.42,0.65,202.15,160.77,-140.87
135,1747401049250,0.8,0.42,0.65,202.15,160.77,-140.87
136,1747401049260,1.205,0.305,0.965,197.085,97.81,-128.02
137,1747401049270,1.61,0.19,1.28,192.02,34.85,-115.17
138,1747401049280,1.61,0.19,1.28,192.02,34.85,-115.17
139,1747401049290,1.61,0.19,1.28,192.02,34.85,-115.17
140,1747401049300,2.12,0.11,1.57,172.61,6.530000000000001,-79.07
141,1747401049310,2.63,0.03,1.86,153.2,-21.79,-42.97
142,1747401049320,2.63,0.03,1.86,153.2,-21.79,-42.97
143,1747401049330,2.63,0.03,1.86,153.2,-21.79,-42.97
144,1747401049340,2.66,0.01,2.36,115.115,46.295,12.329999999999998
145,1747401049350,2.66,0.01,2.36,77.03,114.38,67.63
146,1747401049360,2.66,0.01,2.36,77.03,114.38,67.63
147,1747401049370,2.66,0.01,2.36,77.03,114.38,67.63
148,1747401049380,1.99,0.28,2.09,-24.17,78.065,77.18
149,1747401049390,1.99,0.28,2.09,-125.37,41.75,86.73
150,1747401049400,1.99,0.28,2.09,-125.37,41.75,86.73
151,1747401049410,1.51,0.35,1.36,-232.3,-43.58,91.37
152,1747401049420,1.51,0.35,1.36,-232.3,-43.58,91.37
153,1747401049430,1.51,0.35,1.36,-232.3,-43.58,91.37
154,1747401049440,1.51,0.35,1.36,-232.3,-43.58,91.37
155,1747401049450,1.07,0.44,0.68,-293.7,-94.3,121.83
156,1747401049460,1.07,0.44,0.68,-293.7,-94.3,121.83
157,1747401049470,1.07,0.44,0.68,-293.7,-94.3,121.83
158,1747401049480,0.89,0.525,0.49,-305.45,-78.52,137.82
159,1747401049490,0.71,0.61,0.3,-317.2,-62.74,153.81
160,1747401049500,0.71,0.61,0.3,-317.2,-62.74,153.81
161,1747401049510,0.71,0.61,0.3,-317.2,-62.74,153.81
162,1747401049520,0.52,0.675,0.25,-310.15,-51.510000000000005,162.66
163,1747401049530,0.33,0.74,0.2,-303.1,-40.28,171.51
164,1747401049540,0.33,0.74,0.2,-303.1,-40.28,171.51
165,1747401049550,0.33,0.74,0.2,-303.1,-40.28,171.51
166,1747401049560,0.32,0.675,0.22,-287.935,-53.465,156.25
167,1747401049570,0.31,0.61,0.24,-272.77,-66.65,140.99
168,1747401049580,0.31,0.61,0.24,-272.77,-66.65,140.99
169,1747401049590,0.31,0.61,0.24,-272.77,-66.65,140.99
170,1747401049600,0.44,0.48,0.32,-237.06,-91.67,123.78
171,1747401049610,0.44,0.48,0.32,-237.06,-91.67,123.78
172,1747401049620,0.44,0.48,0.32,-237.06,-91.67,123.78
173,1747401049630,0.54,0.47,0.345,-201.05,-103.665,95.305
174,1747401049640,0.64,0.46,0.37,-165.04,-115.66,66.83
175,1747401049650,0.64,0.46,0.37,-165.04,-115.66,66.83
176,1747401049660,0.64,0.46,0.37,-165.04,-115.66,66.83
177,1747401049670,0.6799999999999999,0.485,0.305,-107.21,-87.095,50.23
178,1747401049680,0.72,0.51,0.24,-49.38,-58.53,33.63
179,1747401049690,0.72,0.51,0.24,-49.38,-58.53,33.63
180,1747401049700,0.72,0.51,0.24,-49.38,-58.53,33.63
181,1747401049710,0.625,0.53,0.1699999999999999,10.77,18.035,-3.389999999999997
182,1747401049720,0.53,0.55,0.1,70.92,94.6,-40.41
183,1747401049730,0.53,0.55,0.1,70.92,94.6,-40.41
184,1747401049740,0.53,0.55,0.1,70.92,94.6,-40.41
185,1747401049750,0.19,0.55,0.06,169.31,140.2,-130.25
186,1747401049760,0.19,0.55,0.06,169.31,140.2,-130.25
187,1747401049770,0.19,0.55,0.06,169.31,140.2,-130.25
188,1747401049780,0.19,0.55,0.06,169.31,140.2,-130.25
189,1747401049790,0.41,0.88,0.29,284.06,81.05,-206.12
190,1747401049800,0.41,0.88,0.29,284.06,81.05,-206.12
191,1747401049810,0.41,0.88,0.29,284.06,81.05,-206.12
192,1747401049820,0.41,0.88,0.29,284.06,81.05,-206.12
193,1747401049830,0.74,1.01,0.55,265.56,-16.78,-215.03
194,1747401049840,0.74,1.01,0.55,265.56,-16.78,-215.03
195,1747401049850,0.74,1.01,0.55,265.56,-16.78,-215.03
196,1747401049860,0.74,1.01,0.55,265.56,-16.78,-215.03
197,1747401049870,0.74,1.01,0.55,265.56,-16.78,-215.03
198,1747401049880,0.96,0.78,0.4,196.17,41.93,-214.17
199,1747401049890,0.96,0.78,0.4,196.17,41.93,-214.17
200,1747401049900,0.96,0.78,0.4,196.17,41.93,-214.17
201,1747401049910,0.78,0.59,0.48,204.96,82.89,-173.71
202,1747401049920,0.78,0.59,0.48,204.96,82.89,-173.71
203,1747401049930,0.78,0.59,0.48,204.96,82.89,-173.71
204,1747401049940,1.02,0.43,0.74,204.96,82.89,-173.71
205,1747401049950,1.02,0.43,0.74,184.81,21.0,-154.36
206,1747401049960,1.02,0.43,0.74,184.81,21.0,-154.36
207,1747401049970,1.02,0.43,0.74,184.81,21.0,-154.36
208,1747401049980,1.42,0.25,1.08,193.175,20.630000000000003,-135.68
209,1747401049990,1.82,0.07,1.42,201.54,20.26,-117.0
210,1747401050000,1.82,0.07,1.42,201.54,20.26,-117.0
211,1747401050010,1.82,0.07,1.42,201.54,20.26,-117.0
212,1747401050020,1.82,0.07,1.42,201.54,20.26,-117.0
213,1747401050030,2.56,0.1,2.06,76.6,-34.36,-42.42
214,1747401050040,2.56,0.1,2.06,76.6,-34.36,-42.42
215,1747401050050,,,,,,
216,1747401050060,2.67,0.04,1.89,-44.07,21.55,64.82
217,1747401050070,2.67,0.04,1.89,-44.07,21.55,64.82
218,1747401050080,2.67,0.04,1.89,-44.07,21.55,64.82
219,1747401050090,2.67,0.04,1.89,-44.07,21.55,64.82
220,1747401050100,1.94,0.39,1.51,-161.07,12.39,119.69
221,1747401050110,1.94,0.39,1.51,-161.07,12.39,119.69
222,1747401050120,1.94,0.39,1.51,-161.07,12.39,119.69
223,1747401050130,1.36,0.5,0.87,-161.07,12.39,119.69
224,1747401050140,1.36,0.5,0.87,-257.14,-54.08,130.0
225,1747401050150,1.36,0.5,0.87,-257.14,-54.08,130.0
226,1747401050160,1.36,0.5,0.87,-257.14,-54.08,130.0
227,1747401050170,1.185,0.5549999999999999,0.63,-271.73,-81.055,148.07
228,1747401050180,1.01,0.61,0.39,-286.32,-108.03,166.14
229,1747401050190,1.01,0.61,0.39,-286.32,-108.03,166.14
230,1747401050200,1.01,0.61,0.39,-286.32,-108.03,166.14
231,1747401050210,0.69,0.67,0.19,-285.58500000000004,-108.55,190.735
232,1747401050220,0.69,0.67,0.19,-284.85,-109.07,215.33
233,1747401050230,0.69,0.67,0.19,-284.85,-109.07,215.33
234,1747401050240,0.69,0.67,0.19,-284.85,-109.07,215.33
235,1747401050250,0.43,0.64,0.2,-230.04,-91.8,223.88
236,1747401050260,0.43,0.64,0.2,-230.04,-91.8,223.88
237,1747401050270,0.43,0.64,0.2,-230.04,-91.8,223.88
238,1747401050280,0.43,0.64,0.2,-230.04,-91.8,223.88
239,1747401050290,0.33,0.56,0.24,-173.89,-92.71,191.47
240,1747401050300,0.33,0.56,0.24,-173.89,-92.71,191.47
241,1747401050310,0.33,0.56,0.24,-173.89,-92.71,191.47
242,1747401050320,0.33,0.56,0.24,-173.89,-92.71,191.47
243,1747401050330,0.37,0.62,0.32,-104.13,-130.0,115.11
244,1747401050340,0.37,0.62,0.32,-104.13,-130.0,115.11
245,1747401050350,0.37,0.62,0.32,-104.13,-130.0,115.11
246,1747401050360,0.515,0.6699999999999999,0.295,-72.63499999999999,-141.325,90.79
247,1747401050370,0.66,0.72,0.27,-41.14,-152.65,66.47
248,1747401050380,0.66,0.72,0.27,-41.14,-152.65,66.47
249,1747401050390,0.66,0.72,0.27,-41.14,-152.65,66.47
250,1747401050400,0.66,0.72,0.27,-41.14,-152.65,66.47
251,1747401050410,0.61,0.77,0.19,35.83,27.83,-19.04
252,1747401050420,0.61,0.77,0.19,35.83,27.83,-19.04
253,1747401050430,0.61,0.77,0.19,35.83,27.83,-19.04
254,1747401050440,0.43,0.7250000000000001,0.135,65.4,83.19,-66.8
255,1747401050450,0.25,0.68,0.08,94.97,138.55,-114.56
256,1747401050460,0.25,0.68,0.08,94.97,138.55,-114.56
257,1747401050470,0.25,0.68,0.08,94.97,138.55,-114.56
258,1747401050480,0.32,0.72,0.17,182.62,99.43,-208.37
259,1747401050490,0.32,0.72,0.17,182.62,99.43,-208.37
260,1747401050500,0.32,0.72,0.17,182.62,99.43,-208.37
261,1747401050510,0.32,0.72,0.17,182.62,99.43,-208.37
262,1747401050520,0.68,1.03,0.49,246.7,56.46,-268.49
263,1747401050530,0.68,1.03,0.49,246.7,56.46,-268.49
264,1747401050540,0.68,1.03,0.49,246.7,56.46,-268.49
265,1747401050550,0.68,1.03,0.49,246.7,56.46,-268.49
266,1747401050560,1.03,0.84,0.51,174.62,31.07,-238.77
267,1747401050570,1.03,0.84,0.51,174.62,31.07,-238.77
268,1747401050580,1.03,0.84,0.51,174.62,31.07,-238.77
269,1747401050590,1.03,0.84,0.51,174.62,31.07,-238.77
270,1747401050600,0.9,0.56,0.36,155.94,88.87,-203.67
271,1747401050610,0.9,0.56,0.36,155.94,88.87,-203.67
272,1747401050620,0.9,0.56,0.36,155.94,88.87,-203.67
273,1747401050630,0.935,0.51,0.41,156.70499999999998,78.83000000000001,-194.515
274,1747401050640,0.97,0.46,0.46,157.47,68.79,-185.36
275,1747401050650,0.97,0.46,0.46,157.47,68.79,-185.36
276,1747401050660,0.97,0.46,0.46,157.47,68.79,-185.36
277,1747401050670,1.29,0.365,0.6900000000000001,157.745,68.055,-171.81
278,1747401050680,1.61,0.27,0.92,158.02,67.32,-158.26
279,1747401050690,1.61,0.27,0.92,158.02,67.32,-158.26
280,1747401050700,1.61,0.27,0.92,158.02,67.32,-158.26
281,1747401050710,2.4,0.17,1.57,125.06,47.06,-84.17
282,1747401050720,2.4,0.17,1.57,125.06,47.06,-84.17
283,1747401050730,2.4,0.17,1.57,125.06,47.06,-84.17
284,1747401050740,2.4,0.17,1.57,125.06,47.06,-84.17
285,1747401050750,2.72,0.13,1.8,34.97,63.9,20.81
286,1747401050760,2.72,0.13,1.8,34.97,63.9,20.81
287,1747401050770,2.72,0.13,1.8,34.97,63.9,20.81
288,1747401050780,2.505,0.285,1.74,34.97,63.9,20.81
289,1747401050790,2.29,0.44,1.68,-89.11,23.56,94.67
290,1747401050800,2.29,0.44,1.68,-89.11,23.56,94.67
291,1747401050810,2.29,0.44,1.68,-89.11,23.56,94.67
292,1747401050820,1.94,0.47,1.31,-153.29,-24.08,108.28
293,1747401050830,1.59,0.5,0.94,-217.47,-71.72,121.89
294,1747401050840,1.59,0.5,0.94,-217.47,-71.72,121.89
295,1747401050850,1.59,0.5,0.94,-217.47,-71.72,121.89
296,1747401050860,1.37,0.51,0.645,-237.335,-93.57,144.87
297,1747401050870,1.15,0.52,0.35,-257.2,-115.42,167.85
298,1747401050880,1.15,0.52,0.35,-257.2,-115.42,167.85
299,1747401050890,1.15,0.52,0.35,-257.2,-115.42,167.85
300,1747401050900,1.025,0.5549999999999999,0.215,-258.115,-117.035,193.695
301,1747401050910,0.9,0.59,0.08,-259.03,-118.65,219.54
302,1747401050920,0.9,0.59,0.08,-259.03,-118.65,219.54
303,1747401050930,0.9,0.59,0.08,-259.03,-118.65,219.54
304,1747401050940,0.6,0.59,0.1,-205.14,-75.44,247.56
305,1747401050950,0.6,0.59,0.1,-205.14,-75.44,247.56
306,1747401050960,0.6,0.59,0.1,-205.14,-75.44,247.56
307,1747401050970,0.6,0.59,0.1,-205.14,-75.44,247.56
308,1747401050980,0.53,0.58,0.16,-182.8,-87.525,237.825
309,1747401050990,0.46,0.57,0.22,-160.46,-99.61,228.09
310,1747401051000,0.46,0.57,0.22,-160.46,-99.61,228.09
311,1747401051010,0.46,0.57,0.22,-160.46,-99.61,228.09
312,1747401051020,0.45,0.53,0.26,-122.56,-122.99,191.41
313,1747401051030,0.45,0.53,0.26,-122.56,-122.99,191.41
314,1747401051040,0.45,0.53,0.26,-122.56,-122.99,191.41
315,1747401051050,0.45,0.53,0.26,-122.56,-122.99,191.41
316,1747401051060,0.59,0.56,0.33,-55.3,-126.34,116.52
317,1747401051070,0.59,0.56,0.33,-55.3,-126.34,116.52
318,1747401051080,0.59,0.56,0.33,-55.3,-126.34,116.52
319,1747401051090,0.59,0.56,0.33,-55.3,-126.34,116.52
320,1747401051100,0.67,0.57,0.29,18.55,-38.33,54.99
321,1747401051110,0.67,0.57,0.29,18.55,-38.33,54.99
322,1747401051120,0.67,0.57,0.29,18.55,-38.33,54.99
323,1747401051130,0.55,0.62,0.25,46.14,30.975,-0.8550000000000004
324,1747401051140,0.43,0.67,0.21,73.73,100.28,-56.7
325,1747401051150,0.43,0.67,0.21,73.73,100.28,-56.7
326,1747401051160,0.43,0.67,0.21,73.73,100.28,-56.7
327,1747401051170,0.21,0.63,0.21,111.94,98.33,-148.99
328,1747401051180,0.21,0.63,0.21,111.94,98.33,-148.99
329,1747401051190,0.21,0.63,0.21,111.94,98.33,-148.99
330,1747401051200,0.21,0.63,0.21,111.94,98.33,-148.99
331,1747401051210,0.46,0.79,0.24,126.04,72.815,-189.485
332,1747401051220,0.46,0.79,0.24,140.14,47.3,-229.98
333,1747401051230,0.46,0.79,0.24,140.14,47.3,-229.98
334,1747401051240,0.5650000000000001,0.7350000000000001,0.195,140.14,47.3,-229.98
335,1747401051250,0.67,0.68,0.15,126.04,36.07,-232.54
336,1747401051260,0.67,0.68,0.15,126.04,36.07,-232.54
337,1747401051270,0.67,0.68,0.15,126.04,36.07,-232.54
338,1747401051280,0.67,0.6000000000000001,0.105,132.385,54.78,-217.435
339,1747401051290,0.67,0.52,0.06,138.73,73.49,-202.33
340,1747401051300,0.67,0.52,0.06,138.73,73.49,-202.33
341,1747401051310,0.67,0.52,0.06,138.73,73.49,-202.33
342,1747401051320,0.72,0.51,0.175,156.615,81.85,-200.41000000000005
343,1747401051330,0.77,0.5,0.29,174.5,90.21,-198.49
344,1747401051340,0.77,0.5,0.29,174.5,90.21,-198.49
345,1747401051350,0.77,0.5,0.29,174.5,90.21,-198.49
346,1747401051360,1.155,0.4649999999999999,0.425,169.005,70.22,-191.41000000000005
347,1747401051370,1.54,0.43,0.56,163.51,50.23,-184.33
348,1747401051380,1.54,0.43,0.56,163.51,50.23,-184.33
349,1747401051390,1.54,0.43,0.56,163.51,50.23,-184.33
350,1747401051400,2.7,0.2,1.1,184.27,9.89,-101.56
351,1747401051410,,,,,,
352,1747401051420,2.7,0.2,1.1,184.27,9.89,-101.56
353,1747401051430,2.7,0.2,1.1,184.27,9.89,-101.56
354,1747401051440,2.92,0.01,1.35,68.97,134.58,30.52
355,1747401051450,2.92,0.01,1.35,68.97,134.58,30.52
356,1747401051460,2.92,0.01,1.35,68.97,134.58,30.52
357,1747401051470,2.92,0.01,1.35,68.97,134.58,30.52
358,1747401051480,2.36,0.25,1.77,42.3,120.3,126.46
359,1747401051490,2.36,0.25,1.77,42.3,120.3,126.46
360,1747401051500,2.36,0.25,1.77,42.3,120.3,126.46
361,1747401051510,2.36,0.25,1.77,42.3,120.3,126.46
362,1747401051520,1.71,0.42,1.53,-120.12,19.65,133.85
363,1747401051530,1.71,0.42,1.53,-120.12,19.65,133.85
364,1747401051540,1.71,0.42,1.53,-120.12,19.65,133.85
365,1747401051550,1.43,0.4,1.135,-183.2,-2.3200000000000003,139.82999999999998
366,1747401051560,1.15,0.38,0.74,-246.28,-24.29,145.81
367,1747401051570,1.15,0.38,0.74,-246.28,-24.29,145.81
368,1747401051580,1.15,0.38,0.74,-246.28,-24.29,145.81
369,1747401051590,0.82,0.46,0.24,-289.86,-94.79,181.4
370,1747401051600,0.82,0.46,0.24,-289.86,-94.79,181.4
371,1747401051610,0.82,0.46,0.24,-289.86,-94.79,181.4
372,1747401051620,0.82,0.46,0.24,-289.86,-94.79,181.4
373,1747401051630,0.63,0.49,0.02,-285.4,-39.92,204.41
374,1747401051640,0.63,0.49,0.02,-285.4,-39.92,204.41
375,1747401051650,0.63,0.49,0.02,-285.4,-39.92,204.41
376,1747401051660,0.63,0.49,0.02,-285.4,-39.92,204.41
377,1747401051670,0.39,0.46,0.08,-229.55,-11.96,188.48
378,1747401051680,0.39,0.46,0.08,-229.55,-11.96,188.48
379,1747401051690,0.39,0.46,0.08,-229.55,-11.96,188.48
380,1747401051700,0.3399999999999999,0.415,0.13,-229.55,-11.96,188.48
381,1747401051710,0.29,0.37,0.18,-195.68,-54.26,147.89
382,1747401051720,0.29,0.37,0.18,-195.68,-54.26,147.89
383,1747401051730,0.29,0.37,0.18,-195.68,-54.26,147.89
384,1747401051740,0.29,0.37,0.18,-195.68,-54.26,147.89
385,1747401051750,0.43,0.27,0.3,-130.68,-59.94,84.78
386,1747401051760,0.43,0.27,0.3,-130.68,-59.94,84.78
387,1747401051770,0.43,0.27,0.3,-130.68,-59.94,84.78
388,1747401051780,0.44,0.4,0.295,-81.85000000000001,-69.185,54.565
389,1747401051790,0.45,0.53,0.29,-33.02,-78.43,24.35
390,1747401051800,0.45,0.53,0.29,-33.02,-78.43,24.35
391,1747401051810,0.45,0.53,0.29,-33.02,-78.43,24.35
392,1747401051820,0.45,0.53,0.29,-33.02,-78.43,24.35
393,1747401051830,0.64,0.56,0.27,48.28,0.49,-74.95
394,1747401051840,0.64,0.56,0.27,48.28,0.49,-74.95
395,1747401051850,0.64,0.56,0.27,48.28,0.49,-74.95
396,1747401051860,0.44,0.61,0.26,122.31,92.53,-130.25
397,1747401051870,0.44,0.61,0.26,122.31,92.53,-130.25
398,1747401051880,0.44,0.61,0.26,122.31,92.53,-130.25
399,1747401051890,0.44,0.61,0.26,122.31,92.53,-130.25
400,1747401051900,0.33,0.68,0.29,175.35,68.73,-190.61
401,1747401051910,0.33,0.68,0.29,175.35,68.73,-190.61
402,1747401051920,0.33,0.68,0.29,175.35,68.73,-190.61
403,1747401051930,0.33,0.68,0.29,175.35,68.73,-190.61
404,1747401051940,0.58,0.7,0.42,184.02,14.47,-224.85
405,1747401051950,0.58,0.7,0.42,184.02,14.47,-224.85
406,1747401051960,0.58,0.7,0.42,184.02,14.47,-224.85
407,1747401051970,0.6599999999999999,0.6,0.38,175.47500000000002,34.79,-211.395
408,1747401051980,0.74,0.5,0.34,166.93,55.11,-197.94
409,1747401051990,0.74,0.5,0.34,166.93,55.11,-197.94
410,1747401052000,0.74,0.5,0.34,166.93,55.11,-197.94
411,1747401052010,0.76,0.41,0.37,175.385,77.055,-182.315
412,1747401052020,0.76,0.41,0.37,183.84,99.0,-166.69
413,1747401052030,0.76,0.41,0.37,183.84,99.0,-166.69
414,1747401052040,0.76,0.41,0.37,183.84,99.0,-166.69
415,1747401052050,0.885,0.385,0.51,185.58,92.715,-148.745
416,1747401052060,1.01,0.36,0.65,187.32,86.43,-130.8
417,1747401052070,1.01,0.36,0.65,187.32,86.43,-130.8
418,1747401052080,1.01,0.36,0.65,187.32,86.43,-130.8
419,1747401052090,1.83,0.08,0.94,91.67,51.57,-154.24
420,1747401052100,1.83,0.08,0.94,91.67,51.57,-154.24
421,1747401052110,1.83,0.08,0.94,91.67,51.57,-154.24
422,1747401052120,1.83,0.08,0.94,91.67,51.57,-154.24
423,1747401052130,2.27,-0.055,1.135,91.735,45.925,-94.67
424,1747401052140,2.71,-0.19,1.33,91.8,40.28,-35.1
425,1747401052150,2.71,-0.19,1.33,91.8,40.28,-35.1
426,1747401052160,2.71,-0.19,1.33,91.8,40.28,-35.1
427,1747401052170,2.81,0.27,1.98,82.675,69.33500000000001,18.645
428,1747401052180,2.81,0.27,1.98,73.55,98.39,72.39
429,1747401052190,2.81,0.27,1.98,73.55,98.39,72.39
430,1747401052200,2.81,0.27,1.98,73.55,98.39,72.39
431,1747401052210,2.06,0.53,1.94,-101.07,59.57,111.45
432,1747401052220,2.06,0.53,1.94,-101.07,59.57,111.45
433,1747401052230,2.06,0.53,1.94,-101.07,59.57,111.45
434,1747401052240,1.715,0.485,1.515,-167.175,18.34,113.645
435,1747401052250,1.37,0.44,1.09,-233.28,-22.89,115.84
436,1747401052260,1.37,0.44,1.09,-233.28,-22.89,115.84
437,1747401052270,1.37,0.44,1.09,-233.28,-22.89,115.84
438,1747401052280,1.17,0.445,0.785,-254.825,-45.715,130.57999999999998
439,1747401052290,0.97,0.45,0.48,-276.37,-68.54,145.32
440,1747401052300,0.97,0.45,0.48,-276.37,-68.54,145.32
441,1747401052310,0.97,0.45,0.48,-276.37,-68.54,145.32
442,1747401052320,0.74,0.46,0.14,-282.775,-85.63,167.66
443,1747401052330,0.74,0.46,0.14,-289.18,-102.72,190.0
444,1747401052340,0.74,0.46,0.14,-289.18,-102.72,190.0
445,1747401052350,0.74,0.46,0.14,-289.18,-102.72,190.0
446,1747401052360,0.51,0.42,0.06,-228.76,-58.96,222.17
447,1747401052370,0.51,0.42,0.06,-228.76,-58.96,222.17
448,1747401052380,0.51,0.42,0.06,-228.76,-58.96,222.17
449,1747401052390,0.425,0.425,0.115,-228.76,-58.96,222.17
450,1747401052400,0.34,0.43,0.17,-168.03,-49.62,212.22
451,1747401052410,0.34,0.43,0.17,-168.03,-49.62,212.22
452,1747401052420,0.34,0.43,0.17,-168.03,-49.62,212.22
453,1747401052430,0.34,0.43,0.17,-168.03,-49.62,212.22
454,1747401052440,0.33,0.4649999999999999,0.2,-156.435,-58.38,197.145
455,1747401052450,0.32,0.5,0.23,-144.84,-67.14,182.07
456,1747401052460,0.32,0.5,0.23,-144.84,-67.14,182.07
457,1747401052470,0.32,0.5,0.23,-144.84,-67.14,182.07
458,1747401052480,0.46,0.62,0.33,-70.31,-88.81,105.77
459,1747401052490,0.46,0.62,0.33,-70.31,-88.81,105.77
460,1747401052500,0.46,0.62,0.33,-70.31,-88.81,105.77
461,1747401052510,0.445,0.575,0.265,-51.085,-63.355,60.575
462,1747401052520,0.43,0.53,0.2,-31.86,-37.9,15.38
463,1747401052530,0.43,0.53,0.2,-31.86,-37.9,15.38
464,1747401052540,0.43,0.53,0.2,-31.86,-37.9,15.38
465,1747401052550,0.4,0.44,0.07,59.33,83.62,-102.78
466,1747401052560,0.4,0.44,0.07,59.33,83.62,-102.78
467,1747401052570,0.4,0.44,0.07,59.33,83.62,-102.78
468,1747401052580,0.4,0.44,0.07,59.33,83.62,-102.78
469,1747401052590,0.36,0.55,0.17,164.31,57.92,-192.44
470,1747401052600,0.36,0.55,0.17,164.31,57.92,-192.44
471,1747401052610,0.36,0.55,0.17,164.31,57.92,-192.44
472,1747401052620,0.36,0.55,0.17,164.31,57.92,-192.44
473,1747401052630,0.63,0.85,0.4,245.79,25.51,-268.74
474,1747401052640,0.63,0.85,0.4,245.79,25.51,-268.74
475,1747401052650,0.63,0.85,0.4,245.79,25.51,-268.74
476,1747401052660,0.8200000000000001,0.875,0.47,236.51,8.91,-265.26
477,1747401052670,1.01,0.9,0.54,227.23,-7.69,-261.78
478,1747401052680,1.01,0.9,0.54,227.23,-7.69,-261.78
479,1747401052690,1.01,0.9,0.54,227.23,-7.69,-261.78
480,1747401052700,1.05,0.56,0.48,227.23,-7.69,-261.78
481,1747401052710,1.05,0.56,0.48,190.12,46.57,-217.83
482,1747401052720,1.05,0.56,0.48,190.12,46.57,-217.83
483,1747401052730,1.05,0.56,0.48,190.12,46.57,-217.83
484,1747401052740,1.01,0.39,0.57,198.85,65.55,-162.66
485,1747401052750,1.01,0.39,0.57,198.85,65.55,-162.66
486,1747401052760,1.01,0.39,0.57,198.85,65.55,-162.66
487,1747401052770,1.01,0.39,0.57,198.85,65.55,-162.66
488,1747401052780,,,,,,
489,1747401052790,1.22,0.13,0.82,151.86,80.99,-152.1
490,1747401052800,1.22,0.13,0.82,151.86,80.99,-152.1
491,1747401052810,1.22,0.13,0.82,151.86,80.99,-152.1
492,1747401052820,2.2,-0.08,1.27,142.215,50.23,-130.005
493,1747401052830,2.2,-0.08,1.27,132.57,19.47,-107.91
494,1747401052840,2.2,-0.08,1.27,132.57,19.47,-107.91
495,1747401052850,2.455,-0.185,1.445,100.495,45.105,-45.96
496,1747401052860,2.71,-0.29,1.62,68.42,70.74,15.99
497,1747401052870,2.71,-0.29,1.62,68.42,70.74,15.99
498,1747401052880,2.71,-0.29,1.62,68.42,70.74,15.99
499,1747401052890,2.71,-0.29,1.62,68.42,70.74,15.99
500,1747401052900,2.26,0.17,1.99,34.36,115.36,123.66
501,1747401052910,2.26,0.17,1.99,34.36,115.36,123.66
502,1747401052920,2.26,0.17,1.99,34.36,115.36,123.66
503,1747401052930,1.57,0.42,1.78,-123.84,41.93,125.18
504,1747401052940,1.57,0.42,1.78,-123.84,41.93,125.18
505,1747401052950,1.57,0.42,1.78,-123.84,41.93,125.18
506,1747401052960,1.57,0.42,1.78,-123.84,41.93,125.18
507,1747401052970,1.37,0.4549999999999999,1.415,-191.07,-8.91,122.465
508,1747401052980,1.17,0.49,1.05,-258.3,-59.75,119.75
509,1747401052990,1.17,0.49,1.05,-258.3,-59.75,119.75
510,1747401053000,1.17,0.49,1.05,-258.3,-59.75,119.75
511,1747401053010,0.81,0.57,0.49,-307.01,-138.55,147.28
512,1747401053020,0.81,0.57,0.49,-307.01,-138.55,147.28
513,1747401053030,0.81,0.57,0.49,-307.01,-138.55,147.28
514,1747401053040,0.81,0.57,0.49,-307.01,-138.55,147.28
515,1747401053050,0.67,0.56,0.16,-298.005,-137.575,170.87
516,1747401053060,0.67,0.56,0.16,-289.0,-136.6,194.46
517,1747401053070,0.67,0.56,0.16,-289.0,-136.6,194.46
518,1747401053080,0.545,0.615,0.13,-289.0,-136.6,194.46
519,1747401053090,0.42,0.67,0.1,-237.55,-59.27,199.52
520,1747401053100,0.42,0.67,0.1,-237.55,-59.27,199.52
521,1747401053110,0.42,0.67,0.1,-237.55,-59.27,199.52
522,1747401053120,0.37,0.605,0.045,-225.83,-81.635,188.26
523,1747401053130,0.32,0.54,-0.01,-214.11,-104.0,177.0
524,1747401053140,0.32,0.54,-0.01,-214.11,-104.0,177.0
525,1747401053150,0.32,0.54,-0.01,-214.11,-104.0,177.0
526,1747401053160,0.44,0.43,-0.1,-138.0,-130.43,119.02
527,1747401053170,0.44,0.43,-0.1,-138.0,-130.43,119.02
528,1747401053180,0.44,0.43,-0.1,-138.0,-130.43,119.02
529,1747401053190,0.44,0.43,-0.1,-138.0,-130.43,119.02
530,1747401053200,0.65,0.57,0.08,-10.38,-114.44,58.35
531,1747401053210,0.65,0.57,0.08,-10.38,-114.44,58.35
532,1747401053220,0.65,0.57,0.08,-10.38,-114.44,58.35
533,1747401053230,0.65,0.57,0.08,-10.38,-114.44,58.35
534,1747401053240,0.7,0.81,0.15,75.62,-0.61,-58.78
535,1747401053250,0.7,0.81,0.15,75.62,-0.61,-58.78
536,1747401053260,0.7,0.81,0.15,75.62,-0.61,-58.78
537,1747401053270,0.7,0.81,0.15,75.62,-0.61,-58.78
538,1747401053280,0.55,0.73,0.15,129.7,107.42,-159.12
539,1747401053290,0.55,0.73,0.15,129.7,107.42,-159.12
540,1747401053300,0.55,0.73,0.15,129.7,107.42,-159.12
541,1747401053310,0.555,0.725,0.155,129.7,107.42,-159.12
542,1747401053320,0.56,0.72,0.16,167.85,81.05,-246.52
543,1747401053330,0.56,0.72,0.16,167.85,81.05,-246.52
544,1747401053340,0.56,0.72,0.16,167.85,81.05,-246.52
545,1747401053350,0.56,0.72,0.16,167.85,81.05,-246.52
546,1747401053360,0.82,0.76,0.2,189.58,25.51,-280.7
547,1747401053370,0.82,0.76,0.2,189.58,25.51,-280.7
548,1747401053380,0.82,0.76,0.2,189.58,25.51,-280.7
549,1747401053390,0.885,0.6950000000000001,0.215,189.58,25.51,-280.7
550,1747401053400,0.95,0.63,0.23,205.57,32.96,-247.5
551,1747401053410,0.95,0.63,0.23,205.57,32.96,-247.5
552,1747401053420,0.95,0.63,0.23,205.57,32.96,-247.5
553,1747401053430,1.03,0.53,0.4,195.59,42.085,-232.76
554,1747401053440,1.03,0.53,0.4,185.61,51.21,-218.02
555,1747401053450,1.03,0.53,0.4,185.61,51.21,-218.02
556,1747401053460,1.03,0.53,0.4,185.61,51.21,-218.02
557,1747401053470,1.14,0.29,0.49,163.76,100.77,-160.16
558,1747401053480,1.14,0.29,0.49,163.76,100.77,-160.16
559,1747401053490,1.14,0.29,0.49,163.76,100.77,-160.16
560,1747401053500,1.14,0.29,0.49,163.76,100.77,-160.16
561,1747401053510,1.92,0.37,1.29,205.14,58.53,-135.74
562,1747401053520,1.92,0.37,1.29,205.14,58.53,-135.74
563,1747401053530,1.92,0.37,1.29,205.14,58.53,-135.74
564,1747401053540,2.3200000000000003,0.21,1.47,205.14,58.53,-135.74
565,1747401053550,2.72,0.05,1.65,34.06,36.5,-53.53
566,1747401053560,2.72,0.05,1.65,34.06,36.5,-53.53
567,1747401053570,2.72,0.05,1.65,34.06,36.5,-53.53
568,1747401053580,2.64,0.04,1.595,34.06,36.5,-53.53
569,1747401053590,2.56,0.03,1.54,-1.95,81.3,63.6
570,1747401053600,2.56,0.03,1.54,-1.95,81.3,63.6
571,1747401053610,2.56,0.03,1.54,-1.95,81.3,63.6
572,1747401053620,2.24,0.185,1.46,-61.31,51.88,85.39
573,1747401053630,1.92,0.34,1.38,-120.67,22.46,107.18
574,1747401053640,1.92,0.34,1.38,-120.67,22.46,107.18
575,1747401053650,1.92,0.34,1.38,-120.67,22.46,107.18
576,1747401053660,1.46,0.41,0.73,-184.42,-11.75,123.23
577,1747401053670,1.46,0.41,0.73,-248.17,-45.96,139.28
578,1747401053680,1.46,0.41,0.73,-248.17,-45.96,139.28
579,1747401053690,1.46,0.41,0.73,-248.17,-45.96,139.28
580,1747401053700,1.09,0.52,0.26,-271.12,-52.25,203.92
581,1747401053710,1.09,0.52,0.26,-271.12,-52.25,203.92
582,1747401053720,1.09,0.52,0.26,-271.12,-52.25,203.92
583,1747401053730,1.09,0.52,0.26,-271.12,-52.25,203.92
584,1747401053740,0.75,0.66,0.09,-271.12,-52.25,203.92
585,1747401053750,0.75,0.66,0.09,-252.01,-93.57,242.49
586,1747401053760,0.75,0.66,0.09,-252.01,-93.57,242.49
587,1747401053770,0.75,0.66,0.09,-252.01,-93.57,242.49
588,1747401053780,0.53,0.72,0.07,-222.96,-140.93,227.66
589,1747401053790,0.53,0.72,0.07,-222.96,-140.93,227.66
590,1747401053800,0.53,0.72,0.07,-222.96,-140.93,227.66
591,1747401053810,0.46,0.63,0.03,-222.96,-140.93,227.66
592,1747401053820,0.46,0.63,0.03,-175.48,-174.87,222.6
593,1747401053830,0.46,0.63,0.03,-175.48,-174.87,222.6
594,1747401053840,0.46,0.63,0.03,-175.48,-174.87,222.6
595,1747401053850,0.34,0.71,-0.01,-175.48,-174.87,222.6
596,1747401053860,0.34,0.71,-0.01,-94.85,-98.02,166.38
597,1747401053870,0.34,0.71,-0.01,-94.85,-98.02,166.38
598,1747401053880,0.34,0.71,-0.01,-94.85,-98.02,166.38
599,1747401053890,0.48,0.69,0.14,-1.22,-59.14,60.36
600,1747401053900,0.48,0.69,0.14,-1.22,-59.14,60.36
601,1747401053910,0.48,0.69,0.14,-1.22,-59.14,60.36
602,1747401053920,0.48,0.69,0.14,-1.22,-59.14,60.36
603,1747401053930,0.43,0.77,0.17,79.35,14.89,-41.14
604,1747401053940,0.43,0.77,0.17,79.35,14.89,-41.14
605,1747401053950,0.43,0.77,0.17,79.35,14.89,-41.14
606,1747401053960,0.43,0.77,0.17,79.35,14.89,-41.14
607,1747401053970,0.42,0.78,0.2,94.09,40.585,-110.32
608,1747401053980,0.41,0.79,0.23,108.83,66.28,-179.5
609,1747401053990,0.41,0.79,0.23,108.83,66.28,-179.5
610,1747401054000,0.41,0.79,0.23,108.83,66.28,-179.5
611,1747401054010,0.6,0.86,0.29,147.77,76.84,-277.89
612,1747401054020,0.6,0.86,0.29,147.77,76.84,-277.89
613,1747401054030,0.6,0.86,0.29,147.77,76.84,-277.89
614,1747401054040,0.765,0.91,0.3399999999999999,161.35000000000002,60.97,-287.445
615,1747401054050,0.93,0.96,0.39,174.93,45.1,-297.0
616,1747401054060,0.93,0.96,0.39,174.93,45.1,-297.0
617,1747401054070,0.93,0.96,0.39,174.93,45.1,-297.0
618,1747401054080,0.93,0.96,0.39,174.93,45.1,-297.0
619,1747401054090,1.18,0.69,0.35,141.85,59.08,-262.02
620,1747401054100,1.18,0.69,0.35,141.85,59.08,-262.02
621,1747401054110,1.18,0.69,0.35,141.85,59.08,-262.02
622,1747401054120,1.01,0.4,0.29,141.85,59.08,-262.02
623,1747401054130,1.01,0.4,0.29,161.25,137.57,-202.58
624,1747401054140,,,,,,
625,1747401054150,1.01,0.4,0.29,161.25,137.57,-202.58
626,1747401054160,1.01,0.4,0.29,161.25,137.57,-202.58
627,1747401054170,0.97,0.29,0.44,158.26,154.6,-168.82
628,1747401054180,0.97,0.29,0.44,158.26,154.6,-168.82
629,1747401054190,0.97,0.29,0.44,158.26,154.6,-168.82
630,1747401054200,1.43,0.26,0.76,158.6,116.485,-152.82999999999998
631,1747401054210,1.89,0.23,1.08,158.94,78.37,-136.84
632,1747401054220,1.89,0.23,1.08,158.94,78.37,-136.84
633,1747401054230,1.89,0.23,1.08,158.94,78.37,-136.84
634,1747401054240,2.93,0.04,1.75,74.71,-1.59,-49.62
635,1747401054250,2.93,0.04,1.75,74.71,-1.59,-49.62
636,1747401054260,2.93,0.04,1.75,74.71,-1.59,-49.62
637,1747401054270,2.93,0.04,1.75,74.71,-1.59,-49.62
638,1747401054280,2.7,0.13,1.69,-32.65,96.19,84.72
639,1747401054290,2.7,0.13,1.69,-32.65,96.19,84.72
640,1747401054300,2.7,0.13,1.69,-32.65,96.19,84.72
641,1747401054310,2.7,0.13,1.69,-32.65,96.19,84.72
642,1747401054320,1.9,0.43,1.53,-138.0,27.04,125.67
643,1747401054330,1.9,0.43,1.53,-138.0,27.04,125.67
644,1747401054340,1.9,0.43,1.53,-138.0,27.04,125.67
645,1747401054350,1.9,0.43,1.53,-138.0,27.04,125.67
646,1747401054360,1.37,0.6,0.93,-256.9,-108.22,129.64
647,1747401054370,1.37,0.6,0.93,-256.9,-108.22,129.64
648,1747401054380,1.37,0.6,0.93,-256.9,-108.22,129.64
649,1747401054390,1.21,0.645,0.645,-276.275,-141.88,158.995
650,1747401054400,1.05,0.69,0.36,-295.65,-175.54,188.35
651,1747401054410,1.05,0.69,0.36,-295.65,-175.54,188.35
652,1747401054420,1.05,0.69,0.36,-295.65,-175.54,188.35
653,1747401054430,0.78,0.76,0.14,-295.65,-175.54,188.35
654,1747401054440,0.78,0.76,0.14,-276.92,-75.38,250.73
655,1747401054450,0.78,0.76,0.14,-276.92,-75.38,250.73
656,1747401054460,0.78,0.76,0.14,-276.92,-75.38,250.73
657,1747401054470,0.46,0.77,0.09,-231.75,-37.17,258.97
658,1747401054480,0.46,0.77,0.09,-231.75,-37.17,258.97
659,1747401054490,0.46,0.77,0.09,-231.75,-37.17,258.97
660,1747401054500,0.46,0.77,0.09,-231.75,-37.17,258.97
661,1747401054510,0.425,0.71,0.115,-210.51,-61.065,239.53000000000003
662,1747401054520,0.39,0.65,0.14,-189.27,-84.96,220.09
663,1747401054530,0.39,0.65,0.14,-189.27,-84.96,220.09
664,1747401054540,0.39,0.65,0.14,-189.27,-84.96,220.09
665,1747401054550,0.33,0.5,0.02,-163.64,-99.61,154.85
666,1747401054560,0.33,0.5,0.02,-163.64,-99.61,154.85
667,1747401054570,0.33,0.5,0.02,-163.64,-99.61,154.85
668,1747401054580,0.33,0.5,0.02,-163.64,-99.61,154.85
669,1747401054590,0.46,0.46,0.01,-62.44,-49.13,77.76
670,1747401054600,0.46,0.46,0.01,-62.44,-49.13,77.76
671,1747401054610,0.46,0.46,0.01,-62.44,-49.13,77.76
672,1747401054620,0.42,0.45,-0.0099999999999999,-6.834999999999997,-2.900000000000002,36.345
673,1747401054630,0.38,0.44,-0.03,48.77,43.33,-5.07
674,1747401054640,0.38,0.44,-0.03,48.77,43.33,-5.07
675,1747401054650,0.38,0.44,-0.03,48.77,43.33,-5.07
676,1747401054660,0.32,0.535,0.035,95.615,71.03999999999999,-78.52499999999999
677,1747401054670,0.26,0.63,0.1,142.46,98.75,-151.98
678,1747401054680,0.26,0.63,0.1,142.46,98.75,-151.98
679,1747401054690,0.26,0.63,0.1,142.46,98.75,-151.98
680,1747401054700,0.55,0.84,0.31,173.68,74.675,-197.755
681,1747401054710,0.55,0.84,0.31,204.9,50.6,-243.53
682,1747401054720,0.55,0.84,0.31,204.9,50.6,-243.53
683,1747401054730,0.55,0.84,0.31,204.9,50.6,-243.53
684,1747401054740,0.62,1.13,0.35,240.23,83.19,-274.05
685,1747401054750,0.62,1.13,0.35,240.23,83.19,-274.05
686,1747401054760,0.62,1.13,0.35,240.23,83.19,-274.05
687,1747401054770,0.62,1.13,0.35,240.23,83.19,-274.05
688,1747401054780,0.71,1.04,0.28,211.24,67.5,-274.23
689,1747401054790,0.71,1.04,0.28,211.24,67.5,-274.23
690,1747401054800,0.71,1.04,0.28,211.24,67.5,-274.23
691,1747401054810,0.71,1.04,0.28,211.24,67.5,-274.23
692,1747401054820,0.79,0.88,0.4,238.95,91.86,-231.14
693,1747401054830,0.79,0.88,0.4,238.95,91.86,-231.14
694,1747401054840,0.79,0.88,0.4,238.95,91.86,-231.14
695,1747401054850,0.98,0.86,0.655,238.95,91.86,-231.14
696,1747401054860,1.17,0.84,0.91,206.79,89.29,-216.13
697,1747401054870,1.17,0.84,0.91,206.79,89.29,-216.13
698,1747401054880,1.17,0.84,0.91,206.79,89.29,-216.13
699,1747401054890,1.54,0.595,1.025,193.88,90.48,-178.47
700,1747401054900,1.91,0.35,1.14,180.97,91.67,-140.81
701,1747401054910,1.91,0.35,1.14,180.97,91.67,-140.81
702,1747401054920,1.91,0.35,1.14,180.97,91.67,-140.81
703,1747401054930,2.79,0.32,1.94,125.61,11.47,-67.2
704,1747401054940,2.79,0.32,1.94,125.61,11.47,-67.2
705,1747401054950,2.79,0.32,1.94,125.61,11.47,-67.2
706,1747401054960,2.79,0.32,1.94,125.61,11.47,-67.2
707,1747401054970,2.77,0.06,1.6,-17.52,27.89,70.07
708,1747401054980,2.77,0.06,1.6,-17.52,27.89,70.07
709,1747401054990,2.77,0.06,1.6,-17.52,27.89,70.07
710,1747401055000,2.77,0.06,1.6,-17.52,27.89,70.07
711,1747401055010,2.16,0.4,1.53,-81.05,-6.04,135.56
712,1747401055020,2.16,0.4,1.53,-81.05,-6.04,135.56
713,1747401055030,2.16,0.4,1.53,-81.05,-6.04,135.56
714,1747401055040,1.92,0.52,1.33,-81.05,-6.04,135.56
715,1747401055050,1.68,0.64,1.13,-206.05,-88.56,167.3
716,1747401055060,1.68,0.64,1.13,-206.05,-88.56,167.3
717,1747401055070,1.68,0.64,1.13,-206.05,-88.56,167.3
718,1747401055080,1.68,0.64,1.13,-206.05,-88.56,167.3
719,1747401055090,1.06,0.68,0.52,-266.11,-49.26,209.66
720,1747401055100,1.06,0.68,0.52,-266.11,-49.26,209.66
721,1747401055110,1.06,0.68,0.52,-266.11,-49.26,209.66
722,1747401055120,1.06,0.68,0.52,-266.11,-49.26,209.66
723,1747401055130,0.52,0.78,0.23,-277.04,-63.48,238.89
724,1747401055140,0.52,0.78,0.23,-277.04,-63.48,238.89
725,1747401055150,0.52,0.78,0.23,-277.04,-63.48,238.89
726,1747401055160,0.395,0.825,0.225,-267.55,-65.86,238.95
727,1747401055170,0.27,0.87,0.22,-258.06,-68.24,239.01
728,1747401055180,0.27,0.87,0.22,-258.06,-68.24,239.01
729,1747401055190,0.27,0.87,0.22,-258.06,-68.24,239.01
730,1747401055200,0.205,0.93,0.275,-252.565,-92.99,221.8
731,1747401055210,0.14,0.99,0.33,-247.07,-117.74,204.59
732,1747401055220,0.14,0.99,0.33,-247.07,-117.74,204.59
733,1747401055230,0.14,0.99,0.33,-247.07,-117.74,204.59
734,1747401055240,0.22,0.75,0.16,-234.56,-180.3,159.36
735,1747401055250,0.22,0.75,0.16,-234.56,-180.3,159.36
736,1747401055260,0.22,0.75,0.16,-234.56,-180.3,159.36
737,1747401055270,0.345,0.565,0.055,-234.56,-180.3,159.36
738,1747401055280,0.47,0.38,-0.05,-122.44,-88.87,76.66
739,1747401055290,0.47,0.38,-0.05,-122.44,-88.87,76.66
740,1747401055300,0.47,0.38,-0.05,-122.44,-88.87,76.66
741,1747401055310,0.4649999999999999,0.325,-0.045,-54.17,-17.215000000000003,37.66
742,1747401055320,0.46,0.27,-0.04,14.1,54.44,-1.34
743,1747401055330,0.46,0.27,-0.04,14.1,54.44,-1.34
744,1747401055340,0.46,0.27,-0.04,14.1,54.44,-1.34
745,1747401055350,0.405,0.285,-0.025,68.025,89.935,-62.225
746,1747401055360,0.35,0.3,-0.01,121.95,125.43,-123.11
747,1747401055370,0.35,0.3,-0.01,121.95,125.43,-123.11
748,1747401055380,0.35,0.3,-0.01,121.95,125.43,-123.11
749,1747401055390,0.35,0.3,-0.01,121.95,125.43,-123.11
750,1747401055400,0.57,0.66,0.26,231.26,116.94,-226.38
751,1747401055410,0.57,0.66,0.26,231.26,116.94,-226.38
752,1747401055420,0.57,0.66,0.26,231.26,116.94,-226.38
753,1747401055430,0.77,1.03,0.44,273.19,121.83,-248.78
754,1747401055440,0.77,1.03,0.44,273.19,121.83,-248.78
755,1747401055450,0.77,1.03,0.44,273.19,121.83,-248.78
756,1747401055460,0.77,1.03,0.44,273.19,121.83,-248.78
757,1747401055470,0.75,0.85,0.46,255.13,116.82,-244.26
758,1747401055480,0.75,0.85,0.46,255.13,116.82,-244.26
759,1747401055490,0.75,0.85,0.46,255.13,116.82,-244.26
760,1747401055500,0.75,0.85,0.46,255.13,116.82,-244.26
761,1747401055510,,,,,,
762,1747401055520,0.81,0.59,0.47,234.62,85.45,-185.12
763,1747401055530,0.81,0.59,0.47,234.62,85.45,-185.12
764,1747401055540,0.81,0.59,0.47,234.62,85.45,-185.12
765,1747401055550,1.11,0.36,0.71,200.35,81.94,-180.91
766,1747401055560,1.11,0.36,0.71,166.08,78.43,-176.7
767,1747401055570,1.11,0.36,0.71,166.08,78.43,-176.7
768,1747401055580,1.11,0.36,0.71,166.08,78.43,-176.7
769,1747401055590,1.54,0.07,0.81,105.53,7.75,-126.65
770,1747401055600,1.54,0.07,0.81,105.53,7.75,-126.65
771,1747401055610,1.54,0.07,0.81,105.53,7.75,-126.65
772,1747401055620,2.64,-0.06,1.21,38.94,-134.28,-71.17
773,1747401055630,2.64,-0.06,1.21,38.94,-134.28,-71.17
774,1747401055640,2.64,-0.06,1.21,38.94,-134.28,-71.17
775,1747401055650,2.64,-0.06,1.21,38.94,-134.28,-71.17
776,1747401055660,2.87,0.01,1.2,-9.52,41.75,80.99
777,1747401055670,2.87,0.01,1.2,-9.52,41.75,80.99
778,1747401055680,2.87,0.01,1.2,-9.52,41.75,80.99
779,1747401055690,2.87,0.01,1.2,-9.52,41.75,80.99
780,1747401055700,2.29,0.44,1.45,-88.07,38.64,142.7
781,1747401055710,2.29,0.44,1.45,-88.07,38.64,142.7
782,1747401055720,2.29,0.44,1.45,-88.07,38.64,142.7
783,1747401055730,2.29,0.44,1.45,-88.07,38.64,142.7
784,1747401055740,1.73,0.52,1.06,-183.78,-38.09,168.58
785,1747401055750,1.73,0.52,1.06,-183.78,-38.09,168.58
786,1747401055760,1.73,0.52,1.06,-183.78,-38.09,168.58
787,1747401055770,1.43,0.5700000000000001,0.815,-205.845,-31.01,182.925
788,1747401055780,1.13,0.62,0.57,-227.91,-23.93,197.27
789,1747401055790,1.13,0.62,0.57,-227.91,-23.93,197.27
790,1747401055800,1.13,0.62,0.57,-227.91,-23.93,197.27
791,1747401055810,0.8799999999999999,0.6699999999999999,0.4449999999999999,-242.005,-33.905,207.55
792,1747401055820,0.63,0.72,0.32,-256.1,-43.88,217.83
793,1747401055830,0.63,0.72,0.32,-256.1,-43.88,217.83
794,1747401055840,0.63,0.72,0.32,-256.1,-43.88,217.83
795,1747401055850,0.34,0.76,0.19,-248.54,-78.12,222.72
796,1747401055860,0.34,0.76,0.19,-248.54,-78.12,222.72
797,1747401055870,0.34,0.76,0.19,-248.54,-78.12,222.72
798,1747401055880,0.34,0.76,0.19,-248.54,-78.12,222.72
799,1747401055890,0.26,0.79,0.29,-248.11,-137.21,193.12
800,1747401055900,0.26,0.79,0.29,-248.11,-137.21,193.12
801,1747401055910,0.26,0.79,0.29,-248.11,-137.21,193.12
802,1747401055920,0.26,0.79,0.29,-248.11,-137.21,193.12
803,1747401055930,0.47,0.61,0.16,-203.43,-190.98,157.04
804,1747401055940,0.47,0.61,0.16,-203.43,-190.98,157.04
805,1747401055950,0.47,0.61,0.16,-203.43,-190.98,157.04
806,1747401055960,0.47,0.61,0.16,-203.43,-190.98,157.04
807,1747401055970,0.49,0.57,0.06,-88.68,-80.02,90.33
808,1747401055980,0.49,0.57,0.06,-88.68,-80.02,90.33
809,1747401055990,0.49,0.57,0.06,-88.68,-80.02,90.33
810,1747401056000,0.41,0.51,0.0049999999999999,-38.815000000000005,-22.585,40.1
811,1747401056010,0.33,0.45,-0.05,11.05,34.85,-10.13
812,1747401056020,0.33,0.45,-0.05,11.05,34.85,-10.13
813,1747401056030,0.33,0.45,-0.05,11.05,34.85,-10.13
814,1747401056040,0.33,0.45,-0.05,11.05,34.85,-10.13
815,1747401056050,0.36,0.44,0.05,139.59,85.88,-139.59
816,1747401056060,0.36,0.44,0.05,139.59,85.88,-139.59
817,1747401056070,0.36,0.44,0.05,139.59,85.88,-139.59
818,1747401056080,0.67,0.9,0.44,211.85,88.2,-263.06
819,1747401056090,0.67,0.9,0.44,211.85,88.2,-263.06
820,1747401056100,0.67,0.9,0.44,211.85,88.2,-263.06
821,1747401056110,0.67,0.9,0.44,211.85,88.2,-263.06
822,1747401056120,1.0,1.0,0.51,207.95,78.61,-299.38
823,1747401056130,1.0,1.0,0.51,207.95,78.61,-299.38
824,1747401056140,1.0,1.0,0.51,207.95,78.61,-299.38
825,1747401056150,1.0,1.0,0.51,207.95,78.61,-299.38
826,1747401056160,1.18,0.77,0.47,213.13,65.98,-268.01
827,1747401056170,1.18,0.77,0.47,213.13,65.98,-268.01
828,1747401056180,1.18,0.77,0.47,213.13,65.98,-268.01
829,1747401056190,1.185,0.56,0.4499999999999999,213.13,65.98,-268.01
830,1747401056200,1.19,0.35,0.43,177.31,82.15,-226.2
831,1747401056210,1.19,0.35,0.43,177.31,82.15,-226.2
832,1747401056220,1.19,0.35,0.43,177.31,82.15,-226.2
833,1747401056230,1.17,0.215,0.44,173.035,98.57,-188.385
834,1747401056240,1.15,0.08,0.45,168.76,114.99,-150.57
835,1747401056250,1.15,0.08,0.45,168.76,114.99,-150.57
836,1747401056260,1.15,0.08,0.45,168.76,114.99,-150.57
837,1747401056270,1.26,-0.05,0.64,151.03,103.18,-137.94
838,1747401056280,1.26,-0.05,0.64,133.3,91.37,-125.31
839,1747401056290,1.26,-0.05,0.64,133.3,91.37,-125.31
840,1747401056300,1.26,-0.05,0.64,133.3,91.37,-125.31
841,1747401056310,1.945,-0.16,0.81,113.615,37.445,-84.2
842,1747401056320,2.63,-0.27,0.98,93.93,-16.48,-43.09
843,1747401056330,2.63,-0.27,0.98,93.93,-16.48,-43.09
844,1747401056340,2.63,-0.27,0.98,93.93,-16.48,-43.09
845,1747401056350,2.69,-0.13,1.22,28.08,71.47,92.47
846,1747401056360,2.69,-0.13,1.22,28.08,71.47,92.47
847,1747401056370,2.69,-0.13,1.22,28.08,71.47,92.47
848,1747401056380,2.545,0.1149999999999999,1.365,28.08,71.47,92.47
849,1747401056390,2.4,0.36,1.51,-58.72,27.65,146.61
850,1747401056400,2.4,0.36,1.51,-58.72,27.65,146.61
851,1747401056410,2.4,0.36,1.51,-58.72,27.65,146.61
852,1747401056420,2.4,0.36,1.51,-58.72,27.65,146.61
853,1747401056430,1.89,0.55,1.08,-189.21,-39.86,172.79
854,1747401056440,1.89,0.55,1.08,-189.21,-39.86,172.79
855,1747401056450,1.89,0.55,1.08,-189.21,-39.86,172.79
856,1747401056460,1.5299999999999998,0.595,0.78,-219.79,-22.34,183.655
857,1747401056470,1.17,0.64,0.48,-250.37,-4.82,194.52
858,1747401056480,1.17,0.64,0.48,-250.37,-4.82,194.52
859,1747401056490,1.17,0.64,0.48,-250.37,-4.82,194.52
860,1747401056500,0.64,0.68,0.2,-263.61,-43.52,222.41
861,1747401056510,0.64,0.68,0.2,-263.61,-43.52,222.41
862,1747401056520,0.64,0.68,0.2,-263.61,-43.52,222.41
863,1747401056530,0.64,0.68,0.2,-263.61,-43.52,222.41
864,1747401056540,0.36,0.69,0.09,-253.23,-67.57,239.87
865,1747401056550,0.36,0.69,0.09,-253.23,-67.57,239.87
866,1747401056560,0.36,0.69,0.09,-253.23,-67.57,239.87
867,1747401056570,0.36,0.69,0.09,-253.23,-67.57,239.87
868,1747401056580,0.19,0.55,0.05,-237.515,-61.71,224.49
869,1747401056590,0.19,0.55,0.05,-221.8,-55.85,209.11
870,1747401056600,0.19,0.55,0.05,-221.8,-55.85,209.11
871,1747401056610,0.19,0.55,0.05,-221.8,-55.85,209.11
872,1747401056620,0.16,0.41,0.04,-177.43,-94.67,102.97
873,1747401056630,0.16,0.41,0.04,-177.43,-94.67,102.97
874,1747401056640,0.16,0.41,0.04,-177.43,-94.67,102.97
875,1747401056650,0.16,0.41,0.04,-177.43,-94.67,102.97
876,1747401056660,0.64,0.4,0.07,-84.66,-158.08,31.31
877,1747401056670,0.64,0.4,0.07,-84.66,-158.08,31.31
878,1747401056680,0.64,0.4,0.07,-84.66,-158.08,31.31
879,1747401056690,0.64,0.4,0.07,-84.66,-158.08,31.31
880,1747401056700,0.68,0.52,0.09,17.4,-9.83,-6.1
881,1747401056710,0.68,0.52,0.09,17.4,-9.83,-6.1
882,1747401056720,0.68,0.52,0.09,17.4,-9.83,-6.1
883,1747401056730,0.68,0.52,0.09,17.4,-9.83,-6.1
884,1747401056740,0.53,0.5,0.13,97.96,109.8,-119.81
885,1747401056750,0.53,0.5,0.13,97.96,109.8,-119.81
886,1747401056760,0.53,0.5,0.13,97.96,109.8,-119.81
887,1747401056770,0.61,0.67,0.23,181.21,99.55,-206.42
888,1747401056780,0.61,0.67,0.23,181.21,99.55,-206.42
889,1747401056790,0.61,0.67,0.23,181.21,99.55,-206.42
890,1747401056800,0.61,0.67,0.23,181.21,99.55,-206.42
891,1747401056810,0.76,0.89,0.39,209.87,99.215,-227.66
892,1747401056820,0.76,0.89,0.39,238.53,98.88,-248.9
893,1747401056830,0.76,0.89,0.39,238.53,98.88,-248.9
894,1747401056840,0.76,0.89,0.39,238.53,98.88,-248.9
895,1747401056850,0.97,0.79,0.45,206.79,65.49,-250.0
896,1747401056860,,,,,,
897,1747401056870,0.97,0.79,0.45,206.79,65.49,-250.0
898,1747401056880,0.97,0.79,0.45,206.79,65.49,-250.0
899,1747401056890,0.93,0.47,0.36,190.49,84.47,-199.04
900,1747401056900,0.93,0.47,0.36,190.49,84.47,-199.04
901,1747401056910,0.93,0.47,0.36,190.49,84.47,-199.04
902,1747401056920,0.905,0.385,0.39,184.05,91.155,-182.985
903,1747401056930,0.88,0.3,0.42,177.61,97.84,-166.93
904,1747401056940,0.88,0.3,0.42,177.61,97.84,-166.93
905,1747401056950,0.88,0.3,0.42,177.61,97.84,-166.93
906,1747401056960,1.165,0.265,0.54,152.375,73.58,-154.54000000000002
907,1747401056970,1.45,0.23,0.66,127.14,49.32,-142.15
908,1747401056980,1.45,0.23,0.66,127.14,49.32,-142.15
909,1747401056990,1.45,0.23,0.66,127.14,49.32,-142.15
910,1747401057000,1.98,0.135,0.975,126.56,20.51,-117.705
911,1747401057010,2.51,0.04,1.29,125.98,-8.3,-93.26
912,1747401057020,2.51,0.04,1.29,125.98,-8.3,-93.26
913,1747401057030,2.51,0.04,1.29,125.98,-8.3,-93.26
914,1747401057040,2.88,-0.09,1.58,125.98,-8.3,-93.26
915,1747401057050,2.88,-0.09,1.58,10.38,66.47,29.54
916,1747401057060,2.88,-0.09,1.58,10.38,66.47,29.54
917,1747401057070,2.88,-0.09,1.58,10.38,66.47,29.54
918,1747401057080,2.38,0.26,1.66,-66.16,68.97,120.36
919,1747401057090,2.38,0.26,1.66,-66.16,68.97,120.36
920,1747401057100,2.38,0.26,1.66,-66.16,68.97,120.36
921,1747401057110,2.38,0.26,1.66,-66.16,68.97,120.36
922,1747401057120,1.66,0.42,1.07,-144.805,21.485,126.68
923,1747401057130,1.66,0.42,1.07,-223.45,-26.0,133.0
924,1747401057140,1.66,0.42,1.07,-223.45,-26.0,133.0
925,1747401057150,1.38,0.475,0.7250000000000001,-223.45,-26.0,133.0
926,1747401057160,1.1,0.53,0.38,-278.75,-43.82,174.32
927,1747401057170,1.1,0.53,0.38,-278.75,-43.82,174.32
928,1747401057180,1.1,0.53,0.38,-278.75,-43.82,174.32
929,1747401057190,1.1,0.53,0.38,-278.75,-43.82,174.32
930,1747401057200,0.63,0.68,0.11,-285.58,-71.96,212.28
931,1747401057210,0.63,0.68,0.11,-285.58,-71.96,212.28
932,1747401057220,0.63,0.68,0.11,-285.58,-71.96,212.28
933,1747401057230,0.47,0.665,0.11,-266.14,-80.565,215.3
934,1747401057240,0.31,0.65,0.11,-246.7,-89.17,218.32
935,1747401057250,0.31,0.65,0.11,-246.7,-89.17,218.32
936,1747401057260,0.31,0.65,0.11,-246.7,-89.17,218.32
937,1747401057270,0.245,0.625,0.13,-222.775,-89.905,192.475
938,1747401057280,0.18,0.6,0.15,-198.85,-90.64,166.63
939,1747401057290,0.18,0.6,0.15,-198.85,-90.64,166.63
940,1747401057300,0.18,0.6,0.15,-198.85,-90.64,166.63
941,1747401057310,0.3,0.55,0.14,-171.14,-123.05,75.07
942,1747401057320,0.3,0.55,0.14,-171.14,-123.05,75.07
943,1747401057330,0.3,0.55,0.14,-171.14,-123.05,75.07
944,1747401057340,0.3,0.55,0.14,-171.14,-123.05,75.07
945,1747401057350,0.3,0.55,0.14,-171.14,-123.05,75.07
946,1747401057360,0.54,0.68,0.23,-109.8,-103.15,-1.16
947,1747401057370,0.54,0.68,0.23,-109.8,-103.15,-1.16
948,1747401057380,0.54,0.68,0.23,-109.8,-103.15,-1.16
949,1747401057390,0.66,0.55,0.17,10.38,24.17,-35.46
950,1747401057400,0.66,0.55,0.17,10.38,24.17,-35.46
951,1747401057410,0.66,0.55,0.17,10.38,24.17,-35.46
952,1747401057420,0.66,0.55,0.17,10.38,24.17,-35.46
953,1747401057430,0.53,0.61,0.27,140.08,129.21,-105.53
954,1747401057440,0.53,0.61,0.27,140.08,129.21,-105.53
955,1747401057450,0.53,0.61,0.27,140.08,129.21,-105.53
956,1747401057460,0.53,0.61,0.27,140.08,129.21,-105.53
957,1747401057470,0.58,0.8,0.45,226.26,112.12,-184.94
958,1747401057480,0.58,0.8,0.45,226.26,112.12,-184.94
959,1747401057490,0.58,0.8,0.45,226.26,112.12,-184.94
960,1747401057500,0.6499999999999999,0.815,0.485,224.335,100.28,-205.54
961,1747401057510,0.72,0.83,0.52,222.41,88.44,-226.14
962,1747401057520,0.72,0.83,0.52,222.41,88.44,-226.14
963,1747401057530,0.72,0.83,0.52,222.41,88.44,-226.14
964,1747401057540,0.72,0.83,0.52,222.41,88.44,-226.14
965,1747401057550,0.83,0.6,0.39,197.51,83.25,-201.78
966,1747401057560,0.83,0.6,0.39,197.51,83.25,-201.78
967,1747401057570,0.83,0.6,0.39,197.51,83.25,-201.78
968,1747401057580,0.7949999999999999,0.51,0.375,195.04,90.18,-185.15
969,1747401057590,0.76,0.42,0.36,192.57,97.11,-168.52
970,1747401057600,0.76,0.42,0.36,192.57,97.11,-168.52
971,1747401057610,0.76,0.42,0.36,192.57,97.11,-168.52
972,1747401057620,0.86,0.26,0.45,175.175,100.465,-152.68
973,1747401057630,0.86,0.26,0.45,157.78,103.82,-136.84
974,1747401057640,0.86,0.26,0.45,157.78,103.82,-136.84
975,1747401057650,0.86,0.26,0.45,157.78,103.82,-136.84
976,1747401057660,1.1,0.15,0.58,144.535,95.335,-129.82
977,1747401057670,1.34,0.04,0.71,131.29,86.85,-122.8
978,1747401057680,1.34,0.04,0.71,131.29,86.85,-122.8
979,1747401057690,1.705,0.075,1.075,131.29,86.85,-122.8
980,1747401057700,2.07,0.11,1.44,119.2,-29.05,-74.58
981,1747401057710,2.07,0.11,1.44,119.2,-29.05,-74.58
982,1747401057720,2.07,0.11,1.44,119.2,-29.05,-74.58
983,1747401057730,2.07,0.11,1.44,119.2,-29.05,-74.58
984,1747401057740,2.79,0.25,1.75,-3.85,-17.21,10.62
985,1747401057750,2.79,0.25,1.75,-3.85,-17.21,10.62
986,1747401057760,2.79,0.25,1.75,-3.85,-17.21,10.62
987,1747401057770,2.52,0.67,1.78,-53.89,7.69,106.87
988,1747401057780,2.52,0.67,1.78,-53.89,7.69,106.87
989,1747401057790,2.52,0.67,1.78,-53.89,7.69,106.87
990,1747401057800,2.52,0.67,1.78,-53.89,7.69,106.87
991,1747401057810,1.69,0.68,1.2,-179.14,-9.46,134.89
992,1747401057820,1.69,0.68,1.2,-179.14,-9.46,134.89
993,1747401057830,1.69,0.68,1.2,-179.14,-9.46,134.89
994,1747401057840,1.69,0.68,1.2,-179.14,-9.46,134.89
995,1747401057850,1.02,0.59,0.56,-233.09,-41.75,162.41
996,1747401057860,1.02,0.59,0.56,-233.09,-41.75,162.41
997,1747401057870,1.02,0.59,0.56,-233.09,-41.75,162.41
998,1747401057880,1.02,0.59,0.56,-233.09,-41.75,162.41
999,1747401057890,0.62,0.64,0.24,-251.04,-76.29,195.43
1000,1747401057900,0.62,0.64,0.24,-251.04,-76.29,195.43
