id,timestamp,acc_x,acc_y,acc_z,gyro_x,gyro_y,gyro_z
0,1747679238510,-0.20027786368421055,0.40275225789473684,0.826811294736842,-0.1937798742105263,-0.6408121368421053,-0.3725759642105263
1,1747679238520,-0.07015967822222222,0.38597652222222223,0.8743554666666666,-0.2598947394444444,-0.6472660666666666,-0.2824428288888889
2,1747679238530,0.030934256,0.4055011,0.9472472000000001,-0.28202856,-0.5949497,-0.2894854
3,1747679238540,0.030934256,0.4055011,0.9472472000000001,-0.28202856,-0.5949497,-0.2894854
4,1747679238550,0.1739518,0.41575152,0.9574976,-0.27457172,-0.1155811,-0.50147283
5,1747679238560,0.1458581011111111,0.4206868933333333,0.8887819444444445,-0.29457499333333337,-0.050185752666666666,-0.6214925638888888
6,1747679238570,0.07676563691578947,0.4274405684210526,0.7827012578947369,-0.3453836989473684,-0.28753709031578945,-0.7317379894736842
7,1747679238580,0.0060404167,0.4352761,0.67878425,-0.4567318,-1.1520827,-0.8114646
8,1747679238590,-0.06034315771578947,0.4536189478947369,0.7604535473684211,-0.550475,-1.8061544999999999,-0.78909403
9,1747679238600,-0.034036353368421056,0.4245375952631579,0.8152764368421053,-0.6100176168421052,-1.9989112894736842,-0.7396433594736842
10,1747679238610,0.020087267333333332,0.40387407555555555,0.8675760455555556,-0.7242313555555556,-1.8430244833333331,-0.6760577266666667
11,1747679238620,0.02949702861111111,0.4421368055555555,0.91090974,-0.80146296,-1.6233434722222222,-0.6422652144444444
12,1747679238630,0.036663179894736844,0.5631877684210526,1.051652305263158,-0.8426936210526316,-1.3672097578947369,-0.6082795273684211
13,1747679238640,0.07242399,0.63101,1.1581126,-0.7912246,-1.2852405,-0.6016076
14,1747679238650,0.12123543736842106,0.6690315789473683,1.2123190210526316,-0.7219263684210526,-1.3195532368421052,-0.6312107157894736
15,1747679238660,0.28551308444444445,0.7863931577777777,1.3727203444444445,-0.5224230444444444,-1.6544136777777778,-0.8158439888888889
16,1747679238670,0.35072631157894735,0.8474502115789475,1.5081935526315788,-0.3647266421052631,-2.0841884210526316,-1.0270963894736842
17,1747679238680,0.31090644368421055,0.8995243242105263,1.7255329684210527,-0.10637217668421052,-2.8039701894736844,-1.3412930421052631
18,1747679238690,0.19971910842105264,0.9445336257894738,1.9741372631578944,0.19201377,-3.226151,-1.5411701
19,1747679238700,0.136367,0.9736663699999999,2.051362,0.4281658973684211,-3.016238031578947,-1.5391517315789474
20,1747679238710,0.09780595,1.0454192,2.0908995,0.58935714,-2.4037673,-1.4239912
21,1747679238720,0.09323308052631579,1.1230550736842104,2.1328259315789473,0.5351407642105264,-2.0263275684210527,-1.3573841526315789
22,1747679238730,0.12478069526315788,1.146921347368421,2.2433968263157893,0.4028799063157895,-1.5796458578947368,-1.3614770315789473
23,1747679238740,0.13441454,1.0864209,2.3247063,0.28682223,-1.4492912,-1.4026859
24,1747679238750,0.08148122444444444,0.9844591222222222,2.390656077777778,0.14478707444444447,-1.4123621333333332,-1.3809071444444445
25,1747679238760,-0.04474918315789474,0.8340142789473685,2.458501063157895,-0.09981240315789473,-1.4306210210526316,-1.1837461368421052
26,1747679238770,0.19753543157894737,0.5442027210526316,2.677921289473684,-0.2856728584210526,-1.3141709210526316,-1.0331516105263159
27,1747679238780,0.5050218631578948,0.30810944105263155,2.9242393894736844,-0.16092489184210526,-1.4483379894736843,-1.3925378473684211
28,1747679238790,0.5063578,0.25857866,3.1032488,0.067377925,-1.4333122,-1.7275912999999998
29,1747679238800,0.5137822368421053,0.22495014578947367,3.284930215789474,0.4670760447368421,-0.6006124578947368,-1.7964970631578947
30,1747679238810,0.6475769842105263,0.05783515105263158,3.474909563157895,1.0669316263157895,0.5188674947368421,-1.867365089473684
31,1747679238820,0.8387637,-0.140699,3.6157689999999993,1.5331807,1.105211,-1.9246651000000001
32,1747679238830,1.1134095499999999,-0.6814214333333334,3.661434977777778,2.617619,2.2556958,-2.5052338
33,1747679238840,1.0276641,-0.8538342999999999,3.666045,3.4858088,2.551839,-2.8727498
34,1747679238850,0.88269407,-0.96658874,3.4214994999999995,3.4858088,2.551839,-2.8727498
35,1747679238860,0.8835554758823528,-1.0113803811764706,3.189788588235294,5.030316011764706,2.577092035294118,-3.1187630235294117
36,1747679238870,0.9212551,-1.0495682,2.6590648,6.225667,2.3792663,-3.3233562
37,1747679238880,0.9212551,-1.0060232236842104,2.2451950631578947,6.588137263157895,2.0487543263157892,-3.481463857894737
38,1747679238890,0.8752503425,-0.944440586875,1.83222936875,6.741188187500001,1.7394423812500002,-3.61736906875
39,1747679238900,0.7824678822222222,-0.8816568444444445,1.6664025555555555,6.752262311111111,1.4651517444444446,-3.6194995111111115
40,1747679238910,0.6419559555000001,-0.8260850040000001,1.5942673749999998,6.835903399999999,1.02904464,-3.45747292
41,1747679238920,0.78799987,-0.8182019,1.4436597,6.907436,0.5672529,-3.4810152
42,1747679238930,0.5340718655555556,-0.8991746500000001,0.9297293355555555,6.6491093333333335,1.37241465,-3.465036366666667
43,1747679238940,0.45930353749999997,-0.9440134725,0.6651170630000001,6.192004519999999,2.6314675000000003,-2.9693692
44,1747679238950,0.5350991470588236,-0.9150782294117646,0.4368229764705882,5.6006705,3.5188477764705883,-2.591896111764706
45,1747679238960,0.503249212631579,-0.9251246263157894,0.32243495157894736,5.145882031578947,4.117608578947368,-2.3571060736842107
46,1747679238970,0.46486804,-0.9431593,0.28682828,4.8078012,4.536425,-2.126
47,1747679238980,0.4883746110526316,-0.9597294526315789,0.2610095852631579,4.541373347368421,4.831110578947369,-1.8585626315789472
48,1747679238990,0.4914060752631579,-0.9619902,0.21240366421052634,4.4000856105263155,4.80980547368421,-1.7111637999999998
49,1747679239000,0.45095679666666666,-0.96008057,0.14397344666666667,4.24427658888889,4.642004472222222,-1.5322929833333334
50,1747679239010,0.4045473657894737,-0.9742701157894736,0.06584086810526317,4.0689006315789475,4.0880050789473685,-1.2469892473684212
51,1747679239020,0.37700745,-0.9866014,0.030080057999999996,4.038961157894737,3.567539947368421,-1.0897225684210528
52,1747679239030,0.2944347433333333,-0.9778153761111111,-0.029632616555555553,4.086380844444444,3.0500273555555553,-0.9641523444444444
53,1747679239040,0.153451,-0.93632567,-0.17541614,4.1356196,2.7063022,-0.8135951
54,1747679239050,0.006908176222222223,-0.8280456455555556,-0.3748109122222222,4.122185455555556,2.716718111111111,-0.7835309933333333
55,1747679239060,-0.1168017263888889,-0.6569614661111111,-0.6358166166666668,3.8938049999999995,2.8937886,-0.27244118
56,1747679239070,-0.097439855,-0.49653443999999997,-0.9529825,3.405914,3.3657005,0.1792306
57,1747679239080,-0.03455015710526316,-0.44659264421052636,-1.1051201105263158,3.158100168421053,3.5344045631578944,0.34602848
58,1747679239090,0.03687298333333333,-0.38036323333333333,-1.33891845,2.7667559333333336,3.54892585,0.5769290433333334
59,1747679239100,0.11251446100000001,-0.2766877126666667,-1.6615295399999999,2.3397272533333333,2.96075824,0.8761261066666666
60,1747679239110,0.26522923,-0.10994779,-2.063443,1.9475683,2.0447736,1.1848395
61,1747679239120,0.5303838472222222,0.12272012,-2.1881290888888887,1.774936388888889,1.4676965444444443,1.224905261111111
62,1747679239130,0.8214627866666666,0.3155253422222222,-2.163235311111111,1.5272626444444444,0.2664934488888889,1.03002116
63,1747679239140,0.9993534,0.38060728,-2.1844954,1.6406391875,-0.1711079775,0.5439502574999999
64,1747679239150,0.8963613,0.36840442,-2.4373386,1.7515597,-0.5299687,0.02476738
65,1747679239160,0.5119068521052631,0.2892270936842105,-2.7132776210526317,1.6905032947368421,-1.2681963894736843,-0.43458550842105265
66,1747679239170,0.24044384888888887,0.1720739222222222,-2.789757266666667,1.5310502,-2.111885,-0.611195
67,1747679239180,0.13587888,0.07748818,-2.7780426,1.4511554,-2.5433168,-0.6303698
68,1747679239190,-0.06912921166666666,-0.06894617333333335,-2.7284176833333333,1.4184873333333332,-2.9474069333333333,-0.5977016666666667
69,1747679239200,-0.355896465,-0.161687922,-2.6879855000000004,1.4250565,-3.3449278,-0.47484125
70,1747679239210,-0.8483654105263158,-0.27572689052631577,-2.595873089473684,1.6709922157894737,-3.9952150315789474,0.1141934557894737
71,1747679239220,-1.1268462166666666,-0.34953066055555554,-2.6511871388888886,2.0884197555555555,-4.681951977777778,1.0079465722222223
72,1747679239230,-0.9446781789473685,-0.559732444736842,-3.0050160105263157,2.5091864736842107,-5.251273136842105,2.0215199894736844
73,1747679239240,-0.7211688166666668,-0.781674675,-3.367603566666667,2.5047011666666665,-5.336083,2.47025765
74,1747679239250,-0.5987334,-0.9163129,-3.6844714,2.249038,-5.275718,2.7134929
75,1747679239260,-0.570544855,-1.1324256833333333,-3.852260541666667,1.6250596083333333,-4.965193958333334,2.93808595
76,1747679239270,-0.5866003264285714,-1.3949440928571428,-3.6744299214285716,0.8488248685714286,-4.381809785714286,3.243385385714286
77,1747679239280,-0.52893305,-1.556231,-3.5185125,-0.15632744,-3.327351,3.7798216
78,1747679239290,-0.4731157205882353,-1.6036068588235295,-3.490431547058823,-0.3286494870588235,-3.130277235294118,3.877262011764706
79,1747679239300,-0.20659766052631579,-1.9343399526315792,-3.4225593368421054,-1.5648652736842106,-2.1398623999999997,4.523095631578947
80,1747679239310,0.14710551,-2.46744314,-3.2727955599999996,-3.2727298,-1.84983036,5.383256599999999
81,1747679239320,0.20567925,-2.5563776,-3.2383347,-4.012449,-1.9073546,5.756951
82,1747679239330,1.6653855361111112,-3.6121694333333334,-2.5258231222222225,-7.065908722222222,-3.8933610888888888,7.071900527777777
83,1747679239340,2.992633236842105,-4.558135026315789,-1.8576385368421056,-8.77546694736842,-5.471053894736842,7.270914910526316
84,1747679239350,4.0896063,-5.303974,-1.1008812,-9.985382,-6.8523083,7.0864
85,1747679239360,4.770038,-5.6046524,-0.6347319,-10.526536,-7.496792999999999,6.868021000000001
86,1747679239370,5.640346,-5.77354,-0.04753015,-10.98673,-7.651256,6.352433
87,1747679239380,5.660129,-5.76481138235294,0.0377463294117647,-11.155292235294116,-6.760257035294118,5.2411753647058825
88,1747679239390,5.976657,-5.6251535,1.40217,-10.971816,-5.3556128,3.9939395999999996
89,1747679239400,5.331915264705882,-5.385259823529411,1.6627368529411766,-10.699860235294118,-4.452895929411764,3.2412368470588233
90,1747679239410,4.374285822222222,-5.181674133333334,1.7870753666666666,-10.222048555555554,-3.7383061111111107,2.5155313111111113
91,1747679239420,4.125239,-5.1326456,1.8126743,-10.19737,-3.7076502000000002,2.4823306
92,1747679239430,3.1957402210526316,-5.057630315789474,1.6987893842105264,-9.549072315789473,-5.112564484210527,3.0328475894736844
93,1747679239440,3.2866578,-5.111657,1.7462906,-9.386348222222223,-5.970625044444445,3.4618996666666666
94,1747679239450,3.530997805263158,-5.114174578947368,2.147572015789474,-9.279223421052631,-6.264282684210526,3.692862521052632
95,1747679239460,3.6913047,-5.0320945,2.5467982,-8.936097,-6.2834578,3.7766259
96,1747679239470,3.7264493,-4.7524047,3.0559018,-8.160416631578949,-6.366043536842106,3.7741027999999996
97,1747679239480,3.593624382352941,-4.169423676470588,3.4122254470588236,-6.658814235294118,-6.617386494117647,3.781576164705882
98,1747679239490,3.461762642105263,-3.5286502315789474,3.4912229210526315,-5.17022197368421,-6.664205005263159,3.789240884210526
99,1747679239500,3.3364456,-2.9829898,3.1823235,-3.6523894999999995,-6.0011625,3.6903396
100,1747679239510,3.150962,-2.5856645,2.6707795,-2.643718,-4.8176546,3.501788
101,1747679239520,2.8681268444444448,-2.3035886111111115,2.0698021222222223,-2.1581945777777776,-3.4969646,3.2441125555555557
102,1747679239530,2.3821817999999997,-2.0375119,1.4005429666666667,-2.1217389333333334,-2.1360311333333333,2.9084360666666664
103,1747679239540,1.7985766736842106,-1.872863147368421,0.9326038157894736,-2.550808863157895,-1.3397372105263157,2.6694244789473682
104,1747679239550,1.095178,-1.6448367052631578,0.6953287421052632,-3.4515032315789473,-1.2642156105263158,2.826803257894737
105,1747679239560,0.9529825000000001,-1.4224876,0.6987969,-3.9709034000000005,-1.5952322,3.2834089
106,1747679239570,1.3230817888888888,-1.3300712444444445,0.72656522,-4.640954,-2.1267989,3.7425374999999996
107,1747679239580,2.0388575263157893,-1.3010499105263158,0.8920645484210525,-5.468944484210526,-2.652478394736842,3.6887137526315796
108,1747679239590,2.4431960166666666,-1.1260394833333334,1.5031283333333334,-6.40929175,-3.1163399750000003,3.3736012
109,1747679239600,2.6457636,-0.9885539,2.288586,-7.0420585,-3.5840795000000005,3.2407982
110,1747679239610,2.9049523,-0.87970436,2.9821963,-7.2295446,-3.839743,3.3771520000000006
111,1747679239620,3.889296375,-0.516425136875,4.06608535625,-7.0019111875,-3.5186324375,3.6506585124999997
112,1747679239630,4.6079027111111115,-0.31793879666666663,4.557667361111111,-6.649863855555555,-3.0538741944444445,3.4656281222222223
113,1747679239640,5.679186278571429,0.21541539071428573,5.4914537,-5.573744707142858,-2.886788378571428,2.2723975285714286
114,1747679239650,6.2343067923076925,0.8595226692307693,6.744132338461538,-4.585150715384615,-3.4716532769230772,1.4963881846153848
115,1747679239660,7.4543017250000005,0.89886279,7.56266275,-3.092893125,-2.5798022499999997,0.4623244575
116,1747679239670,7.932044,0.2598802833333333,7.721707333333334,-2.0152125,-1.16167,-0.74967927
117,1747679239680,7.2950539999999995,-0.6122176,7.843328999999999,-0.30866015,1.2064111,-2.5766065
118,1747679239690,6.292467,-1.164275,7.859436499999999,2.1989706,3.2687614,-3.3915331
119,1747679239700,4.540882399999999,-2.3019837647058825,6.87976215882353,5.088466505882352,4.154057964705882,-3.0175628411764706
120,1747679239710,4.2750897,-2.8224,5.4501033,7.951394,3.780088,-2.2016337
121,1747679239720,4.440455892857143,-2.8079658000000003,4.558631892857143,9.16906592857143,2.783001185714286,-1.8722388642857144
122,1747679239730,4.802224647058824,-2.6526510352941175,3.1735660588235293,9.694854411764705,1.6164749058823529,-1.9762363294117644
123,1747679239740,5.231191105882353,-2.332246958823529,1.627506494117647,9.171684941176471,1.4950975235294117,-2.5037924470588235
124,1747679239750,5.359540571428572,-2.1719526285714283,1.016280492857143,8.2928874,1.7247379571428572,-3.1520008714285717
125,1747679239760,5.180166784615385,-1.8233422538461537,0.2589682,6.098736861538461,3.0984012923076922,-4.283814338461538
126,1747679239770,4.297280338461539,-1.7733294384615386,0.1723841969230769,2.824034323076923,5.764264692307692,-5.447246000000001
127,1747679239780,3.5829437,-1.9774739000000001,0.507456,1.3254542,7.331677,-5.533778
128,1747679239790,2.8703251352941175,-2.1651107411764703,1.2531514529411765,0.4955512470588235,8.701104764705883,-5.132738047058823
129,1747679239800,2.441272282352941,-2.3436458117647057,1.992845829411765,0.5439267352941176,9.448982235294118,-4.521025941176471
130,1747679239810,2.147940911111111,-2.444382511111111,2.6433906888888887,1.2817785,9.501619,-3.924165
131,1747679239820,2.054657,-2.5129354,3.1584058,2.888196,8.958335,-3.2328088
132,1747679239830,2.104905694444444,-2.642014511111111,3.279648005555556,4.264161833333333,8.320064166666667,-2.8031525499999996
133,1747679239840,2.3235267055555555,-2.8085972444444445,3.0618676666666667,4.539355,8.19241,-2.7172213
134,1747679239850,2.722668788888889,-3.0696572333333334,2.416119494444444,6.858197166666667,6.698377777777778,-2.4066969222222223
135,1747679239860,3.0466411555555557,-3.300725233333333,1.4484052833333332,8.838285555555556,5.142146022222223,-2.434926377777778
136,1747679239870,3.124332711111111,-3.4127474444444443,0.7319616477777777,9.240363,4.435225,-2.947318
137,1747679239880,2.9885998263157894,-3.422652294736842,0.07138995157894738,8.791775052631579,4.605947636842106,-3.382562405263158
138,1747679239890,2.8688319,-3.385196,-0.1602846,8.367912,4.8794403,-3.5662363
139,1747679239900,2.452701510526316,-3.234805494736842,-0.48665336000000003,7.003926157894737,5.950702931578948,-3.7167189052631584
140,1747679239910,2.1295010555555556,-3.1579785944444447,-0.5507219488888889,5.824891222222223,6.690329155555555,-3.565881255555556
141,1747679239920,1.8667330000000002,-3.0708501,-0.48341638,4.788626,7.0152936,-3.2882025
142,1747679239930,1.6943200388888888,-3.014147733333333,-0.3575642088888889,4.15586,7.0419254,-3.0740845
143,1747679239940,1.4328262055555556,-2.9142197722222223,-0.04381505305555555,3.4034286666666667,6.902671638888889,-2.720949611111111
144,1747679239950,1.1013692944444444,-2.715258811111111,0.4984530236111111,2.7376388666666664,6.543026833333333,-2.2051845
145,1747679239960,0.8982879947368422,-2.5530893052631582,0.9034453052631578,2.5488816157894734,6.1259106315789476,-1.718620657894737
146,1747679239970,1.02701325,-2.2338153,1.4071323833333333,2.9540057333333336,5.31773688888889,-0.8214070711111111
147,1747679239980,1.6362913789473685,-2.145745047368421,1.3575202105263158,3.4044565368421056,5.181918694736842,-0.58820772
148,1747679239990,1.977303605263158,-2.175365957894737,1.0939898315789474,3.7932216421052627,5.62630192631579,-0.7945324947368422
149,1747679240000,1.9214016999999999,-2.135623,0.6817129,3.9044575999999998,6.212085,-1.0053426
150,1747679240010,1.6418748555555556,-2.022841344444444,0.2858249261111111,3.763724516666667,6.613038344444444,-1.037359661111111
151,1747679240020,1.185890129473684,-1.9908585157894736,-0.2110485147368421,3.234518942105263,6.5020047631578946,-0.7144134315789474
152,1747679240030,0.88367033,-1.9345197999999997,-0.41019922,2.5462465,6.0064893,-0.0988032
153,1747679240040,0.7252771650000001,-1.8742376500000002,-0.43070002999999996,2.2442442,5.844569,0.33262855
154,1747679240050,0.6930744,-1.7564093105263159,-0.17497941684210527,1.4766656473684212,5.556163057894738,1.8181107421052631
155,1747679240060,0.9382877157894736,-1.7085741105263157,0.08505716315789473,1.3591502526315788,5.451206584210527,2.465118231578947
156,1747679240070,1.7094059052631578,-1.4440161105263158,0.7524381315789475,1.6966705789473686,5.2248097,3.669538905263158
157,1747679240080,2.648897842105263,-0.8950928431578946,0.9441642578947368,2.778361652631579,4.933488284210527,3.8140784526315783
158,1747679240090,3.116203105263158,-0.5601435336842105,0.6028438357894736,4.371098978947368,3.884483947368421,2.969436568421053
159,1747679240100,3.2716291052631576,-0.4992062368421053,-0.2878879894736842,5.663432078947369,2.182640947368421,1.7738180842105262
160,1747679240110,3.0377195,-0.5897643,-0.9402915,6.438551552631579,0.7685316936842105,0.9543500789473683
161,1747679240120,2.593779422222222,-0.38185467777777776,-1.6709718999999998,7.244236583333334,-0.3414170066666667,0.42708194166666663
162,1747679240130,2.1288505,0.06919023,-2.6848128,7.748994105263158,-0.7073070115789474,0.3163692894736842
163,1747679240140,1.978613894736842,0.40896929263157894,-3.4722440315789473,7.902391999999999,-0.6780403,0.2729738
164,1747679240150,1.9289803263157894,0.5487241757894736,-4.04744847368421,7.736883705263158,-0.5250908694736842,0.19044390315789472
165,1747679240160,1.7070109,0.84887179,-6.977020777777778,5.685992733333333,0.6354889475000001,-0.6537463905555555
166,1747679240170,1.048781405263158,0.6583187184210526,-7.184432263157895,3.096651347368421,1.279633952631579,-1.6003763947368421
167,1747679240180,-0.014862375294117647,0.6307229247058823,-6.3683258470588235,1.598537717647059,1.377730488235294,-2.1427935352941176
168,1747679240190,-1.3073728789473684,0.4592194063157895,-5.001841105263158,1.5224719789473684,0.5949497084210527,-1.9973272263157895
169,1747679240200,-1.0569644733333332,0.27457795,-4.833818411111111,2.3374548,-0.80267614,-1.4708627
170,1747679240210,-0.82570666,-0.22221413,-5.0433817,3.106575,-1.7592830000000002,-1.2397006
171,1747679240220,-1.2943779988888888,-0.48189106722222225,-5.684005194444444,2.9902245333333335,-1.755732111111111,-1.0345781666666667
172,1747679240230,-1.5167998242105265,-0.7308294599999999,-6.247765947368421,1.9587253684210524,-1.7124113157894736,0.6814182894736842
173,1747679240240,-0.9091742599999999,-0.82747614,-6.3832564,1.1028142,-1.585645,1.3190627
174,1747679240250,-0.15614204694736844,-0.9955930747368422,-6.24678987368421,-0.8466183000000002,-2.2940452,1.9273281999999998
175,1747679240260,0.5719820851111111,-1.2567999333333333,-5.611113511111111,-2.5791142166666665,-3.5519440500000004,1.9427154333333334
176,1747679240270,0.8934325873684211,-1.6280095684210527,-4.619852742105263,-4.5052732631578944,-4.921938552631579,2.024771789473684
177,1747679240280,1.2212143263157895,-1.9529139736842105,-3.120724663157895,-5.915233947368422,-5.783119947368421,2.420769536842105
178,1747679240290,1.7627646,-2.2327578,-1.8730783000000002,-6.769351,-6.317546,2.8722172
179,1747679240300,2.5881919263157895,-2.5694027052631583,-0.668000752631579,-6.9580710526315785,-6.7989332631578945,2.9458886421052632
180,1747679240310,3.0216888684210526,-2.7641346736842105,0.07244324736842106,-6.871223815789473,-6.972458894736842,2.840091005263158
181,1747679240320,3.351063294736842,-2.9444542315789475,0.816817852631579,-6.421906768421053,-7.127314384210527,2.541592963157895
182,1747679240330,3.4505102210526313,-2.9659570947368423,1.1417480210526316,-5.766601263157894,-7.231710394736843,2.2892936052631576
183,1747679240340,3.424357521052632,-2.9734072736842108,1.1915100315789473,-5.3418975,-7.292262,2.160621
184,1747679240350,3.3901381,-3.055719,1.0809906,-5.100531315789474,-7.202275421052631,2.1395959736842105
185,1747679240360,3.4028034578947373,-3.0941514368421053,0.9967008957894736,-4.9836888526315795,-6.966347568421053,2.1440813315789473
186,1747679240370,3.367413677777778,-3.1433625000000003,0.8375298733333333,-5.101029666666666,-6.350450577777778,2.1304384444444446
187,1747679240380,3.2503652588235297,-3.2143272647058825,0.7664438470588235,-5.355934041176471,-5.781404929411765,2.1072951764705885
188,1747679240390,2.9868981647058823,-3.3221143235294117,0.7640320105882353,-6.066151723529411,-4.862897211764706,2.1057912
189,1747679240400,2.95672298125,-3.3400758625,0.787572765625,-6.422075,-4.6386905,2.1297283
190,1747679240410,2.6935987,-3.5418808,1.1161348,-6.7138242375,-4.59954195,2.1987041124999998
191,1747679240420,2.540493633333333,-3.4353632333333333,1.3376845666666666,-6.7194018,-4.754567733333333,2.401015422222222
192,1747679240430,2.504870870588235,-3.3089353,1.525146094117647,-6.492069300000001,-4.932703317647059,2.628522394117647
193,1747679240440,2.55351,-3.2514527,1.5910702,-6.1823907,-5.096754,2.8285413
194,1747679240450,2.6261243470588234,-3.174359482352941,1.5234232941176469,-5.722697958823529,-5.330986411764705,2.9528010882352937
195,1747679240460,2.6408825,-3.0371704,1.3714187,-5.2843733,-5.662409,2.993657
196,1747679240470,2.5858339555555556,-2.949852088888889,1.319787011111111,-5.1460074888888885,-5.948254777777779,2.992828588888889
197,1747679240480,2.4308306,-2.822074666666667,1.2690230999999998,-4.9900056,-6.433304555555555,3.068343988888889
198,1747679240490,2.327946783333333,-2.742945933333333,1.3106484444444444,-4.905021133333333,-6.673758299999999,3.344128922222222
199,1747679240500,2.3197802736842106,-2.6537434631578947,1.4743594210526316,-4.807023105263158,-6.6644293368421055,3.659615178947368
200,1747679240510,2.288545233333333,-2.4916211666666666,1.7345759833333334,-4.597100633333333,-6.25540575,3.9248750833333332
201,1747679240520,2.297005733333333,-2.3267197,1.9399908,-4.333447961111111,-5.757809355555555,4.128991477777777
202,1747679240530,2.432782977777778,-2.175756788888889,2.0410033,-3.7026936888888886,-4.773150466666666,4.41578391111111
203,1747679240540,2.641396342105263,-2.1434841052631577,1.8990446842105262,-3.1989797105263156,-4.156462536842105,4.395544231578947
204,1747679240550,2.8062760473684207,-2.213310284210526,1.584493494736842,-2.9567723,-3.9025933999999998,4.242146
205,1747679240560,2.8346639,-2.1849227,1.4124203,-2.951446,-3.8589175,4.096205
206,1747679240570,2.7992885105263157,-2.0023678421052633,1.2359797157894736,-3.18126962631579,-3.918011736842105,3.830281515789474
207,1747679240580,2.7951267,-1.9808908,1.215222,-3.2083077,-3.9249639999999997,3.7989964000000005
208,1747679240590,2.7951267,-1.9808908,1.215222,-4.011161655555555,-3.3009561777777776,3.5092447555555553
209,1747679240600,1.954978878947368,-1.0218998484210526,1.9723647526315788,-4.071823378947369,-2.5782464315789473,3.6512051368421052
210,1747679240610,1.4262994,-0.21401895200000004,2.635147105263158,-3.667864036842105,-2.434772157894737,4.180248663157895
211,1747679240620,1.6913370444444444,0.00047455599999999946,2.774368111111111,-3.3559504,-3.318355361111111,4.6125026
212,1747679240630,3.0661328947368425,0.20452640421052629,3.0354264842105265,-3.0228956947368424,-6.110324263157895,5.343011952631579
213,1747679240640,5.394644536842105,0.6182933578947368,3.523489536842105,-2.9153602,-8.294675,5.5044837
214,1747679240650,7.445316368421054,1.132303557894737,3.847417842105263,-3.095565057894737,-8.0307702,4.865381478947368
215,1747679240660,7.898800315789473,1.3975808947368422,4.186914578947369,-3.778258805263158,-5.76899127368421,3.1818162842105266
216,1747679240670,7.278946000000001,1.640919,5.5487022,-5.1426935,-1.1446258,0.5946834
217,1747679240680,6.646555842105263,1.3138051789473686,7.22445107368421,-5.191303210526316,0.3718050684210526,0.1104930657368421
218,1747679240690,6.447302368421052,0.7407587157894738,9.18990757894737,-4.153511789473684,1.327290489473684,-0.27345038121052634
219,1747679240700,6.340944421052632,-0.39683067368421054,10.401818842105262,-0.4795227999999999,2.4402106736842106,-1.009042985263158
220,1747679240710,4.834982894736842,-1.6496150684210524,9.709929947368423,3.3228235,3.3465257,-1.3323785
221,1747679240720,4.419494736842105,-1.7535834157894739,7.877959642105262,6.959185052631579,3.591760678947368,-0.44036033989473683
222,1747679240730,4.8360961666666675,-1.8546317666666665,5.631356566666667,9.146619833333334,2.83803995,0.02583264333333333
223,1747679240740,5.1363034947368424,-1.7381178368421053,3.3106977789473686,9.807643842105263,1.6180513526315792,-0.29778324157894737
224,1747679240750,5.2332587,-1.4669061,2.165581,9.269125,1.0423604,-0.784833
225,1747679240760,5.625214661111111,-1.1110163888888889,1.266691,7.4661072,1.9313229444444444,-1.7880154222222222
226,1747679240770,5.9205236,-0.9333970000000001,0.7275957,5.6536202,3.516968,-2.8003118
227,1747679240780,5.907345,-1.1242497,0.5567556,3.6669037,5.7018237,-4.034952
228,1747679240790,5.419949631578947,-1.3675105736842106,0.6078534842105263,2.496235152631579,6.973860584210526,-4.808221389473684
229,1747679240800,4.144121115789473,-1.6638474684210527,0.919142052631579,1.02050858,8.93276794736842,-5.594666463157895
230,1747679240810,3.1668902315789476,-1.872246705263158,1.381181005263158,0.5542594810526316,9.620760263157894,-5.604085731578947
231,1747679240820,1.9828528842105266,-2.112655968421053,2.3374486105263155,0.8738385621052631,9.76759847368421,-4.9125615157894735
232,1747679240830,1.4326962789473683,-2.25431167368421,3.0799220842105264,2.287107094736842,9.14554052631579,-3.7144762736842103
233,1747679240840,1.5108973444444445,-2.581163011111111,3.434407311111111,4.538762977777777,7.799682577777777,-2.217612533333333
234,1747679240850,1.8457439,-2.8370435,3.3360794,5.8229976,6.872548599999999,-1.568867
235,1747679240860,2.601139705263158,-3.2119411263157893,2.7627504315789473,7.772429642105264,5.2890618157894735,-1.0555220368421052
236,1747679240870,3.1251462333333335,-3.3829723555555558,2.1471412,9.14058411111111,4.026400877777778,-1.08334355
237,1747679240880,3.5546583,-3.5360748105263164,1.4867935610526317,9.920001157894738,3.2420177947368423,-1.5513181842105264
238,1747679240890,3.716687,-3.6609806999999996,0.81203943,10.150098,3.0674267,-2.0791283
239,1747679240900,3.617025176470588,-3.6378382529411764,0.28013822823529416,9.847062,3.161420582352941,-2.6761772882352943
240,1747679240910,3.344255157894737,-3.4835637315789474,-0.26743856,8.851485978947368,3.5138841631578948,-3.3466799578947373
241,1747679240920,3.0244890263157895,-3.2640665052631577,-0.4750670710526316,7.521027599999999,4.103928,-3.6035205999999995
242,1747679240930,2.652380111111111,-3.0189745555555554,-0.3716652970388889,6.320357255555555,4.81735915,-3.50196535
243,1747679240940,2.4202547,-2.9009864,-0.0060404167,5.288235,5.3385687,-3.2413309
244,1747679240950,2.2533195,-2.7667549,0.47475237,4.62138,5.409941,-2.9206865
245,1747679240960,2.1446327166666665,-2.7363292166666664,0.831889475,4.468810355555556,5.215589777777778,-2.6653784
246,1747679240970,2.060796794736842,-2.7025551789473683,1.0474647999999998,4.530888452631579,5.014392231578947,-2.3960724368421054
247,1747679240980,1.9347349,-2.6829536894736843,1.210109652631579,4.761995,4.8357644,-2.0993683
248,1747679240990,1.7881465,-2.7296581,1.2410922,5.244390831578947,4.522913315789474,-1.6502755947368422
249,1747679241000,1.7207866999999997,-2.7525997,1.0775738,5.535376,4.2711744,-1.3547491
250,1747679241010,1.8325390684210527,-2.682850647368421,0.7696763,5.782629263157895,3.8920526315789474,-1.0792382368421054
251,1747679241020,2.040772655555555,-2.6126193666666664,0.3500662333333333,5.859334611111111,3.465835288888889,-0.9476999455555555
252,1747679241030,2.2830944,-2.5256264,-0.16614197,5.5897045,3.2815447,-1.1651322
253,1747679241040,2.1644826,-2.3201303,-0.5214893,5.1193066842105255,3.350842810526316,-1.4280279736842105
254,1747679241050,1.845666747368421,-1.9484695,-0.7105951168421052,4.302081368421053,3.569502273684211,-1.6041889736842105
255,1747679241060,1.7904513,-1.8835659555555557,-0.7403544027777778,3.9496719277777776,3.754166672222222,-1.58247875
256,1747679241070,1.4894204,-1.5235273,-0.8680506299999999,3.5774217,4.0197725,-1.5422355
257,1747679241080,1.4894204,-1.5235273,-0.8680506299999999,3.5027410999999997,4.005980110526316,-1.5239578157894738
258,1747679241090,1.0855955842105263,-1.4567070421052633,-1.5020342894736842,2.8492858526315787,3.8695700631578944,-1.3560385999999998
259,1747679241100,1.0388907,-1.4312738,-1.7202985,2.5132232,3.5244248,-1.1299784
260,1747679241110,1.1851894500000002,-1.3064792166666666,-1.8214737444444442,2.2000949444444444,3.123589661111111,-0.9099422994444445
261,1747679241120,1.507634705263158,-1.1673066210526315,-1.8887751263157895,1.8558995263157898,2.6705878789473685,-0.83114392
262,1747679241130,1.59495074,-1.15187696,-2.10654355,1.6675105049999999,2.3425147950000005,-0.9642234000000001
263,1747679241140,1.2224217333333334,-0.8274760905555555,-2.5208062666666664,1.4808052666666667,2.5220117777777777,-1.2162647777777778
264,1747679241150,0.42619851444444445,-0.33079249555555557,-2.7880218666666665,1.1503959888888888,3.2894748444444444,-1.6727894444444444
265,1747679241160,-0.41422616999999995,-0.04356422,-2.6882296,1.2242543,3.6938015999999996,-1.7883114
266,1747679241170,-1.0979661266666667,0.11702544777777778,-2.712526911111111,1.7777179333333335,3.2414197555555555,-1.5795196777777778
267,1747679241180,-1.7974277705882353,0.3259671776470588,-3.254298911764706,2.7917583117647062,1.966570694117647,-1.0130500588235294
268,1747679241190,-1.9327503,0.33374828,-3.981733,3.5710301,0.6833666,-0.4503402
269,1747679241200,-1.8897963,0.24003032,-4.782241,3.7933741388888884,0.03746176996666667,-0.22397167555555553
270,1747679241210,-1.9596223736842104,-0.018464856842105262,-5.887434747368421,3.4320412631578954,-0.37494478483157895,-0.05423032842105263
271,1747679241220,-2.1397366210526316,-0.08066092210526316,-6.498400052631579,2.5533107263157895,-0.31254275263157894,0.07219964842105264
272,1747679241230,-2.345966366666667,-0.29440085,-6.580454633333334,0.42862062222222225,-0.2331152,0.5275718255555556
273,1747679241240,-2.2280595,-0.4804267,-6.126508,-0.7326351,-0.5384908,0.88123935
274,1747679241250,-1.9957683894736844,-0.6276574505263158,-5.518368715789474,-0.7326351,-0.5384908,0.88123935
275,1747679241260,-1.4388071976470589,-0.9330811058823529,-3.8494826705882352,-1.4643381,-2.935334,2.1744695
276,1747679241270,-0.7149303757894737,-1.1677432578947369,-2.9955874684210526,-1.1775929368421052,-3.297804,2.5546003684210525
277,1747679241280,-0.10098511052631579,-1.3561555210526317,-2.803116236842105,-0.2760294284473684,-4.418685710526316,3.7711873789473684
278,1747679241290,0.4440075473684211,-1.5596992263157896,-2.9778354631578945,-0.03516771692105263,-4.769437763157895,4.286887105263157
279,1747679241300,0.8753722789473684,-1.7497555315789473,-3.143434789473684,-0.20970275631578947,-4.9792945263157895,4.638760368421053
280,1747679241310,1.3498195,-2.0702155,-3.1485214,-0.9595362500000001,-5.108472,4.932437
281,1747679241320,1.4770955125,-2.219700675,-3.0908629249999997,-1.47778698125,-5.067459,5.055475125
282,1747679241330,1.7346979,-2.5284331250000003,-2.8560188999999996,-2.627905475,-4.9113978750000005,5.351085775
283,1747679241340,2.1236439333333337,-2.9109929333333335,-2.4855807000000003,-4.102463616666666,-4.84357625,5.675458533333333
284,1747679241350,2.5195732157894737,-3.2511443210526316,-2.0800388684210525,-5.423082105263157,-4.889251721052632,5.830622484210526
285,1747679241360,3.1285089555555556,-3.736855266666667,-1.3140246400000002,-7.063718555555555,-4.953416744444445,5.889043688888889
286,1747679241370,3.6227375157894737,-4.059102263157895,-0.5420415436842105,-8.053105894736843,-4.924909978947368,5.677112526315789
287,1747679241380,4.110851831578947,-4.4018358157894735,0.24770204736842102,-8.677462315789475,-4.632130678947369,5.2118724210526315
288,1747679241390,4.3313374705882355,-4.589489647058823,0.6530577064705883,-8.96341776470588,-4.204000388235293,4.652460647058824
289,1747679241400,4.327652105263158,-4.738660578947368,0.9942089473684209,-9.154812578947368,-3.7032768315789477,3.915895473684211
290,1747679241410,4.00740766,-4.7546012,1.2329405599999999,-9.316396600000001,-3.277922725,3.2239670499999997
291,1747679241420,3.7332826,-4.761191,1.3616564,-9.437837,-3.0876667,2.843455
292,1747679241430,3.4492001999999995,-4.740202,1.4802682,-9.49323,-3.0386646,2.710297
293,1747679241440,3.1937105842105264,-4.598263552631579,1.6612816368421053,-9.461889052631578,-3.110093305263158,2.6272064736842102
294,1747679241450,2.9329290368421055,-4.415939947368422,1.9144846315789474,-9.182060789473685,-3.409320221052632,2.6286080736842106
295,1747679241460,2.7989453705882354,-4.269975441176471,2.079873794117647,-8.73432305882353,-3.803837088235294,2.7021507647058822
296,1747679241470,2.7428985,-4.1110225,2.1377585,-8.179312000000001,-4.204679710526316,2.7619902
297,1747679241480,2.708893,-3.9882886555555555,2.1604828222222223,-7.522729044444445,-4.712193955555555,2.7838001333333335
298,1747679241490,2.6495145368421054,-3.786529068421052,2.2216369789473682,-7.007577736842106,-5.080774694736842,2.778642
299,1747679241500,2.5652246,-3.6214434999999994,2.3164084,-6.3794646,-5.461074,2.807236
300,1747679241510,2.396696705263158,-3.377591963157895,2.3696642315789473,-5.305678647368421,-5.742247394736842,2.9872095421052633
301,1747679241520,2.3309298,-3.2797635,2.356922,-4.8795733,-5.7817183,3.1119015
302,1747679241530,2.249620247368421,-3.152596657894737,2.2794657894736843,-4.361518852631579,-5.798538589473684,3.317945842105263
303,1747679241540,2.1618794,-2.883685466666667,2.0135603555555557,-3.4950857111111113,-5.643944333333334,3.8294156777777775
304,1747679241550,2.254141578947368,-2.7223108105263156,1.6949615368421052,-3.022727610526316,-5.271569347368421,4.233736252631579
305,1747679241560,2.4905431,-2.6110463,1.3309052,-2.8204186,-4.6546693,4.505266
306,1747679241570,2.5505815,-2.5226977,1.1351712,-2.8779428,-4.1145806,4.552138
307,1747679241580,2.642886352631579,-2.425382984210526,1.0184090963157895,-3.033863757894737,-3.7221151894736844,4.662756947368421
308,1747679241590,2.974958184210526,-2.2523851631578946,0.9094824884210526,-3.2667642,-3.339069,4.727906
309,1747679241600,3.3099843842105265,-2.1291746315789473,0.8293546978947368,-3.6595660631578943,-2.8053156578947367,4.46411347368421
310,1747679241610,3.458345721052632,-2.0081737368421053,0.7883530978947368,-4.126487757894736,-2.313220047368421,3.9761664684210523
311,1747679241620,3.1817133,-1.7475718,0.9223533000000002,-4.564255,-2.0234683,3.4836783
312,1747679241630,2.443657072222222,-1.1141619999999999,1.2459733277777778,-4.771508138888889,-2.0395656944444442,3.318680927777778
313,1747679241640,1.9995256631578946,-0.39359369263157895,1.535733405263158,-4.706608315789474,-2.5931040263157894,3.841214542105263
314,1747679241650,3.24303587368421,0.4356871621052631,1.853470247368421,-4.4369844315789475,-5.183769073684211,5.643023794736842
315,1747679241660,8.4009048,0.3356193972222222,1.5841553388888887,-5.098070555555555,-7.201537377777778,5.500518277777777
316,1747679241670,10.496648421052631,0.04118787263157895,1.1777657263157895,-6.427849915789473,-5.970157631578947,3.670323926315789
317,1747679241680,9.961624,0.3981794,2.0147536,-9.086355842105263,-2.2994275263157897,1.5339096068421054
318,1747679241690,9.987602444444445,0.39318978444444447,2.6987104222222222,-10.887305388888889,0.6992864000000001,0.5576359205555556
319,1747679241700,10.145488210526315,0.08337123473684212,8.548473947368421,-10.548346,3.045448547368421,-0.9091323936842105
320,1747679241710,9.879132,-1.3561041,10.565055,-7.759261157894737,5.174686157894737,-3.5170658894736846
321,1747679241720,6.183745936842105,-1.8550084789473682,10.802638368421054,-2.951446,5.791306,-5.5273867
322,1747679241730,2.8693202,-2.0272615,9.816287,0.079712610526316,4.628150078947368,-5.367653210526316
323,1747679241740,2.0393085555555555,-1.9869108333333334,8.197482911111111,5.104063066666666,2.2349823222222223,-3.8519639333333333
324,1747679241750,3.1563312999999997,-1.7846687,5.567251,7.685078000000001,1.0562088,-2.0066905
325,1747679241760,4.597326627777778,-1.429809477777778,3.486690116666667,7.714728066666666,1.4782308,-2.138250483333333
326,1747679241770,5.534630510526315,-1.1994450368421052,1.3903781094736842,6.7039704,2.37394,-2.9494488
327,1747679241780,5.278002544444444,-1.2855987222222223,0.73448348,5.0567177,3.7528053611111107,-3.9150509888888885
328,1747679241790,4.656846631578947,-1.3856221578947368,0.7435235947368422,2.811497,6.046969,-5.0416265
329,1747679241800,3.8271548,-1.465082052631579,1.059719005263158,1.451435697368421,7.720162084210526,-5.4497908
330,1747679241810,2.9418693157894737,-1.608176684210526,1.597826752631579,0.8558972710526317,8.535480894736843,-5.394284989473684
331,1747679241820,2.332239947368421,-1.700019394736842,2.178040752631579,1.0826862578947367,8.581175499999999,-5.047233384210526
332,1747679241830,2.016096,-1.7705133000000002,2.5272737,1.5811175,8.3394165,-4.6900897
333,1747679241840,1.8223145,-1.9193881999999998,2.8323452,2.7358634,7.675757,-4.065845
334,1747679241850,1.8625453526315787,-2.133490715789474,2.863327842105263,3.788456031578947,7.028861915789474,-3.591522263157895
335,1747679241860,2.039345584210526,-2.449429221052631,2.7845102315789476,4.9890082157894735,6.259573457894737,-3.1884041578947366
336,1747679241870,2.4099016263157895,-2.930966926315789,2.2934155789473687,6.699933763157895,4.993928036842105,-2.829466305263158
337,1747679241880,2.6906703,-3.1879978,1.8268294,7.7671037,4.13056,-2.7502444
338,1747679241890,2.9424088,-3.3246442421052635,1.308400472631579,8.01592692631579,4.006428636842105,-2.882617405263158
339,1747679241900,3.3196870222222223,-3.4835785555555554,0.49199908088888883,8.023595155555556,4.140028955555555,-3.193512411111111
340,1747679241910,3.4523728599999997,-3.4758878600000003,-0.0222946288,7.37210371,4.8076412,-3.5338522699999997
341,1747679241920,3.393067,-3.3871484,-0.33991072,6.5111575,5.685845,-3.750527
342,1747679241930,3.1965002294117646,-3.165659305882353,-0.3919666917647059,5.2165489411764705,6.970991423529412,-3.795393311764706
343,1747679241940,2.9479066368421054,-2.9755395210526316,-0.20066964805263157,4.5809,7.5916014,-3.7121775
344,1747679241950,2.77538525,-2.8880243500000002,-0.021958374500000002,4.1757444,7.928875638888889,-3.540374022222222
345,1747679241960,2.531057,-2.783839,0.28829262,3.7894092,8.157256,-3.173154
346,1747679241970,2.3703387315789475,-2.687320873684211,0.4559984968421052,3.735248947368421,7.937475600000001,-2.893718642105263
347,1747679241980,2.2456723055555554,-2.618856366666667,0.5388309611111111,3.7578062666666665,7.329191533333333,-2.4984871
348,1747679241990,2.1540009210526314,-2.5536030947368418,0.5514120368421053,3.8039863210526312,6.484568315789473,-1.9669952631578946
349,1747679242000,2.0955149823529413,-2.3936918352941174,0.5233915258823529,3.8157273588235294,5.544791358823529,-1.2308024411764706
350,1747679242010,2.4402418105263157,-2.2635089578947367,0.5355354431578947,3.7889045263157897,5.2551416210526325,-0.8580558342105262
351,1747679242020,2.853263736842105,-2.245397294736842,0.5061201347368421,3.7735422,5.334532084210526,-0.7037607968421052
352,1747679242030,3.0281742555555557,-2.2612853333333334,0.42843571444444445,3.7443128333333338,5.619265583333334,-0.73529823
353,1747679242040,2.8965259105263157,-2.156406142105263,0.3428586705263158,3.6833873473684213,5.844849421052632,-0.804175937368421
354,1747679242050,2.7448509,-2.0648463,0.341009,3.6786218000000006,5.74763,-0.7784414
355,1747679242060,2.5779699277777777,-1.9288523444444445,0.26171752444444446,3.710816377777778,5.480603866666667,-0.7538219333333334
356,1747679242070,2.3445457789473685,-1.8343792473684208,0.06489033052631579,3.743546636842105,5.192459621052632,-0.7964948157894738
357,1747679242080,2.046050747368421,-1.7403786157894736,-0.1307151410526316,3.7066549157894735,5.0258857789473685,-0.7904956894736842
358,1747679242090,1.8439198842105267,-1.6602250578947368,-0.2703158842105263,3.4726334421052636,4.756205936842105,-0.3834528515789474
359,1747679242100,1.193623,-1.3077807,-0.7782375,3.1513162,4.6621265,0.42424123999999996
360,1747679242110,1.5061447631578948,-1.0476671210526316,-0.9289107947368421,2.9037264842105266,4.753122252631579,0.9944936610526317
361,1747679242120,2.3034597888888886,-0.8603424711111111,-1.2951236577777778,2.63466325,5.132795116666667,1.1351271600000001
362,1747679242130,2.8298084789473683,-0.8742065968421052,-1.6005819736842106,2.5027387263157896,5.578028642105263,0.4022631921052632
363,1747679242140,2.4867411210526313,-0.7023903231578947,-1.6445380789473685,2.7081666,5.343895,-0.41944757
364,1747679242150,1.5572683,-0.19927274,-1.7920513,3.4080448,3.9270945,-0.9414267500000001
365,1747679242160,1.5572683,-0.19927274,-1.7920513,3.4080448,3.9270945,-0.9414267500000001
366,1747679242170,0.7239483611111112,0.1815108022222222,-2.421881511111111,3.4080448,3.9270945000000004,-0.94142675
367,1747679242180,0.46047500823529414,0.3309918711764706,-3.0743856,4.680345435294118,2.2728027352941176,-0.8617199617647059
368,1747679242190,0.15301425789473685,0.23129561842105262,-3.5558147368421054,5.442361773684211,1.668287047368421,-1.111532505263158
369,1747679242200,-1.3948225263157894,-0.08371806210526316,-4.728779431578947,6.122056052631579,1.473343752631579,-1.5527198789473686
370,1747679242210,-2.8683630736842107,-0.24610603894736843,-6.209590678947368,6.3641515,0.7302382,-1.0809762
371,1747679242220,-3.0292355,-0.4217758921052632,-7.892583894736842,5.113027052631579,-0.2780057663157895,0.5487088842105262
372,1747679242230,-2.318180905263158,-0.6798856947368421,-8.585449026315791,2.999487994736842,-0.1532017252631579,1.6061792894736842
373,1747679242240,-1.5655798555555556,-0.6880380555555556,-8.531339855555556,0.9739172999999999,0.10066742,2.1829915
374,1747679242250,-0.25628260999999997,-0.8648810710526316,-7.728114926315789,-1.1468474052631579,-0.17585259421052635,2.1637046315789474
375,1747679242260,0.17053501,-0.86164415,-6.921647,-2.413488,-0.57151395,1.7622124
376,1747679242270,0.4278483994736842,-0.9015153163157895,-5.233900894736842,-2.851479473684211,-0.912958955263158,1.351693347368421
377,1747679242280,0.5018619536842106,-1.0579175484210528,-3.97628662631579,-2.904294168421053,-1.4438527368421052,1.0418137947368422
378,1747679242290,0.5122922210526316,-1.1811792684210527,-3.452462647368421,-2.719274657894737,-1.9660000842105265,1.0151261973684211
379,1747679242300,0.2849978672222222,-1.4427443722222222,-2.7264109666666667,-2.442997216666667,-3.2155574833333334,1.542886461111111
380,1747679242310,0.21659759684210525,-1.705080294736842,-2.4320208,-2.540002047368421,-4.976603347368421,2.6592203894736843
381,1747679242320,0.8618078789473684,-1.9916805052631579,-2.214501473684211,-3.0377324,-6.475205,3.7734299999999994
382,1747679242330,1.631847042105263,-2.457110521052632,-1.9331678842105262,-3.80315237368421,-7.130566305263159,4.3907222894736835
383,1747679242340,2.2545784210526314,-3.0184421736842104,-1.6366511052631578,-4.7122709315789475,-7.091656221052631,4.676605421052631
384,1747679242350,2.5882944736842104,-3.472311589473684,-1.3468653,-5.760041610526316,-6.629724631578948,4.8324144421052635
385,1747679242360,2.781676333333333,-3.7748740555555553,-0.9317224355555557,-6.814091833333333,-5.882563666666666,4.953919783333333
386,1747679242370,2.865415,-4.0612345,-0.33991072,-7.431945,-5.209672,5.0719867
387,1747679242380,2.88454915,-4.08993576,-0.1198687139,-7.647447699999999,-4.91736355,5.15177501
388,1747679242390,3.0273876666666664,-4.12582855,0.3600454671666667,-7.995469333333334,-4.35089175,5.290720833333333
389,1747679242400,3.2590409421052633,-4.1295451105263155,0.5864534978947368,-8.081867736842105,-4.200418484210527,5.190735552631579
390,1747679242410,3.3868756263157893,-4.13599334736842,0.6548922768421053,-8.088595631578947,-4.2930403578947365,4.621379963157895
391,1747679242420,3.9968646578947364,-4.290905105263158,0.6242695315789474,-8.222258,-4.486526052631579,3.6319742736842104
392,1747679242430,3.995400468421053,-4.426472847368421,0.5394146736842105,-8.512738368421052,-4.499141052631579,2.8567428210526313
393,1747679242440,3.715466316666667,-4.554718416666667,0.5588707733333333,-8.984212,-4.3919045,2.1451746333333337
394,1747679242450,3.3066401625,-4.6379726875000005,0.7056000250000001,-9.36766275,-4.2739706875,1.8007616375
395,1747679242460,2.922555,-4.71222678125,0.9771137,-9.84163771875,-4.1723046875000005,1.632982625
396,1747679242470,2.644245188888889,-4.658035933333334,1.3494535,-9.96017088888889,-4.451322333333334,1.7225609666666666
397,1747679242480,2.5227587,-4.5942554,1.5642239,-9.87779,-4.742021,1.8399767
398,1747679242490,2.4047892684210526,-4.489439063157895,1.8692185105263157,-9.493847263157894,-5.270391947368421,2.1665080684210523
399,1747679242500,2.419920842105263,-4.351868105263158,2.0936483157894736,-8.913895368421052,-5.679509342105264,2.491805857894737
400,1747679242510,2.5656871684210527,-4.027940184210526,2.3916549789473684,-7.406042210526316,-6.112006336842105,2.9620355999999997
401,1747679242520,2.7301817578947367,-3.637448505263158,2.571949205263158,-5.616174642105263,-6.184051421052632,3.1980194736842105
402,1747679242530,2.706932057894737,-3.2162570631578946,2.5678644105263158,-4.271195389473684,-5.954403157894737,3.1362344263157893
403,1747679242540,2.51476596875,-2.89985776875,2.40847908125,-3.10491878125,-5.7239945625,3.0834723187499997
404,1747679242550,2.2799604105263156,-2.624739347368421,2.0582214421052627,-1.9365512578947368,-5.449356110526316,3.0879609789473683
405,1747679242560,2.0805011578947368,-2.485498126315789,1.681602547368421,-1.2137417715789474,-5.175583226315789,3.1825452894736843
406,1747679242570,1.9397204000000001,-2.375861547058823,1.2641196823529413,-0.7609585682352942,-4.836453564705883,3.4186972470588235
407,1747679242580,1.8813763999999997,-2.2288527,0.8593866,-0.6857635,-4.6259074,3.7254932000000003
408,1747679242590,1.9147183076923076,-2.148651715384615,0.6480705692307692,-0.8214617153846153,-4.531508569230769,3.9329739384615388
409,1747679242600,2.013744109090909,-1.8831789454545456,0.48149721999999995,-1.3033137909090908,-4.262168272727272,4.304125181818183
410,1747679242610,2.3768125,-1.4473814999999999,0.5606605,-1.9969697999999998,-3.8823533,4.636294
411,1747679242620,2.5500234142857146,-1.1116284642857144,0.7125338285714287,-2.3428856357142855,-3.6454081785714285,4.629445642857143
412,1747679242630,2.9413835,-0.40539018181818176,0.9927305363636364,-2.9330823363636367,-3.293552909090909,4.690719181818182
413,1747679242640,4.212198,0.8296726153846155,1.465249253846154,-4.1764174615384615,-2.0834507461538463,4.433238076923077
414,1747679242650,4.9482267222222225,1.0890512222222222,1.6894252388888888,-4.849864611111112,-1.3867957333333334,3.819177361111111
415,1747679242660,5.75968975,1.3014962125,2.5845663,-5.6124744374999995,-1.9520956375,2.8120295875
416,1747679242670,6.8000083,1.54759142,3.95618016,-5.984571000000001,-3.6720703200000004,2.1387831000000004
417,1747679242680,7.784584150000001,1.5594526,4.9857113,-5.90126765,-4.38547744,1.2129624360000002
418,1747679242690,7.915936,1.6170013,5.388113,-5.81594,-3.7651744000000003,0.60320556
419,1747679242700,7.758736338888888,1.6972146666666665,6.016451888888889,-5.788775888888889,-1.258017138888889,-0.061814880555555556
420,1747679242710,8.0313746625,0.77512579375,7.4799275125,-5.2232540625,1.3986911,-0.95567465375
421,1747679242720,7.455779833333334,0.3106442061111111,8.866444249999999,-3.28808425,2.4354293444444446,-2.2132331944444443
422,1747679242730,5.124948736842105,-0.5347615578947368,10.030415736842105,1.1791207368421053,2.5839090894736843,-3.3710128000000004
423,1747679242740,4.035397176470589,-1.4714427764705882,9.09384913529412,5.492201941176471,2.000533747058823,-2.920561223529412
424,1747679242750,4.440226947368421,-2.1170232842105263,6.854845131578947,8.823621421052632,1.4889301842105265,-1.9972712421052634
425,1747679242760,5.054337955555556,-2.2585736777777776,5.166129277777777,10.27059161111111,1.1835670688888889,-1.6054411666666666
426,1747679242770,5.849027894736842,-2.0936193315789473,3.0531529526315793,10.892082157894738,0.8862713200000001,-1.6014417052631578
427,1747679242780,6.494828984210526,-1.7501408368421052,1.0159686215789474,10.075306210526316,1.0931567263157895,-2.3342309578947367
428,1747679242790,6.7283535,-1.6206621,-0.20714359,8.652338,1.9691398,-3.2061772
429,1747679242800,6.614026138888889,-1.5999172833333333,-1.1037827216666667,6.670355222222223,3.49033635,-4.261557788888889
430,1747679242810,5.733033444444445,-1.4442359333333332,-1.5535261111111112,3.5968922666666665,5.885759416666667,-5.338776055555555
431,1747679242820,4.503141842105263,-1.3879343526315788,-0.9014222447368422,0.9352874657894737,8.04147905263158,-5.789553815789473
432,1747679242830,3.4954167368421056,-1.679826847368421,0.0798420542105263,-0.7367278973684211,9.570749263157895,-5.864794942105264
433,1747679242840,2.0679901315789473,-2.0514360105263156,1.7007418215789472,-0.999119172631579,10.232894421052631,-5.391817852631579
434,1747679242850,1.253712447368421,-1.9968186105263157,2.704330810526316,0.10068141578947366,9.859547210526316,-4.323078315789474
435,1747679242860,1.0494936000000001,-1.9519020500000002,3.311673777777778,1.9076207833333332,8.7868271,-3.1012487500000003
436,1747679242870,1.4952778,-2.1644216,3.4693348,3.8064532,7.6576476,-2.0759325
437,1747679242880,2.2318940421052633,-2.4511245684210525,3.1734345684210523,5.471964742105264,6.682875236842105,-1.5708854421052632
438,1747679242890,2.728743,-2.6413095,2.826,7.0725517,5.7209983,-1.411208
439,1747679242900,3.3100103684210525,-2.885469552631579,2.067624189473684,8.380471773684212,4.775380805263158,-1.6574520736842104
440,1747679242910,3.541016894736842,-3.0339592210526316,1.4443789947368422,8.999053263157895,4.155060894736842,-2.0523285631578947
441,1747679242920,3.672807742105263,-3.280919294736842,0.4721576536842105,9.182894684210526,3.6903255263157897,-2.9321803263157893
442,1747679242930,3.515583521052631,-3.3492037789473685,-0.25138215684210524,8.665513210526317,3.9518196736842106,-3.5242426210526316
443,1747679242940,3.0059920842105265,-3.090888557894737,-0.6103261305263158,7.318235210526316,4.81137542631579,-3.9875202315789475
444,1747679242950,2.5250195368421053,-2.8677174842105266,-0.5917521052631579,5.932271052631579,5.596698984210526,-4.059789836842105
445,1747679242960,2.3086305894736845,-2.844930468421053,-0.43005779368421054,5.329107315789474,5.8595388947368425,-3.9264074842105257
446,1747679242970,2.0390372,-2.7233129,-0.14612928,4.741755,5.956422,-3.6408048
447,1747679242980,1.8084159684210526,-2.5924981789473684,0.07498658789473685,4.376761921052632,5.849783310526316,-3.2232213473684213
448,1747679242990,1.6420717368421054,-2.507309336842105,0.17520419894736844,4.006723,5.7103457,-2.6458485
449,1747679243000,1.611937,-2.5217214,0.2677918,3.7393417,5.780653,-2.2538316
450,1747679243010,1.5612758368421051,-2.470623515789473,0.4678159831578947,3.550621836842106,5.873106694736841,-1.7591567421052632
451,1747679243020,1.534660794736842,-2.3863082105263156,0.5992472252631579,3.5213551736842104,5.8549410421052634,-1.3163435210526317
452,1747679243030,1.6891362789473683,-2.1795019789473686,0.8143258947368421,3.690732010526316,5.4097171315789465,-0.6122603052631579
453,1747679243040,2.038138263157895,-2.067286857894737,0.9006707847368421,4.0111522105263155,4.741068147368421,-0.13277950947368422
454,1747679243050,2.48239942631579,-2.0130806210526315,0.7376148915789473,4.4590115789473685,3.9792362894736844,-0.05142700536842106
455,1747679243060,2.6166308631578947,-1.9489062789473686,0.4759598268421053,4.795018,3.4168332,-0.29800752
456,1747679243070,2.493805942105263,-1.9077248105263158,0.09309820421052632,4.928960852631579,3.174233389473684,-0.9821870694736843
457,1747679243080,2.143982,-1.8583739,-0.18029729,4.8994136,3.1856709,-1.4644712
458,1747679243090,1.658513494736842,-1.7923243736842107,-0.5049962031578947,4.7822347,3.3603742,-1.7243955
459,1747679243100,1.032956252631579,-1.6747144,-0.9846328921052631,4.310939689473684,3.6027497789473686,-1.6459024315789474
460,1747679243110,0.6381487,-1.60309,-1.2453631,3.7445496722222225,3.700607555555555,-0.9643890522222223
461,1747679243120,0.5317397,-1.3946651,-1.4723364,3.380348,3.5627741999999993,-0.35872754
462,1747679243130,0.8548201210526316,-1.1081675842105263,-1.6593611578947367,2.787949052631579,3.142948263157894,0.5697338136842105
463,1747679243140,1.5929548833333333,-0.7696074122222222,-1.9383772000000004,2.3403546111111115,3.0096064666666664,1.0236888333333334
464,1747679243150,2.073565,-0.589558827368421,-2.1230443947368425,2.112235589473684,3.1090279473684213,1.0364875789473684
465,1747679243160,3.0504619368421055,-0.3582696215789474,-3.134957168421052,1.5445621947368422,3.8967623421052635,-1.181783894736842
466,1747679243170,2.1616082888888886,-0.4426249277777778,-3.796087011111111,1.0791416077777778,3.2235469000000005,-2.7071604666666667
467,1747679243180,0.7931636210526316,-0.4361624152631579,-3.7927299,0.31429482157894734,1.0320442263157894,-3.0274372315789475
468,1747679243190,0.14299506473684212,-0.22514280052631577,-3.174545810526316,-0.11713695315789474,-0.3959697063157894,-2.5887727789473685
469,1747679243200,0.07681701,0.18096845,-2.339716,0.05779055000000001,-0.56192654,-2.1196084
470,1747679243210,-0.030876452736842107,0.6516135447368421,-1.8439970947368423,1.2715182552631579,0.5531241042105264,-2.107049410526316
471,1747679243220,-0.77445465,1.0405381,-1.8804001,3.1693135263157894,1.7047861842105263,-2.473051715789474
472,1747679243230,-1.8344766083333335,0.8509869583333334,-2.8655779333333333,4.903497266666666,1.6763698833333334,-2.6222351666666666
473,1747679243240,-2.046481,0.81307673,-3.0626135,6.20845457368421,0.5807649205263158,-2.2507479210526316
474,1747679243250,-3.387846927777778,0.08581323777777777,-6.803631083333332,6.029125944444444,-1.6531115972222223,-1.0872494999999998
475,1747679243260,-3.2196372277777776,-0.2768829411111111,-8.580693333333334,3.6809297566666666,-2.51917095,-0.23941798666666664
476,1747679243270,-1.6869461789473683,-0.5609141894736842,-7.994881684210526,-0.4190550905263158,-2.2348951210526318,0.23961422731578946
477,1747679243280,-1.1518699368421053,-0.9328831210526317,-6.3005848421052635,-2.833335,-1.5600786,0.0013315795
478,1747679243290,-1.1107656,-1.2243131,-4.40444,-4.5440154,-1.4056153,0.02796317
479,1747679243300,-0.9811467449999999,-1.483990125,-2.9469057249999997,-4.61911629,-1.88865913,0.428875142
480,1747679243310,-0.8132869,-1.5422927,-1.7910751888888887,-3.959659055555555,-2.758736855555556,1.1889821888888887
481,1747679243320,-0.62802035,-1.6011375,-1.3571413,-2.9493155,-3.9281597,2.1339893
482,1747679243330,-0.5893372745,-1.62632421,-1.3587032650000002,-2.86840873,-4.068508185000001,2.248292105
483,1747679243340,0.14564116,-2.1048717,-1.3883806,-1.3311801,-6.7351294,4.4200454
484,1747679243350,0.7887191052631579,-2.3854090789473683,-1.5005955368421051,-1.151529005263158,-7.482383821052631,5.398069336842106
485,1747679243360,1.7097225555555555,-2.7285736444444444,-1.6898727888888887,-1.4257666166666665,-8.0693718,6.177907733333333
486,1747679243370,1.9072462,-2.7979944,-1.7325015,-2.2005684,-8.39481,6.4578943
487,1747679243380,3.3994123999999997,-3.388125,-1.7085838,-3.8309054052631577,-8.094573678947368,5.954417421052632
488,1747679243390,3.5547871263157895,-3.4592609263157894,-1.2568979947368422,-4.9196047684210535,-7.50598772631579,5.529545552631578
489,1747679243400,3.5732067473684213,-3.632361905263158,-0.7627206105263158,-5.9512286,-6.725542,5.1007485
490,1747679243410,3.4926422,-3.8650126,-0.268646,-6.909965821052632,-5.690105926315789,4.678904289473684
491,1747679243420,3.330022905263158,-4.035493115789474,0.29895406999999996,-7.618814736842106,-4.623945131578947,4.295297105263158
492,1747679243430,3.1118615789473685,-4.100720589473684,0.7916414199999999,-7.951008857894737,-3.9144233473684213,4.030775368421053
493,1747679243440,2.9869556,-4.1002836,0.9999635,-7.994404300000001,-3.590471,3.8693040000000005
494,1747679243450,2.90680207368421,-4.107990810526315,1.0742082894736842,-7.959642878947368,-3.5366473157894736,3.836224631578947
495,1747679243460,2.8058108333333336,-4.132770377777778,1.1383711666666667,-7.8698867777777775,-3.5082092444444446,3.8010677333333334
496,1747679243470,2.8885619368421054,-4.174605563157894,1.1022878315789473,-7.87582352631579,-3.7119672263157892,3.7355852736842103
497,1747679243480,2.95474,-4.2013235,1.0765976,-7.9526084117647065,-3.9583630647058823,3.6015466941176473
498,1747679243490,3.02856746,-4.03409543,1.233892475,-8.0798385,-4.29961697,3.3302804100000003
499,1747679243500,3.0372314,-3.9187051999999998,1.4094915,-8.057815631578947,-4.4413922368421055,3.0673845842105263
500,1747679243510,2.864493188888889,-3.8186416888888886,1.5997478,-7.936584111111112,-4.4295436666666665,2.9045300722222223
501,1747679243520,2.6257766210526317,-3.610884857894737,1.8239521263157894,-7.573288289473685,-4.45910932631579,2.822037584210526
502,1747679243530,2.39384527368421,-3.3717088263157895,2.072068505263158,-7.1113005000000005,-4.5524044,2.8328023
503,1747679243540,2.233127178947368,-3.1347677,2.304411010526316,-6.252698,-4.6546693,2.976613
504,1747679243550,2.1859596,-2.9497979,2.4223292,-5.450162268421052,-4.692794663157895,3.1014730789473686
505,1747679243560,2.1990615894736845,-2.765059436842105,2.3965620315789473,-4.23009872631579,-4.8068897368421055,3.2381632684210526
506,1747679243570,2.263352916666667,-2.672467411111111,2.1513443555555556,-3.1136619722222223,-5.011355166666666,3.3040631055555556
507,1747679243580,2.2341545736842106,-2.6384322157894737,1.8423978421052631,-2.1956135210526315,-5.165771810526316,3.379058357894737
508,1747679243590,2.1420036789473684,-2.5620294736842104,1.5007176789473684,-1.5364676315789474,-5.215558921052631,3.5491641789473682
509,1747679243600,2.053115573684211,-2.358614305263158,0.9471444536842105,-1.1097383,-5.0743833,4.0408115
510,1747679243610,2.122993,-2.2708306,0.7056305,-1.2652669,-4.6386905,4.471178
511,1747679243620,2.313126547368421,-2.2684927947368423,0.5874297578947368,-1.6033479210526316,-3.858581205263158,4.888985473684211
512,1747679243630,2.651621,-2.2264123,0.5421122,-2.073802,-2.7382603,5.207275
513,1747679243640,2.9582083684210527,-1.9531194368421054,0.6456951894736842,-2.5553012,-1.9329208999999998,5.1795783
514,1747679243650,3.0871474736842104,-1.6803662578947367,0.7642813789473685,-2.713401736842105,-1.8156858578947368,5.084265294736841
515,1747679243660,2.9957416,-0.80551094,1.0219287,-3.1730208,-2.2546306,4.516984
516,1747679243670,2.6001120631578947,0.18176481578947365,1.2636224894736843,-3.5293795263157897,-3.694194157894737,4.630014105263158
517,1747679243680,3.0842446684210527,1.180215852631579,1.810053752631579,-3.929246063157895,-5.6252369,5.483066052631579
518,1747679243690,5.247387022222222,1.2139001055555554,2.301493711111111,-4.412159422222222,-6.5981838222222216,6.414929055555556
519,1747679243700,8.964893,0.21025531,2.69909,-5.564538,-4.886897,5.5002227
520,1747679243710,9.413754026315791,0.01223496421052632,4.714155210526315,-6.676280526315789,-0.5719063315789473,2.9309748578947366
521,1747679243720,8.2229595,0.7862304,6.982295,-6.458294,2.1417127,1.6705997
522,1747679243730,7.793419083333333,1.2214658166666665,8.808656666666666,-4.781391500000001,2.895386616666667,1.1139993666666668
523,1747679243740,8.107482726315789,0.47468493105263154,9.799691263157897,-1.1294598157894735,2.3427110842105265,-0.12162227894736842
524,1747679243750,7.623067399999999,-0.31983703,9.312553,2.326802,1.5249249,-1.5049512
525,1747679243760,7.072062915789473,-0.41478813210526316,8.69501152631579,3.590541473684211,1.3655839,-1.883288010526316
526,1747679243770,6.077850926315789,-0.7483501789473683,6.6514818842105266,5.887137631578947,1.4898833052631577,-2.400557605263158
527,1747679243780,5.629742955555555,-0.932800395,4.949758822222222,6.531279305555556,2.0108034444444445,-2.610872383333333
528,1747679243790,5.319192115789474,-0.9490679578947369,3.2615519842105263,6.360843526315789,2.6876321684210525,-2.823074752631579
529,1747679243800,5.185988463157895,-0.8933715263157895,2.1522220105263155,5.116222889473684,3.5702310842105267,-3.3002007
530,1747679243810,5.0148657105263155,-1.0840957894736842,2.0009835263157894,3.8327486052631583,4.357741084210526,-4.054071026315789
531,1747679243820,4.6187224,-1.3077807,2.0523384,2.9819393,4.981705,-4.757201
532,1747679243830,4.079535810526316,-1.4747159210526315,1.9926858315789475,2.447401152631579,5.59058792631579,-5.218964642105263
533,1747679243840,3.2025738842105262,-1.7665313736842105,1.812776905263158,1.8076823210526318,6.478849684210526,-5.581322789473685
534,1747679243850,2.5430284315789478,-2.0308582,1.8627444157894737,1.4830572789473684,7.1427888842105265,-5.5671938947368425
535,1747679243860,2.072229,-2.285474,2.267597,1.5459639,7.6651044,-5.3441615
536,1747679243870,1.767388757894737,-2.502967705263158,2.614363894736842,2.028247905263158,7.976778463157895,-5.003893884210527
537,1747679243880,1.5127728315789473,-2.705226910526316,2.897290268421053,3.2346308578947367,8.212762052631579,-4.237240531578947
538,1747679243890,1.434206011764706,-2.878073794117647,3.014900323529412,4.18036075882353,8.199741470588235,-3.650956111764706
539,1747679243900,1.8558915526315787,-3.200226310526316,2.6643569736842103,5.53044222631579,7.710742631578947,-2.921695805263158
540,1747679243910,2.468321210526316,-3.522844231578947,2.0020882842105263,7.706047368421052,6.290185484210527,-2.0143714368421053
541,1747679243920,2.719469,-3.6321819999999994,1.585701,8.301360894736844,5.578477368421052,-1.9640237473684212
542,1747679243930,2.8276676666666667,-3.664614555555555,1.2178253555555554,8.607833111111113,4.9640696222222225,-2.0801935
543,1747679243940,2.91837557,-3.5882516599999996,0.6132792499999999,8.421974500000001,4.5856937,-2.2951106
544,1747679243950,2.8634627,-3.4213166,0.3312467,8.044782744444445,4.5061242777777775,-2.4430933111111113
545,1747679243960,2.8079717947368423,-3.2286139526315787,0.1477156352631579,7.4880047,4.6557345,-2.5595622
546,1747679243970,2.7302074,-3.0791483,0.06375995,7.0480504,4.903941,-2.5883243
547,1747679243980,2.6516981789473686,-2.885546615789474,0.06540413105263157,6.264913557894737,5.446664957894737,-2.532706363157895
548,1747679243990,2.607793447368421,-2.709080405263158,0.1392892444736842,5.588247021052632,5.908708994736842,-2.419451905263158
549,1747679244000,2.5522254210526314,-2.6343731368421053,0.30771444684210525,5.207947947368422,6.127985052631579,-2.304235247368421
550,1747679244010,2.4034960333333335,-2.557082577777778,0.6054586288888889,4.4898201,6.412709416666667,-1.9688736333333334
551,1747679244020,2.21431919,-2.57624375,0.8853543199999999,4.5275304400000005,5.9857165000000006,-1.6848742399999999
552,1747679244030,2.131291,-2.5895693,0.97555786,4.6341634,5.6315165,-1.5006901
553,1747679244040,2.05117518,-2.514497373333333,1.024727244,4.93059056,4.993494453333333,-1.192473808
554,1747679244050,2.1208350526315787,-2.424972205263158,0.9964696789473685,5.194716105263158,4.576793005263158,-0.9904288831578948
555,1747679244060,2.2325104894736842,-2.3889800421052634,0.915416952631579,5.403115631578947,4.473854910526316,-0.9599847526315791
556,1747679244070,2.3323941,-2.3542984,0.7378461,5.534311,4.5939493,-1.0639321
557,1747679244080,2.2996389473684213,-2.3176127578947368,0.6159972578947368,5.562063921052632,4.679730905263159,-1.1110279157894738
558,1747679244090,2.2298900842105263,-2.255879089473684,0.4232434394736842,5.557802947368421,4.763102047368421,-1.1199424894736842
559,1747679244100,2.2268843578947366,-2.137678278947368,0.2545099702105263,5.551411368421053,4.602808052631579,-1.0355063336842105
560,1747679244110,2.4584361222222224,-1.9210424,-0.046852211,5.5487509444444445,4.0867063777777775,-0.9927960888888888
561,1747679244120,2.751222010526316,-1.8401081421052634,-0.4953623768421053,5.462265336842106,3.774873857894737,-1.460826889473684
562,1747679244130,2.669321563157895,-1.7917077684210527,-1.341084994736842,5.267995,3.5574479999999995,-2.121739
563,1747679244140,2.1428772,-1.6682404105263158,-2.0245993842105263,4.575181052631579,3.4962233157894733,-2.750468668421053
564,1747679244150,1.1776436273684212,-1.4461226684210526,-2.6530340157894736,2.9740898736842105,3.737757810526316,-3.128693347368421
565,1747679244160,0.3031394616666667,-1.2189438833333335,-2.8552459833333335,1.6342031766666667,3.8910530333333333,-2.854285133333333
566,1747679244170,-0.18090743,-1.1969788,-2.6701694,0.48815706,3.9824882,-2.1494358
567,1747679244180,-0.09836470394736842,-1.133215647368421,-2.3325738263157896,-0.04368982789473684,3.995831857894737,-1.5432446105263158
568,1747679244190,0.5060238528947368,-0.8801668157894738,-1.8049991,-0.5654447473684211,4.2555879368421055,-0.6973692342105263
569,1747679244200,0.9053015,-0.6178437842105262,-1.4519382578947369,-0.5533343368421053,4.833072884210527,-0.4979967268421053
570,1747679244210,0.8420777605263158,-0.2170247042105263,-1.139699257894737,0.12764941894736842,5.436180610526315,-1.0528308926315788
571,1747679244220,-0.24120396411764702,-0.06440958117647058,-1.0198829588235294,1.7507451,5.338882117647059,-1.7416277176470587
572,1747679244230,-2.3290992,-0.12849614,-1.6836898,4.25706,3.7246943,-1.7904419
573,1747679244240,-3.597709,-0.39158985,-2.8800585,7.0118317999999995,0.3296991,-0.15206638
574,1747679244250,-3.6462219777777776,-0.6499379744444443,-5.22837715,8.238660666666668,-2.0418737499999997,1.9508824055555556
575,1747679244260,-2.372875663157895,-0.7409000042105264,-7.952107842105263,7.023829831578948,-1.4811930736842105,3.151708631578947
576,1747679244270,-1.4793947942105263,-0.8214389263157894,-9.27857157894737,3.029764042736842,-0.9626339521052631,3.4877714421052635
577,1747679244280,-0.57139903,-0.7059356,-8.991252,0.108923204,-0.09427583,3.7595818000000003
578,1747679244290,0.7020917,-0.67860115,-7.833444000000001,0.108923204,-0.09427583,3.7595818
579,1747679244300,0.328196,-0.54290533,-6.3759346,-3.610073031157895,2.09220586,2.336557789473684
580,1747679244310,0.27064985789473683,-0.5138753563157895,-5.524560073684211,-4.13843005263158,1.8285811052631578,1.986366305263158
581,1747679244320,0.4928446747368421,-0.5324494221052631,-4.030390289473684,-3.5647577105263157,-0.12449568421052631,1.618570005263158
582,1747679244330,0.866072447368421,-0.6484151210526315,-3.6723199631578947,-2.928907336842105,-1.6202939842105264,1.494270552631579
583,1747679244340,1.2410215105263156,-0.8296854210526317,-3.745048805263158,-3.0249493,-2.2439778,1.5065491
584,1747679244350,1.4777570315789474,-1.0367229842105263,-3.7960183473684213,-3.8452021999999997,-3.3092415,1.5438334
585,1747679244360,1.7510497999999999,-1.4117491,-3.396484,-5.0191226,-4.6312337,1.6226628
586,1747679244370,1.9909037944444445,-1.864122788888889,-2.8435042777777775,-6.214881594444445,-5.768165888888889,1.8071902277777778
587,1747679244380,2.425906531578947,-2.415184089473684,-2.1128710947368425,-7.183738699999999,-6.388919,1.9560903
588,1747679244390,2.7560775,-2.7994587,-1.4738008,-8.006234300000001,-6.4767187368421055,1.9137040894736843
589,1747679244400,2.9905265526315787,-3.0940229210526318,-0.9836309578947369,-8.44450613157895,-6.258564089473684,1.789236352631579
590,1747679244410,3.0599672263157895,-3.3684203789473686,-0.5266530578947368,-8.796491368421053,-5.803023652631579,1.463938547368421
591,1747679244420,2.938632333333333,-3.677088566666667,0.14381073666666666,-8.886384722222223,-5.539903516666667,1.081923188888889
592,1747679244430,2.6224155166666665,-3.6953928499999997,0.68366536,-8.424947983333333,-6.042530472222222,0.9507774
593,1747679244440,2.383286442105263,-3.540493452631579,1.1804631421052632,-7.427459678947369,-7.346030115789474,1.3456382473684212
594,1747679244450,2.5247111,-3.5023434,1.2313298,-6.682279726315789,-7.859879631578948,1.883596305263158
595,1747679244460,2.97464415,-3.3834064888888893,1.0902647444444444,-6.1120834,-7.626754999999999,2.266082
596,1747679244470,3.3233479277777778,-3.3059317666666668,0.8314556305555556,-5.8286638,-6.8227178,2.3183392222222223
597,1747679244480,3.4779220315789474,-3.2880614210526318,0.6387588684210526,-5.816276373684211,-5.8697989473684204,2.0792124842105264
598,1747679244490,3.5232393684210526,-3.300855242105263,0.563229552631579,-5.938165057894737,-5.454233757894737,1.804150094736842
599,1747679244500,3.3227785,-3.3349202,0.5933642,-6.2345886,-4.9795747,1.1283805
600,1747679244510,3.1563856111111113,-3.3266766444444444,0.6721133555555556,-6.339694733333334,-4.964424388888889,0.8386287666666666
601,1747679244520,2.535966605882353,-3.3039107176470592,0.953449094117647,-6.3176794,-5.1031456,0.6628603
602,1747679244530,2.0134275666666666,-3.1978252799999995,1.17845074,-6.08673004,-5.3366512,0.86909534
603,1747679244540,1.8101115,-3.044492,1.3255359,-5.662990752631579,-5.597091210526316,1.3333597
604,1747679244550,1.8768035210526315,-2.926317178947368,1.3796910052631577,-5.027756826315789,-5.727838557894736,1.889539352631579
605,1747679244560,2.0710359777777776,-2.7894253666666664,1.3813978888888887,-4.469802022222222,-5.518716611111111,2.2582110388888887
606,1747679244570,2.148786136842105,-2.646576036842105,1.3636088736842105,-3.9948438947368423,-5.15809052631579,2.406136268421052
607,1747679244580,2.127386,-2.4465518,1.330417,-3.4467936,-4.846417,2.491918
608,1747679244590,2.0619788,-2.2542348,1.2547593,-2.918423,-5.1372337,2.5707474
609,1747679244600,2.065575421052632,-2.2430081578947365,1.230148052631579,-2.881145773684211,-5.2054666421052636,2.5833623631578946
610,1747679244610,2.1303146,-2.0409286,0.7871456,-2.2101557,-6.4336596,2.8104317
611,1747679244620,2.186285088888889,-2.1272706444444447,0.6266101688888889,-2.201278616666667,-6.467393016666667,2.9142950333333335
612,1747679244630,2.2028382,-2.2166755894736845,0.5569097242105263,-2.294479863157895,-6.215112452631579,3.044845905263158
613,1747679244640,2.140282494736842,-2.2326292684210527,0.5769738084210525,-2.4751821789473683,-5.678219694736842,3.2677663684210527
614,1747679244650,2.03998635,-2.024278583333333,0.7093727322222222,-2.7292350166666663,-4.773564683333333,3.6774381388888893
615,1747679244660,2.1012334421052627,-1.490618210526316,1.0419670789473683,-2.8462723105263157,-3.9549034789473687,4.182491452631578
616,1747679244670,2.3929203,-1.2160152,1.2537831,-2.7660901999999994,-3.7928712,4.273039
617,1747679244680,2.87254159,-0.917728516,1.38869798,-2.4859391700000004,-4.010504559999999,3.92182138
618,1747679244690,2.9015356411764706,-0.739069944117647,1.3187885588235293,-2.3625589529411766,-4.268229352941177,3.5984136176470587
619,1747679244700,2.845685084210526,-0.6087237505263158,1.1788189789473684,-2.468958752631579,-4.376635668421052,3.5357081999999997
620,1747679244710,3.026493,-0.37889886,1.2176626,-2.7747455,-4.2807617,3.7436028
621,1747679244720,3.1918095789473684,-0.12302411842105264,1.2824019684210526,-2.9661705210526312,-4.146538763157895,3.8417191473684213
622,1747679244730,3.8270263157894733,0.31707533336842103,1.594075852631579,-3.4323285473684213,-3.8404156842105257,4.124854857894737
623,1747679244740,5.226587533333333,0.4692542916666666,2.057056822222222,-3.8846170000000004,-4.41392,4.4381547
624,1747679244750,7.156789336842105,0.511755955263158,2.4359450631578947,-4.359836789473684,-5.081559905263158,3.970952352631579
625,1747679244760,9.088206789473684,0.2729651823157894,3.2408201315789475,-5.629351021052631,-4.396483373684211,1.8558994803157898
626,1747679244770,8.442508578947368,0.010462348736842104,4.414761042105263,-6.805289636842106,-2.0014902578947367,-0.12672431768421052
627,1747679244780,7.706380052631579,0.023127635789473685,5.443218315789473,-7.1788607052631574,-0.7487962399999999,-0.7564072536842105
628,1747679244790,6.782713789473685,0.0036030558947368414,8.134424536842104,-6.5497943526315785,1.0448274168421052,-1.1430980526315788
629,1747679244800,6.318255555555556,-0.22172600222222222,9.921041333333331,-4.196924283333333,2.0924738,-1.4552981444444444
630,1747679244810,5.676620642105263,-0.45876981631578945,10.44765147368421,-0.5713317526315789,2.525263589473684,-1.7741825263157895
631,1747679244820,5.0057974,-0.61661065,9.777238,2.4855263,2.5646222,-1.8458356
632,1747679244830,4.952593,-0.8460244500000001,8.134733,5.029287025,2.6974252,-1.8233762583333333
633,1747679244840,5.021129794117647,-0.9792797235294117,7.226667882352942,6.393477294117647,2.9250574,-1.901041323529412
634,1747679244850,5.116403706666667,-1.1727357866666666,5.789245506666666,7.668034,3.1675615,-1.9907115
635,1747679244860,4.989689479999999,-1.13349136,3.02092036,7.368766266666667,4.1062006533333335,-2.69513472
636,1747679244870,4.6149531,-0.874280838888889,1.4804851333333333,5.797431166666667,5.232160744444445,-3.1976550555555554
637,1747679244880,4.2936378,-0.856763,1.0775738,4.2975397,6.5540347,-3.4703627
638,1747679244890,3.9758755999999997,-1.091546,1.0624422,3.1147838647058825,7.636530529411765,-3.6430606588235297
639,1747679244900,3.6578835,-1.2632187352941175,1.2902480588235294,2.432388470588235,8.387666647058822,-3.656783858823529
640,1747679244910,3.34572,-1.4234638,1.5305439,2.293779,8.697345,-3.552388
641,1747679244920,3.2459005000000003,-1.5921074,1.6457389500000001,2.4333285499999997,8.680301,-3.4234910000000003
642,1747679244930,3.1482775111111114,-1.7778078888888886,1.7657609166666668,2.6041850055555553,8.651183999999999,-3.2795027666666665
643,1747679244940,3.2666454,-2.2246224666666667,1.8305717000000001,3.5149261333333333,8.288284333333333,-2.9299188000000003
644,1747679244950,3.382925166666667,-2.4814250111111114,1.7912242,4.193735666666666,7.959472666666667,-2.855409561111111
645,1747679244960,3.43114,-2.5949388,1.7716725,5.0312695000000005,7.4449499999999995,-2.852568833333333
646,1747679244970,3.5316371444444443,-2.9273176444444444,1.6328581777777778,6.0248055,6.816444388888889,-2.9083176555555554
647,1747679244980,3.6097896,-3.320765,1.2010667,7.202626,6.171212484210526,-3.0374732315789474
648,1747679244990,3.5427381263157893,-3.407341131578947,0.6665042442105263,7.47096,6.0434367315789475,-3.077056031578947
649,1747679245000,3.4363462333333334,-3.4347126222222224,0.2690392188888889,7.4347414999999994,5.986249,-3.0570405
650,1747679245010,3.355482052631579,-3.4039241842105263,0.03850645684210526,7.128617968421052,6.015011336842105,-2.993404752631579
651,1747679245020,3.2588356,-3.3105147,-0.1436887,6.62301,6.09171,-2.8834023
652,1747679245030,3.2588356,-3.3105147,-0.1436887,6.62301,6.09171,-2.8834023
653,1747679245040,3.2588356,-3.3105147,-0.1436887,6.62301,6.09171,-2.8834023
654,1747679245050,3.2588356,-3.3105147,-0.1436887,6.62301,6.09171,-2.8834023
655,1747679245060,3.117716222222222,-3.156595877777778,-0.09650429911111111,6.1436414,6.153732000000001,-2.6471505000000004
656,1747679245070,2.7427955999999996,-2.529402947368421,0.21702790147368423,4.260872373684211,6.409495031578948,-1.5875932421052632
657,1747679245080,3.0318623,-2.4704695,0.5069679,4.089813,6.6424513,-1.3142691
658,1747679245090,2.928895757894737,-2.4506365315789473,0.558631,4.3047727894736845,6.565752542105263,-1.2728919315789475
659,1747679245100,2.6563738000000003,-2.2987301263157898,0.4972569936842105,4.691238910526316,5.787156663157894,-1.0599513105263156
660,1747679245110,2.5928845999999997,-2.202982866666667,0.34182252333333335,4.9047403,5.248021,-0.8796415
661,1747679245120,2.7263026,-2.2005422,0.13111974,5.1699905,4.5854273,-0.7305045
662,1747679245130,2.8689347684210524,-2.180812178947369,-0.1430464494736842,5.221459789473685,4.40719187368421,-0.9049274168421053
663,1747679245140,2.753508663157895,-2.132719957894737,-0.5732037694736842,5.0692951052631585,4.382410526315789,-1.2495122642105263
664,1747679245150,2.545212,-2.020916,-0.822656,4.859943147368421,4.408201263157895,-1.4269067210526316
665,1747679245160,2.330492894736842,-1.7267113789473685,-1.091324547368421,4.511041315789473,4.4159383684210525,-1.4087410999999999
666,1747679245170,2.3667160526315794,-1.4174009842105264,-1.5433442842105263,3.9899028947368422,4.360993105263158,-1.3128673894736842
667,1747679245180,2.805068694736842,-1.2457388315789475,-2.0409384736842107,3.235920515789474,4.5942856894736845,-1.4136749
668,1747679245190,3.335263884210526,-1.101308347368421,-2.340794731578947,2.1060122000000003,5.4986387789473685,-2.0298459263157898
669,1747679245200,3.6976503684210527,-1.1544101315789472,-2.3859581684210527,1.7265541684210526,5.908709052631578,-2.8923731157894736
670,1747679245210,3.5444597157894733,-1.3231692684210525,-2.4080262526315788,1.8037577,5.113798,-4.236287
671,1747679245220,2.704183102105263,-1.4541123894736843,-2.5658413157894735,2.179515294736842,3.463088,-5.062483326315789
672,1747679245230,0.568553807368421,-1.2661368736842105,-3.0623308000000002,2.7474131105263155,0.7778947578947368,-5.542244326315789
673,1747679245240,-0.6103197178947368,-1.0632354,-3.565448442105263,2.8977835,-0.224238,-4.812595
674,1747679245250,-0.95066404,-0.9402305999999999,-3.9797804,2.657034,-0.05379581499999999,-3.78355
675,1747679245260,-0.8381150757894736,-0.8076432236842105,-4.3772086,2.323942868421053,0.5795874994736842,-3.1829657368421054
676,1747679245270,-0.7757562888888889,-0.7376901083333333,-4.576961705555555,2.132865083333334,0.9530558455555556,-2.8821004666666665
677,1747679245280,-0.8999771421052631,-0.6263729578947369,-4.735792857894737,1.524322205263158,2.5502132105263158,-2.5373598526315786
678,1747679245290,-2.1643991789473684,-0.7993196473684211,-4.973761642105263,2.1517624789473686,2.360203794736842,-2.5509840052631576
679,1747679245300,-3.3209481,-0.9207059000000001,-6.0171704,2.6506422,0.7547393,-1.9331872
680,1747679245310,-3.3331509,-1.3468299,-6.940683,2.007278989473684,-0.6968786568421053,-1.2002297842105263
681,1747679245320,-3.4813835842105267,-1.651028,-7.184277947368422,0.902656752631579,-1.4751378189473685,-0.6416952242105264
682,1747679245330,-3.7460955833333336,-1.935740022222222,-7.171859483333332,-0.983090361111111,-2.506861088888889,0.35920099666666666
683,1747679245340,-3.6797120000000003,-2.1473377,-6.5379887,-2.7779412,-3.2453256,1.6258587
684,1747679245350,-3.6797120000000003,-2.1473377,-6.5379887,-4.553329221052632,-3.9895524526315786,3.4902943526315786
685,1747679245360,-2.1118884,-2.3572268,-3.7210797999999996,-5.166129,-4.5204463,4.637359
686,1747679245370,-1.1411828210526316,-2.3414273789473685,-2.6074080368421053,-5.068236947368422,-5.335877563157895,5.85344127368421
687,1747679245380,-0.04143516842105264,-2.3005285263157895,-1.7177038263157893,-4.660465263157895,-5.915436878947368,6.466192184210525
688,1747679245390,1.7300351368421052,-2.207144536842105,-1.0065980831578947,-3.537060789473684,-6.977785352631578,7.1887773315789465
689,1747679245400,3.161058547368421,-2.1484679052631575,-0.7401903294736842,-2.385622905263158,-7.457994831578947,7.2332943263157885
690,1747679245410,3.944405015789474,-2.1194894842105265,-0.7499012221052631,-1.989961542105263,-7.272134089473684,6.911248157894737
691,1747679245420,4.2477555,-2.0907166,-0.79922646,-1.9405109,-6.833133700000001,6.442981
692,1747679245430,4.316742333333334,-2.0788934111111113,-0.8315504827777778,-2.2687452,-6.2994366,5.9455028
693,1747679245440,4.219933,-2.126837,-0.8002027,-2.3398305263157897,-6.257218515789473,5.901322389473684
694,1747679245450,4.219933,-2.126837,-0.8002027,-3.6193664000000005,-5.497293,5.106075
695,1747679245460,3.7796808833333335,-2.4200308999999995,-0.7130742433333334,-4.273319755555556,-5.37153295,4.934035
696,1747679245470,3.6921268315789475,-2.602594494736842,-0.586562692631579,-5.003928968421053,-5.444029799999999,4.778422105263158
697,1747679245480,3.6684720444444445,-2.9219211,-0.3867697222222223,-5.894769777777778,-5.780002166666667,4.526512111111111
698,1747679245490,3.6890185736842107,-3.164182936842105,-0.19142116294736844,-6.465134273684211,-6.029308084210526,4.344075010526316
699,1747679245500,3.723032233333333,-3.4384004000000004,0.16902997466666667,-7.264521211111112,-6.346958927777778,4.065963522222223
700,1747679245510,3.7318182000000006,-3.5160105000000006,0.29561433,-7.51184,-6.4368553,3.9768956
701,1747679245520,3.7482856473684207,-3.5147516842105264,0.33710406526315784,-7.545031368421053,-6.3771444736842104,3.967308221052632
702,1747679245530,4.0446997,-3.492093,1.0839193,-8.142476,-5.3023496,3.7947353999999995
703,1747679245540,4.0446997,-3.492093,1.0839193,-8.142476,-5.3023496,3.7947354
704,1747679245550,4.09412767368421,-3.4487279105263156,1.3321383842105263,-8.135131578947368,-4.290741721052632,2.9772857315789474
705,1747679245560,3.7332826,-3.3446825,1.6179165,-8.027428,-3.5851448,2.1947093
706,1747679245570,3.3379098526315794,-3.246648721052632,1.8532905631578946,-7.694392378947369,-3.44587567368421,1.7991041631578946
707,1747679245580,2.8635398052631578,-3.1344594789473685,2.1106808999999997,-7.327492863157895,-3.516855894736842,1.687475705263158
708,1747679245590,2.4417928125,-2.988237075,2.3298924875,-6.598109625,-3.824163375,1.723330225
709,1747679245600,2.0088963,-2.6902431,2.545334075,-5.14722075,-4.58356305,2.125200925
710,1747679245610,1.8968162315789474,-2.451844194736842,2.5228808052631577,-4.066945368421052,-5.162071263157895,2.518998078947368
711,1747679245620,2.084553975,-2.011885975,2.028542825,-2.097129625,-5.90515590625,3.2272162875
712,1747679245630,2.234283057894737,-1.8635889842105262,1.6165805947368421,-1.374862994736842,-5.850960473684211,3.4267709842105263
713,1747679245640,2.3338585,-1.7544055,1.1986262,-1.012512089473684,-5.4268736,3.452112857894736
714,1747679245650,2.2516653611111113,-1.6883745055555555,0.7707937938888888,-1.064331611111111,-5.025677322222222,3.3602262722222225
715,1747679245660,2.0658836,-1.6777717,0.58409,-1.3812475,-4.759065,3.30791
716,1747679245670,1.8411198263157893,-1.5949463052631578,0.6214949957894738,-1.6684201684210527,-4.6001728421052634,3.431088010526316
717,1747679245680,1.5238195736842106,-1.307343963157895,0.7540566515789473,-1.9277277157894737,-4.413415431578947,3.7195501736842105
718,1747679245690,1.5601456368421054,-0.9770960273684212,0.8738244631578947,-2.0155278736842104,-4.301394442105264,4.000219131578947
719,1747679245700,1.8722820263157893,-0.6490317263157895,0.9908178105263158,-2.1691361105263156,-4.127027536842105,4.424530468421052
720,1747679245710,2.252289111111111,-0.49452778444444445,0.9835845999999999,-2.3497052666666667,-4.2562607,4.4995848
721,1747679245720,2.662128331578947,-0.19439160157894736,1.062159652631579,-2.6949417842105263,-4.783286063157895,4.487885726315789
722,1747679245730,3.596995894736842,0.3681218105263158,1.4016303894736841,-3.7195570684210524,-5.899458189473684,4.608540768421053
723,1747679245740,4.5850425,0.4860400000000001,1.6760021,-4.469054,-5.792539510526316,4.62978997368421
724,1747679245750,6.140021121052631,0.0487921852631579,2.2711934157894738,-5.492492384210526,-4.743422894736842,4.022701642105263
725,1747679245760,7.0679182166666665,-0.3272400933333333,3.466324833333333,-6.511202149999999,-2.7254770666666666,2.5609826333333334
726,1747679245770,6.885577705263158,-0.3038833810526316,4.893627078947368,-6.8716164,-1.0423604,1.3883048
727,1747679245780,6.122115,-0.05186216,6.8700285,-6.348852421052631,-0.22053758736842105,0.8082407368421053
728,1747679245790,5.6469482684210535,0.2914107515789473,8.125201578947369,-4.717204684210526,0.04437664052631579,0.5534184526315788
729,1747679245800,6.0481785,0.3005051368421052,8.843654894736842,-2.0668287894736843,-0.14030643421052633,0.7173569578947369
730,1747679245810,6.968582526315789,-0.25047338842105266,9.061379631578948,0.7249749263157895,0.25109385526315786,0.17777289052631576
731,1747679245820,6.976983084210526,-0.9984189463157894,8.358238631578947,3.7804945684210525,1.139523752631579,-1.0617454489473683
732,1747679245830,5.396126166666667,-1.7124819111111114,6.070876666666667,7.123684244444444,1.915048161111111,-2.241581072222222
733,1747679245840,4.9262347,-1.892542,4.882914,8.67762412631579,2.0483057210526314,-2.292573505263158
734,1747679245850,4.856048578947369,-1.7373214947368423,3.0855484157894737,9.04715747368421,1.9180633157894735,-2.067074105263158
735,1747679245860,5.10586,-1.4219995,2.0181704,8.634228,1.8104155,-2.073802
736,1747679245870,5.498793,-1.1398695,1.2376753,7.5412674,2.0458388,-2.4913852
737,1747679245880,5.7215272105263155,-1.1313915789473683,0.7467349315789474,6.388259715789474,2.775824694736842,-3.3155628842105265
738,1747679245890,5.73468052631579,-1.1924829368421053,0.5191707631578947,4.881865,4.023080421052631,-4.139852757894737
739,1747679245900,5.103625605263159,-1.3390457842105263,0.46529834210526316,3.545687978947369,5.4540655052631575,-4.961675510526316
740,1747679245910,4.117660036842105,-1.4916456842105263,0.6650142736842105,2.6232818736842107,6.574947105263158,-5.306708931578948
741,1747679245920,3.5253457000000004,-1.6948555666666667,0.8977849333333333,1.8403317444444443,7.799919666666666,-5.356885416666667
742,1747679245930,2.971207463157895,-1.9573583947368423,1.3013356789473682,1.6297272263157894,8.872440789473684,-4.9079637789473685
743,1747679245940,2.606945678947368,-2.213875426315789,1.8934699842105265,2.192803242105263,9.565253684210527,-4.0567621473684214
744,1747679245950,2.6016434,-2.3543795055555554,2.175560227777778,3.0405288,9.455812,-3.4458616
745,1747679245960,2.7390479333333335,-2.5842001888888886,2.276328744444444,4.582438555555556,8.645620733333335,-2.770484533333333
746,1747679245970,2.9347274,-2.8184953,2.1899867,5.915675,7.592666599999999,-2.3869896
747,1747679245980,3.1775258789473684,-3.062372563157895,1.9355505263157895,7.259477336842106,6.2599098,-2.275249068421053
748,1747679245990,3.3540177,-3.2514527,1.6013206,8.557529,4.819785,-2.4114907
749,1747679246000,3.447889878947368,-3.4415089210526313,1.0935787789473685,9.298280157894736,3.9710506105263157,-2.802049868421052
750,1747679246010,3.412488421052631,-3.5647451210526317,0.6181553000000001,9.556409736842106,3.484897742105263,-3.1931136631578947
751,1747679246020,3.2966512789473685,-3.5635889842105266,0.22360462563157898,9.33965647368421,3.269938778947368,-3.5102818842105266
752,1747679246030,2.903282489473684,-3.3271361315789476,-0.4419266744736842,8.395440578947369,3.3806701684210525,-3.8369815052631573
753,1747679246040,2.5998807,-3.0606,-0.7128302,6.925881684210526,4.007886221052632,-3.8724156421052633
754,1747679246050,2.575773283333333,-3.0363569777777775,-0.6871228366666666,5.749553205555555,4.607620394444444,-3.6780298055555556
755,1747679246060,2.1659472,-2.6242256,-0.25009766,4.756219736842105,5.149848805263158,-3.3668078210526318
756,1747679246070,1.9120761473684211,-2.462377178947368,0.14481264842105265,4.1345544,5.5111413,-2.9984508
757,1747679246080,1.7695467842105264,-2.3299439210526316,0.4131728515789474,3.8615105789473687,5.554312721052632,-2.5346686315789473
758,1747679246090,1.7056550999999998,-2.2103045,0.660724,3.7393417,5.435508,-2.0247998
759,1747679246100,2.0094677210526313,-2.131692342105263,0.8743639631578948,3.9268281,4.9987497,-1.6839155
760,1747679246110,2.299717627777778,-2.117644161111111,0.9268006016666668,4.201488505555556,4.665736322222222,-1.6798912222222222
761,1747679246120,2.423183405263158,-2.1409664894736844,0.8102411294736843,4.4312583684210525,4.437019247368421,-1.790105447368421
762,1747679246130,2.496451947368421,-2.1616985210526316,0.5803905947368421,4.70379767368421,4.014894526315789,-1.9796663421052632
763,1747679246140,2.1771737666666664,-2.1250470166666666,0.05481118333333333,4.6961852777777775,3.2753898666666665,-2.105878288888889
764,1747679246150,1.9600911842105262,-2.068134657894737,-0.15792109736842105,4.5031357,2.9928582,-2.0429094
765,1747679246160,1.7427517,-1.9516037000000002,-0.32624355,4.1217713,2.9609003,-1.9033597999999998
766,1747679246170,1.6167368222222223,-1.831148011111111,-0.4798911244444445,3.721232188888889,3.2468644777777778,-1.7944661999999998
767,1747679246180,1.405567494736842,-1.7911939684210525,-0.641488405263158,3.1495221,3.766632,-1.6927739631578946
768,1747679246190,1.0549008865,-1.6210526299999999,-0.74856021,2.654477125,3.971569075,-1.4770412685
769,1747679246200,0.86756253,-1.3316984,-0.8060601,2.241581,4.0879493,-0.90627307
770,1747679246210,0.9982744205263157,-1.1257654315789474,-0.7768759315789474,2.047815263157895,4.178777015789474,-0.5934219573684211
771,1747679246220,1.6058228631578948,-0.9246879368421052,-0.7369019168421053,2.1389792894736845,4.145473526315789,-0.30153969157894733
772,1747679246230,1.9574002499999998,-0.9187535125,-0.887148025,2.2702765625000003,4.0290934375,-0.35280199999999995
773,1747679246240,2.52778636,-0.838897995,-1.63497612,3.1866830399999997,3.20292816,-1.15234894
774,1747679246250,2.5701058,-0.79526055,-1.8452559,3.7031226999999998,2.9651613,-2.1616862500000003
775,1747679246260,1.455794642222222,-0.4890500533333333,-3.0193339333333333,4.070283466666667,2.8335419777777777,-3.3393351555555557
776,1747679246270,-0.69498964,-0.22038367949999998,-4.962672285,3.976522625,2.308745805,-3.93023691
777,1747679246280,-2.0862353000000002,-0.41778533333333334,-5.648806622222222,3.5443985,1.4950975,-3.8229649999999995
778,1747679246290,-2.8884785,-0.4945820000000001,-5.896118,3.2977058684210525,0.64019542,-3.4291538842105265
779,1747679246300,-4.213118436842105,-0.6173556310526316,-6.308420347368421,2.7765675947368424,-1.6086882810526317,-1.8870444557894737
780,1747679246310,-4.3713703,-0.60928893,-6.3388376,2.3033664,-3.3507867,-0.49614653000000003
781,1747679246320,-4.3713703,-0.60928893,-6.3388376,1.809981136842105,-3.860319247368421,0.2816080552631579
782,1747679246330,-3.6185437,-0.7586519542105263,-6.539067136842105,0.49746410947368425,-3.3267903894736843,1.3653176094736843
783,1747679246340,-2.9115826666666664,-0.8821991266666667,-5.689157311111111,-1.0072511911111113,-2.2900209555555557,2.4384181444444444
784,1747679246350,-1.7640167789473684,-0.9790228157894736,-4.242951484210526,-1.8031549578947368,-1.9979019947368422,3.427948384210526
785,1747679246360,-1.0067972,-1.0256506,-3.5751338,-1.8260341882352942,-2.5097925588235297,4.1672018470588235
786,1747679246370,-0.07108167,-1.0539613,-3.2656689,-1.3238564,-3.5926015,4.382761
787,1747679246380,0.6845195,-1.1774542,-3.3095994,-0.97231936,-4.720716,4.282626
788,1747679246390,1.2639628263157896,-1.3487310315789474,-3.3745441789473687,-1.1654404315789475,-5.485351052631579,3.961141010526316
789,1747679246400,1.7106447222222223,-1.6150759444444445,-3.307484311111111,-1.787349577777778,-5.866939722222223,3.5758828999999994
790,1747679246410,1.916674694736842,-1.9125804000000002,-3.0330952421052633,-2.5988438,-5.8584175,3.2993877
791,1747679246420,1.9545933999999998,-2.0975502,-2.7565656,-3.209373,-5.7572174,3.2258847
792,1747679246430,2.0382923578947367,-2.4665647894736846,-2.0952988421052634,-4.311289989473684,-5.489780315789473,3.347997552631579
793,1747679246440,2.160089694736842,-2.725213889473684,-1.5541340631578948,-5.002414757894737,-5.202439252631579,3.5473700736842106
794,1747679246450,2.3235824052631577,-2.9280382263157896,-0.9663414368421052,-5.489969368421052,-4.960456105263158,3.7360898421052626
795,1747679246460,2.5205751,-3.1190709210526317,-0.25564674,-5.874473431578947,-4.748188184210527,3.9243050736842107
796,1747679246470,2.710303188888889,-3.195617838888889,0.50482563,-5.785165544444444,-4.817418077777777,3.937362422222222
797,1747679246480,2.741000077777778,-3.2048106222222223,0.8886192444444444,-5.3429627,-4.9934235,3.8298889999999997
798,1747679246490,2.6906703,-3.206546,1.044382,-4.898916121052632,-5.168350894736842,3.8021361578947372
799,1747679246500,2.6786842611111106,-3.2074681555555555,1.04576495,-4.239231255555556,-5.349813016666667,3.9194896166666666
800,1747679246510,2.6779792,-3.2075224,1.0458463,-4.140871911111111,-5.326140488888889,3.9548800333333336
801,1747679246520,2.8819339526315786,-3.2179011578947367,0.6267100905263159,-3.6087136,-5.073318,4.1792955
802,1747679246530,2.8366163,-3.158711,0.392261,-3.7866127000000005,-4.7079325,4.1792955
803,1747679246540,2.7336242,-3.1050184,0.29561433,-4.079224126315789,-4.412462210526316,4.185014210526316
804,1747679246550,2.652699989473684,-3.1003942157894735,0.33492038526315787,-4.5092540526315785,-4.148949505263158,4.2018343684210535
805,1747679246560,2.571056442105263,-3.140881910526316,0.5072505473684211,-4.904466652631579,-4.029920263157895,4.2543126526315795
806,1747679246570,2.541384110526316,-3.148537705263158,0.8051544842105264,-5.164615231578947,-4.040797305263157,4.402832831578947
807,1747679246580,2.5880377315789476,-3.134870494736842,1.022391042105263,-5.080627631578947,-4.124223989473684,4.512386726315789
808,1747679246590,2.6408825,-3.1147807,1.142493,-4.869986,-4.1699743,4.5819654
809,1747679246600,2.6776964894736843,-2.928962994736842,1.1384853210526316,-4.585223968421054,-4.225872705263159,4.56985454736842
810,1747679246610,2.6941126210526316,-2.7512638315789473,1.0549406421052632,-4.350361357894737,-4.3771404315789475,4.453909631578947
811,1747679246620,2.6994562,-2.6920736,0.9941062,-4.259589736842105,-4.562271642105263,4.3158176315789465
812,1747679246630,2.642835,-2.6593697,0.9731173,-4.240415,-4.77824,4.203797
813,1747679246640,2.559598547368421,-2.6413351210526317,1.0309202263157895,-4.235369315789474,-4.994208263157895,4.179575915789473
814,1747679246650,2.522476073684211,-2.6247906631578948,1.1499944421052632,-4.179695042105263,-5.050667184210527,4.275898410526316
815,1747679246660,2.5595843777777776,-2.5570826444444443,1.4247316444444444,-3.9792479333333333,-4.76137325,4.475438833333333
816,1747679246670,2.670606189473684,-2.4547984421052633,1.5367096789473684,-3.7229421894736845,-4.186906621052631,4.600691484210526
817,1747679246680,2.9274570368421053,-2.217086589473684,1.546960094736842,-3.3789951894736845,-2.9022547684210527,4.544456789473684
818,1747679246690,3.1470573,-1.8105386000000003,1.3665376,-3.282743,-1.9425082,4.278365
819,1747679246700,3.1920407315789476,-1.4109270263157896,1.2909826210526316,-3.4276187894736845,-1.611771947368421,3.8628001789473685
820,1747679246710,3.2179879263157893,-0.9988042526315791,1.3012072842105262,-3.6226183842105266,-2.097980594736842,3.0435563
821,1747679246720,2.810669336842105,-0.5478636105263157,1.459433394736842,-3.721856084210527,-3.044887947368421,2.4648379578947366
822,1747679246730,2.645429547368421,-0.21789816947368418,1.589734342105263,-3.7837533368421052,-3.52448072631579,2.504084347368421
823,1747679246740,2.7048254,0.06772589,1.5617833,-3.949598,-3.3891363000000005,2.9063056
824,1747679246750,3.203027533333333,0.11718815666666667,1.4530964333333332,-4.317409888888889,-3.128087538888889,3.2252927666666666
825,1747679246760,4.082027621052632,0.057989286699999996,1.4784441789473683,-5.204086315789474,-3.0877787789473685,3.529204347368421
826,1747679246770,5.574039421052632,0.41467253353684214,2.379940294736842,-6.435643031578947,-3.70748192631579,3.518215452631579
827,1747679246780,6.213212536842105,1.447163147368421,3.894020157894737,-7.113599147368421,-4.271286642105264,3.227510552631579
828,1747679246790,6.556921989473684,4.1775728421052625,6.2243043894736845,-6.919889705263158,-5.2184181999999995,4.218093431578947
829,1747679246800,11.928674210526315,5.019261921052632,6.98090754736842,-6.637650873684211,-3.3508988736842102,4.783411903157895
830,1747679246810,15.986910000000002,1.3622055,7.731063,-6.3489271333333335,1.3411077333333334,-0.7270720266666666
831,1747679246820,12.950348,-2.344536,9.760154,-4.373629231578947,4.940720742105263,-8.42630557894737
832,1747679246830,2.5225017315789473,-3.3885871421052634,11.78588094736842,-1.2478722526315789,5.414819294736842,-10.226993894736841
833,1747679246840,-2.881645,-2.9361308,11.404613,5.8315196,4.179562,-6.098368
834,1747679246850,-2.5787571052631577,-3.154395010526316,9.290408789473684,8.986831,3.5041846999999997,-2.3923159
835,1747679246860,2.040121844444444,-3.547304077777778,6.556442055555555,12.22558711111111,2.6292481666666667,0.9458653333333333
836,1747679246870,5.949496621428572,-3.4654908285714288,3.495483664285714,13.652381,2.0269684428571426,1.573965042857143
837,1747679246880,6.988415294736842,-3.1161678736842107,1.8597129315789473,13.241549526315788,1.8197225894736841,0.48344744631578945
838,1747679246890,7.1282729789473676,-2.6398965684210522,0.26861387894736843,9.896790063157894,2.8465246736842107,-2.3460049684210524
839,1747679246900,5.817505852631579,-1.8042446631578948,-2.246049184210526,6.4424199842105265,5.076177547368421,-3.55502307368421
840,1747679246910,5.0248337,-1.3151025,-2.1054208,3.2493205,7.1026454,-4.196872
841,1747679246920,4.188307952631579,-0.9835442715789473,-1.2402251263157895,0.6957152736842106,8.655463231578947,-4.612325305263158
842,1747679246930,3.333598238888889,-1.0909494927777779,-0.30094293333333333,-0.5076277188888888,9.321471666666667,-4.785016155555557
843,1747679246940,2.728743,-1.270196,0.2502197,-0.9062730700000001,9.584709,-4.768919
844,1747679246950,1.82866,-1.4654417,1.0219287,-0.813819357368421,9.619022157894737,-4.446760678947368
845,1747679246960,1.478519111111111,-1.4446155666666667,1.3343219444444445,-0.47342089444444446,9.449776333333332,-4.109639077777778
846,1747679246970,1.16921725,-1.3824622500000001,1.6728294000000001,0.1355548,8.95513875,-3.5641057500000004
847,1747679246980,0.9755128526315788,-1.390734494736842,2.254058057894737,1.5712498368421053,7.819455500000001,-2.4114345368421053
848,1747679246990,1.6756089333333335,-1.6868287666666668,2.5161013000000003,3.4602425666666665,6.805614333333334,-1.5734832111111112
849,1747679247000,2.6698867368421055,-2.1116796368421054,2.377987684210526,5.728189,6.018207,-1.1502184
850,1747679247010,3.1016625263157893,-2.3422494210526317,1.8785438631578948,7.077990031578946,5.594063684210527,-1.4287568421052632
851,1747679247020,3.22662,-2.4445994,1.4905186,7.770299400000001,5.073318,-1.7829850000000003
852,1747679247030,3.2701389789473683,-2.610327105263158,0.692245914736842,8.25790952631579,4.161900942105263,-2.471033252631579
853,1747679247040,3.231501,-2.6793826,0.2980549,8.042066176470588,3.695994888235294,-3.0560378235294117
854,1747679247050,3.070197923076923,-2.673525123076923,-0.15341343846153846,7.611575,3.7364123,-3.432013
855,1747679247060,2.8087938,-2.5734615,-0.38335294,6.749777,4.2754354,-3.7643754
856,1747679247070,2.4441724,-2.4328847,-0.40482998,6.1131484375000005,4.702339675,-3.838011725
857,1747679247080,2.171153733333333,-2.3492544333333334,-0.30818329333333333,5.4043487,4.968567,-3.7270910666666666
858,1747679247090,1.9078321800000002,-2.26438762,-0.207729322,4.71448392,5.0328382000000005,-3.47526272
859,1747679247100,1.7407993,-2.1505104,-0.095609425,4.1276302,4.982770800000001,-3.1033792499999997
860,1747679247110,1.6592841,-1.9374485,0.07791527,3.268495,5.1404295,-2.458362
861,1747679247120,1.6592841,-1.9374485,0.07791527,2.8285413,5.577188,-2.1206737
862,1747679247130,1.7080956,-1.7592866,0.4684069,2.6261413,5.9628134,-1.8788588000000002
863,1747679247140,1.8115759,-1.730488,0.7354055,2.6719475,6.082123,-1.5795196
864,1747679247150,1.866733,-1.6802120999999999,0.7993485,2.9723518,5.5068803,-1.4186648
865,1747679247160,1.9028534,-1.6348174,0.73101246,3.3334762999999996,4.5982103,-1.2833763
866,1747679247170,1.9960833,-1.5191343,0.53771913,3.522028,3.9558566,-1.233309
867,1747679247180,,,,,,
868,1747679247190,2.1693637,-1.3800217,-0.025076883,3.6125753,2.7872622,-1.2695279
869,1747679247200,2.00747245,-1.3279561166666667,-0.25123658883333333,3.4137261,2.874613866666666,-1.3511981000000002
870,1747679247210,1.6737649,-1.0846310333333333,-0.49358544,3.0501160499999997,3.0487845,-1.3787174
871,1747679247220,,,,,,
872,1747679247230,1.2863646499999999,-0.351808535,-0.8819619000000001,1.8442376500000002,4.0982027875,-0.6860297962499999
873,1747679247240,1.3522601,-0.28957394,-0.8660982,1.6503597,4.6695833,-0.32250857
874,1747679247250,1.5936633125,0.023154929937500002,-1.16888161875,2.0382489062499998,4.2782318125,-0.287021966875
875,1747679247260,1.7954681,0.21025531,-1.5972937,2.3576949,3.7268248000000006,-0.6548708
876,1747679247270,1.5494585,0.1801977447368421,-2.1975204684210525,2.6161054263157895,3.262986694736842,-1.4210756842105263
877,1747679247280,0.2779202,0.36791632,-2.7907336,2.9553077,2.498576,-2.8386612
878,1747679247290,-0.5979883789473683,0.5216723831578948,-2.9356264947368422,3.1277121736842104,2.104148,-3.0489105947368422
879,1747679247300,-2.0475855789473685,0.5544017684210526,-3.0631013789473687,3.8016315,0.8576774,-2.503719984210526
880,1747679247310,-2.5194895263157893,0.45752387578947373,-3.365295663157895,4.489231121052632,0.012755148421052654,-1.5141461442105262
881,1747679247320,-2.1982846,0.25418562,-5.1141586,5.188928788888889,-0.3659180355555555,0.20846618
882,1747679247330,-1.4823748,0.18767360315789472,-6.7164588,4.014123457894737,0.9859575368421052,1.0649132368421053
883,1747679247340,-0.6168707226315789,0.2170889310526316,-7.598892736842106,2.802190031578947,1.600894947368421,1.1038794105263159
884,1747679247350,-0.34589013,0.10287013,-7.56791,0.9089362,1.9520956000000003,0.6245108
885,1747679247360,-0.5550200844444444,-0.012324891474444445,-6.736380005555556,-0.581071706111111,1.2659474555555557,0.18485282388888888
886,1747679247370,-0.6084957,-0.21977356,-5.346013,-1.4518811514999999,-0.7903190925,-0.0262054842
887,1747679247380,-0.48728065,-0.35237797666666665,-4.749700000000001,-1.4985373666666666,-1.7521811416666668,0.00044386025000000027
888,1747679247390,-0.27560166,-0.6551717,-3.8567758,-1.2180588526315792,-3.3160255210526315,0.24084768744736848
889,1747679247400,-0.07814649189473685,-0.8911108263157894,-3.637381063157895,-1.0936473,-4.033676931578947,0.5251609447368422
890,1747679247410,0.24799106310526314,-1.2153216421052633,-3.506360852631579,-1.1123735157894736,-5.140878284210526,1.1399862552631579
891,1747679247420,0.9148582284210526,-1.7258894315789475,-3.3439729000000002,-1.865318657894737,-5.907475647368421,1.8601045631578947
892,1747679247430,1.5197348736842105,-2.1447944736842106,-2.988291352631579,-3.0782125,-6.077862,2.3502378
893,1747679247440,1.907631663157895,-2.461914684210526,-2.370107357894737,-4.228865552631579,-5.767309115789474,2.600238510526316
894,1747679247450,2.1696978368421056,-2.8226057210526316,-1.6032796547368422,-5.303043710526316,-5.407923063157895,2.8182812842105265
895,1747679247460,2.3338585,-3.0723147,-0.8851346400000001,-5.8457675,-5.294893,2.9680908
896,1747679247470,2.5316262055555554,-3.263167372222222,-0.17658219555555554,-6.079178361111111,-5.4126041944444445,3.1822679444444444
897,1747679247480,2.7536627368421054,-3.3987863157894735,0.4005846463157895,-5.990643,-5.5729265,3.2780826
898,1747679247490,2.920829057894737,-3.420982505263158,0.7928231594736842,-5.600812421052631,-5.832178289473685,3.2990514736842105
899,1747679247500,3.0019331578947366,-3.3580414315789473,1.0185118578947367,-5.33231,-5.94162,3.281782894736842
900,1747679247510,2.992376252631579,-3.231850947368421,1.1339125210526317,-4.763122968421053,-5.981987789473685,3.2414149789473683
901,1747679247520,2.9266606947368423,-3.168344652631579,1.0949661,-4.501068184210527,-5.898560931578948,3.2582349684210525
902,1747679247530,2.8834212,-3.1408404666666665,0.8900293188888888,-4.18715185,-5.644713583333333,3.3147158222222224
903,1747679247540,2.832043568421053,-3.138878215789474,0.6201847910526316,-4.1892824,-5.4919667,3.3388026
904,1747679247550,2.832146321052632,-3.211041784210526,0.4208542484210526,-4.609668978947368,-5.545846368421053,3.3591547842105265
905,1747679247560,2.8925053611111107,-3.3560176055555555,0.32457579999999997,-5.056407,-5.691171,3.3483899
906,1747679247570,2.895883694736842,-3.551154963157895,0.40279399578947367,-5.112978105263158,-5.7275581578947365,3.3581454736842105
907,1747679247580,2.882011,-3.5950851,0.5660298,-6.131258,-6.382527,3.5337458
908,1747679247590,2.8888446210526317,-3.619901868421053,0.7048598421052631,-6.315716842105263,-6.555996873684211,3.696226484210526
909,1747679247600,3.0230762736842105,-3.546916157894737,1.0425323789473686,-6.473431947368421,-6.771348389473684,4.026739015789474
910,1747679247610,3.205502505263158,-3.445568157894737,1.232717147368421,-6.345992736842105,-6.687024289473684,4.125303715789474
911,1747679247620,3.4031631000000004,-3.320148484210526,1.4004486736842103,-6.083657578947369,-6.451544863157895,4.088243521052632
912,1747679247630,3.420221252631579,-3.1820121,1.4189456368421052,-5.69954597368421,-6.076404057894737,3.7913713684210526
913,1747679247640,3.2559068,-3.0742671,1.4075391,-5.4260535,-5.9031587,3.5454638
914,1747679247650,3.0861513888888887,-3.037224527777778,1.408406938888889,-5.209805,-6.0842533,3.5167017
915,1747679247660,3.044322052631579,-3.076245452631579,1.4204612842105264,-5.0052743,-6.398506,3.6775565
916,1747679247670,3.1158691789473685,-3.0262005736842106,1.4760807578947368,-4.808480963157894,-6.603373189473683,3.939947710526315
917,1747679247680,3.3084689894736847,-2.7984309999999994,1.5432093789473684,-4.574066826315789,-6.272861142105263,4.183892978947368
918,1747679247690,3.443085568421053,-2.5335902789473685,1.5392530684210526,-4.3725076,-5.388636,4.1835566
919,1747679247700,3.350601,-2.3167133,1.5642239,-4.2244363,-4.3286986,3.9417417
920,1747679247710,3.0806735,-1.8476352999999999,1.7292067,-4.087017,-3.9633132999999994,3.6882089999999996
921,1747679247720,2.6949345263157896,-1.337041852631579,1.9611894368421052,-3.719501210526316,-4.207202563157895,3.4796415789473687
922,1747679247730,2.4148083789473684,-0.9457796000000002,2.1625494473684213,-3.2124356947368424,-4.73647062631579,3.535035347368421
923,1747679247740,2.3908651368421054,-0.5803360136842105,2.2338398736842104,-2.539861894736842,-5.407418631578947,3.980764
924,1747679247750,3.0845786263157895,-0.5329632236842105,1.9218576736842103,-1.6275125315789474,-6.310201568421053,5.1479005578947366
925,1747679247760,4.096928,-0.6185631,1.5803317,-1.564606,-6.6009064,5.8112793
926,1747679247770,5.689876642105264,0.03720589473684209,1.4781359421052631,-2.149891247368421,-6.520899173684211,5.9083305
927,1747679247780,6.762033,0.8887345,1.6637992,-2.765387461111111,-5.9950080111111115,5.403461188888889
928,1747679247790,7.63771,1.8410460000000002,2.1216507,-3.5479937000000006,-4.8038063,4.2836914
929,1747679247800,8.219902947368421,2.2747998631578947,2.7163283526315793,-4.277138552631579,-3.2816567210526317,2.867339263157895
930,1747679247810,8.412553736842106,2.249263847368421,3.1402686526315793,-4.647738036842105,-2.526777352631579,1.9583890736842104
931,1747679247820,8.342368315789473,2.088674157894737,3.9688300210526317,-5.143590210526315,-1.4837720894736843,0.45535816294736836
932,1747679247830,8.486567736842105,1.8612126578947368,5.007383526315789,-5.4764011578947365,0.03114495052631576,-0.7318501663157895
933,1747679247840,8.839705578947367,0.7710217863157894,6.044215989473685,-5.3424022631578945,2.1291537031578947,-2.005681221052632
934,1747679247850,7.137470342105263,-0.23364629894736844,7.190308810526316,-3.81123998,4.545283868421053,-4.002321631578948
935,1747679247860,3.2671332,-0.56535864,8.025884,0.14916650222222222,5.087876611111111,-4.6979014
936,1747679247870,2.6446847947368424,-1.0848922810526316,8.017431457894736,3.409670626315789,4.288667515789474,-3.171303810526316
937,1747679247880,3.7879515,-1.8647194,6.6703897,6.810440689473685,3.209499252631579,-1.853628852631579
938,1747679247890,5.1327066,-2.25033,4.8521633,8.6195515,2.412467094444444,-1.729485138888889
939,1747679247900,5.7106347,-2.3542984,3.202336,9.366064,1.8903103,-2.3411832
940,1747679247910,5.7514895699999995,-2.31212521,2.38215736,9.105075,1.8072197000000003,-3.0453224
941,1747679247920,5.510996,-2.075585,0.80130094,9.105075,1.8072197,-3.0453224
942,1747679247930,5.341645263157894,-2.0907934210526316,0.3664166115789474,6.65076352631579,3.2416814,-4.515049884210526
943,1747679247940,4.750616094736841,-2.2565725789473685,-0.00249516684210526,4.840151631578948,4.756710484210527,-5.117204052631579
944,1747679247950,3.947385210526315,-2.2693405736842105,0.13934064631578946,2.830671847368421,6.9720665,-5.403311421052631
945,1747679247960,2.838800047368421,-2.0460412315789474,0.8499839684210526,1.4611913315789473,9.030828815789473,-5.116026715789474
946,1747679247970,2.4269856631578945,-2.097164705263158,1.3322153736842106,1.2475779157894735,9.914829263157896,-4.394731168421053
947,1747679247980,2.2601533,-2.1976135,1.7375045,1.5821828,10.02786,-3.8591838
948,1747679247990,2.1347077,-2.2879148,2.0088964,2.4333284,9.853156,-3.209373
949,1747679248000,2.178869331578947,-2.3468223578947365,1.9503224473684209,3.706823089473684,9.092501421052631,-2.492394610526316
950,1747679248010,2.2987142,-2.3865137,1.8697834999999998,4.6639905,8.194541,-2.0546272
951,1747679248020,2.525764589473684,-2.4526403,1.7897841105263155,5.291710942105263,7.492139315789473,-1.8548061684210524
952,1747679248030,2.7654060222222223,-2.550438911111111,1.6051983388888889,6.175185083333334,6.496806305555555,-1.7775403444444444
953,1747679248040,2.999107205263158,-2.6798963684210526,1.3039046736842106,6.947466984210527,5.6189572105263155,-1.917993242105263
954,1747679248050,3.14102,-2.7993558631578948,0.8500096342105262,7.49938582631579,4.93954352631579,-2.329857684210526
955,1747679248060,3.031348263157895,-2.8358618157894737,0.23367517684210526,7.473259005263157,4.855836136842106,-2.879197294736842
956,1747679248070,2.652571410526316,-2.7617455421052632,-0.24991783999999997,6.9393935,5.3130026,-3.1294782
957,1747679248080,2.3626828315789474,-2.6317270421052634,-0.34579381157894734,6.072829636842105,6.021066242105263,-3.0989781631578945
958,1747679248090,1.9834179684210527,-2.427258442105263,-0.16698974421052631,5.1725699315789475,6.567602526315789,-2.774296963157895
959,1747679248100,1.7857057999999997,-2.2566752,0.08621322,4.6512074,6.628603,-2.3720758
960,1747679248110,1.764554311111111,-2.0221636333333333,0.41417192,4.373765266666666,6.273515266666667,-1.9705898444444445
961,1747679248120,1.9350688,-1.9384247,0.601174,4.2027316,5.72739,-1.5859113
962,1747679248130,2.1299034947368423,-1.9688418789473685,0.6862600631578948,4.156981200000001,5.476212063157895,-1.5060725631578948
963,1747679248140,2.2900307263157895,-2.033940863157895,0.8113971842105263,4.151262578947368,5.271849915789473,-1.547337457894737
964,1747679248150,2.220076347368421,-2.031603147368421,0.8895211978947369,4.242258278947368,5.130618336842105,-1.5995914315789475
965,1747679248160,2.0243681736842105,-2.020145447368421,0.9379987452631579,4.5640237894736835,4.76691482631579,-1.5187996052631578
966,1747679248170,1.8524961666666668,-1.9986255333333334,0.7432967333333333,4.8376285333333335,4.37237495,-1.31799745
967,1747679248180,1.8179215,-1.9384247,0.5216114,4.9441547,3.9888796999999996,-1.1715237
968,1747679248190,1.8733866210526315,-1.8592474263157897,0.2663017931578947,4.839478568421053,3.752503257894737,-1.118877242105263
969,1747679248200,1.9411703833333336,-1.7544054999999998,-0.13937702166666666,4.451825683333333,3.6458649166666666,-1.1882128666666665
970,1747679248210,1.9155443,-1.6738665,-0.45217708000000006,4.0621166,3.7257595000000006,-1.3409007
971,1747679248220,1.763072789473684,-1.4623075578947369,-0.8443898615789474,3.2387798736842104,3.8954167052631576,-1.6166357526315789
972,1747679248230,1.654403,-1.3883196,-0.9456607700000002,2.7997792,3.9771619999999994,-1.6903071
973,1747679248240,1.3189913,-1.1813078263157895,-1.1670849915789474,2.0725405842105262,4.283116636842106,-1.6350255157894737
974,1747679248250,1.0432580315789475,-1.0482066473684213,-1.1883307894736843,1.4487445315789473,4.5245392578947365,-1.3925938842105263
975,1747679248260,0.9590568361111111,-0.8203713272222222,-1.2610912333333333,1.1293274444444446,4.487659888888889,-1.0129177500000002
976,1747679248270,1.099807365,-0.5837605349999999,-1.44470908,1.08204155,4.318579000000001,-0.7502119300000001
977,1747679248280,1.411322,-0.2881096,-1.7896107,1.3584214368421053,3.5927139473684213,-0.649824865263158
978,1747679248290,1.2538620823529412,0.028561876176470585,-2.2418631941176472,1.6503597,2.729738,-0.8114646
979,1747679248300,0.9886919578947369,0.18893242105263156,-2.434589921052632,1.980703610526316,1.9696444789473686,-0.7115540694736842
980,1747679248310,0.8690269,0.19024262,-2.4070756,2.453007763157895,1.1602122263157895,-0.4794947652631578
981,1747679248320,0.86707443,0.44650271999999996,-2.212318,3.2908657,0.5672529,-0.2543317
982,1747679248330,1.0098606289473684,0.5767008631578947,-2.3569024842105257,3.947348342105263,0.46582858421052625,-0.3295168947368421
983,1747679248340,1.0861864157894736,0.48519223157894736,-2.8959350789473683,5.446903115789475,0.16727441894736841,-0.7180577778947368
984,1747679248350,0.6800614866666667,-0.06360945066666666,-4.43662358,6.56257456,-0.465058608,-1.7899446893333333
985,1747679248360,-0.23911506999999996,-0.520818165,-5.479390225,6.600639925,-0.8402267,-2.3968432500000003
986,1747679248370,-1.6795002866666668,-0.9091539116666666,-6.536605499999999,5.765828333333334,-1.24529315,-2.4606703166666666
987,1747679248380,-2.9612076,-1.2003956,-7.3736405,4.415784,-1.3885711,-1.7638103
988,1747679248390,-3.5265468210526314,-1.3456481263157896,-7.409760921052632,2.2341802210526316,-1.6988992368421052,-0.10547510631578945
989,1747679248400,-3.6371024647058823,-1.474486288235294,-6.9530867058823524,0.18493289999999998,-2.1938478352941178,1.8864722882352944
990,1747679248410,-2.9846370857142857,-1.5506875071428572,-5.887646000000001,-1.3766630000000002,-2.898353985714286,3.971873528571429
991,1747679248420,-1.6219757263157895,-1.6134944842105263,-4.568652310526316,-2.045523547368421,-3.85959032631579,5.517939363157895
992,1747679248430,-0.166264,-1.6426272,-3.4828799,-2.082191,-4.5790358,6.2544293
993,1747679248440,0.4531276315789475,-1.6444255684210525,-3.068753215789474,-1.9666378684210524,-4.815187842105263,6.361908768421053
994,1747679248450,1.5658745736842103,-1.6502829421052632,-2.4101070684210524,-1.7189360263157896,-5.357462789473684,6.390727115789473
995,1747679248460,2.2203590789473684,-1.7114258473684212,-2.101207552631579,-1.7312005421052632,-5.807116284210526,6.104507210526315
996,1747679248470,2.5330605421052628,-1.8091771894736843,-1.906629705263158,-2.0045038052631576,-6.247070610526316,5.707332115789473
997,1747679248480,2.746083942105263,-1.9887518210526316,-1.6270172315789473,-2.6911713210526313,-6.403608236842106,5.2768536
998,1747679248490,2.8431673210526314,-2.291870863157895,-1.3371543157894736,-3.704923863157895,-5.907363473684211,5.007902631578947
999,1747679248500,2.9254532,-2.7687073,-0.9495657,-4.942424,-5.0136633,4.867456
1000,1747679248510,2.9254532,-2.7687073,-0.9495657,-4.942424,-5.0136633,4.867456