id,timestamp,acc_x,acc_y,acc_z,gyro_x,gyro_y,gyro_z
0,1747679292620,-0.111107066,0.57390064,0.71295226,0.30173594,-0.25406536,-0.6708498
1,1747679292630,-0.17892928115789475,0.5964052884210527,0.6830487905263157,0.25194886842105263,-0.3516210905263158,-0.6372098842105264
2,1747679292640,-0.17714608470588236,0.58989356,0.6628487,0.14695938411764708,-0.4453741976470588,-0.5288563976470587
3,1747679292650,-0.09461964222222223,0.5843679477777778,0.7213044222222222,0.046901191333333335,-0.5100245466666666,-0.4717638455555555
4,1747679292660,-0.03721873125,0.5900083675,0.7657906375000001,0.02237053525,-0.46818336125,-0.486426015
5,1747679292670,,,,,,
6,1747679292680,,,,,,
7,1747679292690,,,,,,
8,1747679292700,,,,,,
9,1747679292710,0.039082014076923084,0.6792957846153846,0.6157047907692307,-0.08618392369230768,-0.617238363076923,-0.8436682938461538
10,1747679292720,0.11488995045454545,0.6894949727272728,0.6247366327272728,-0.16727059545454545,-0.9559773,-0.8443908945454546
11,1747679292730,0.20079809818181815,0.7120813818181818,0.63054964,-0.2863864372727273,-1.3317248818181817,-0.89920356
12,1747679292740,0.22887904470588236,0.7771859411764706,0.6645140564705883,-0.38736432294117645,-1.3240914294117645,-0.9478809870588236
13,1747679292750,0.28349864142857145,0.8320434214285715,0.7895861757142857,-0.443948625,-1.1329079,-0.97658045
14,1747679292760,0.3346499422222223,0.8600441638888889,0.8725114138888889,-0.4541869944444444,-0.8740488166666667,-1.0354067
15,1747679292770,0.4385869373684211,0.9178414947368421,0.9746073042105262,-0.30882834210526316,-0.6854410947368421,-1.2555674210526315
16,1747679292780,0.4977594461538461,1.0253313384615386,0.9375599584615385,-0.1892686646153846,-0.9104316307692307,-1.5038040615384616
17,1747679292790,0.5212021882352941,1.1277095764705882,0.9427105823529411,-0.14435888294117646,-1.271454805882353,-1.751277788235294
18,1747679292800,0.47863800315789473,1.2113268315789474,1.0327957315789476,-0.10883910684210525,-1.7134766052631578,-2.000523105263158
19,1747679292810,0.28054849615384614,1.2789256769230768,1.289528123076923,0.07303201153846153,-2.446869630769231,-2.2222015153846155
20,1747679292820,0.07475608666666668,1.3332169,1.5906634444444445,0.34878506277777777,-3.221771472222222,-2.3543215055555553
21,1747679292830,-0.25005699666666664,1.4000343666666666,2.4367287166666665,1.0300211666666668,-4.424572533333334,-2.3855691666666665
22,1747679292840,-0.36382191421052634,1.4190837368421052,2.7842019000000002,2.161742252631579,-5.524036815789475,-2.231797447368421
23,1747679292850,-0.3039379736842105,1.3767975736842104,2.7855633631578947,3.372106063157895,-5.424462815789474,-1.9996821
24,1747679292860,0.16581655777777776,1.3036317444444443,2.4484162333333335,4.288189211111111,-5.203161688888889,-2.0407787555555554
25,1747679292870,0.47730213368421043,1.5792879421052632,1.984747405263158,4.215682689473684,-5.50973992631579,-2.363721884210526
26,1747679292880,0.6246442,1.7963020333333333,1.6997570333333334,3.910494033333334,-5.7955668,-2.724678
27,1747679292890,0.6050339894736843,1.9302937789473682,1.4905699842105264,3.1189097,-5.5094593631578945,-3.276204305263158
28,1747679292900,0.44577735555555553,2.011506211111111,1.4175997999999999,2.2716451,-4.799900577777778,-3.6539430777777775
29,1747679292910,0.3597179105263158,1.9874287368421055,1.7405875,1.5339095631578947,-3.885268968421052,-3.7285488578947374
30,1747679292920,0.4176750684210527,1.7733263631578948,2.467595452631579,0.8073437,-2.9371280631578944,-3.741556310526316
31,1747679292930,0.6152329631578948,1.486109547368421,2.829057031578947,0.3936849926315789,-2.1690729578947368,-3.787082357894737
32,1747679292940,1.0306955157894737,0.7369565578947368,3.4491166,0.30011000894736845,-0.4985714310526315,-4.2867470894736845
33,1747679292950,0.9380051894736843,0.44824965473684214,3.614047968421053,0.48154123263157894,0.3060390221052631,-4.505854789473685
34,1747679292960,0.5603586894736842,-0.050423518421052624,3.7437065736842103,1.1045522157894736,1.5617045652631578,-4.466383947368421
35,1747679292970,-0.015056980000000001,-0.46968822222222223,3.7263001222222223,2.1096066444444443,2.435962066666667,-4.036490994444445
36,1747679292980,-0.4268144136842105,-0.6015818578947368,3.494151552631579,2.862517568421053,2.5779660842105265,-3.637048326315789
37,1747679292990,-0.39931156222222225,-0.6198104666666667,2.9937484,5.104062644444444,0.9945419755555557,-2.2924177777777777
38,1747679293000,-0.15827433368421054,-0.6381133368421054,2.6628924842105266,5.581014263157894,0.3546486789473684,-2.017455157894737
39,1747679293010,0.45818858421052633,-0.6930390789473684,2.065748747368421,5.918702894736842,-0.31231848526315786,-1.9756856421052633
40,1747679293020,0.8897074947368422,-0.7375345684210526,1.591301447368421,6.0211363,-0.56512237,-2.0407789
41,1747679293030,1.0994168736842105,-0.8250098157894736,1.0350050526315788,5.627549578947368,-0.14075497631578945,-2.6119845052631576
42,1747679293040,0.9334579166666666,-0.9198924233333332,0.7163690333333333,4.945220333333333,0.6205160666666667,-3.358154933333333
43,1747679293050,0.40927437842105263,-0.98172027,0.517783512631579,4.159279968421053,1.6984507421052633,-3.512075989473684
44,1747679293060,0.33014846,-0.98172027,0.50159866,3.7757287894736846,2.6778765,-3.19933702631579
45,1747679293070,0.07378557,-0.9485285126315789,0.3583498957894737,3.5697404842105263,3.538833789473684,-2.836250315789474
46,1747679293080,-0.021371068631578942,-0.954231752631579,0.2414593252631579,3.4961251736842103,3.922833331578948,-2.6008831894736844
47,1747679293090,-0.16343806926315788,-0.8517790263157895,0.04076719618421052,3.364256705263158,4.0705686631578955,-2.1203371789473686
48,1747679293100,-0.28474737157894736,-0.7553378684210525,-0.05269388513157895,3.3003408842105264,3.7015388210526314,-1.7768737473684209
49,1747679293110,-0.5120117466666667,-0.7342462066666666,-0.26197511,3.2106158666666667,2.7975599,-1.2972248
50,1747679293120,-0.6424068263157894,-0.7154152652631579,-0.4089403947368421,3.10309902631579,2.2156083157894737,-0.9116554105263157
51,1747679293130,-0.6572044084210527,-0.6224679973684211,-0.5807310210526315,2.862910105263158,1.7185786736842106,-0.4030200505263158
52,1747679293140,-0.5484833305263158,-0.4667338047368421,-0.8115834736842105,2.478854505263158,1.3743302526315788,0.10281195789473684
53,1747679293150,-0.12566914666666668,-0.26581903,-0.9877200500000001,1.4254115166666665,2.0470815333333334,0.6376490533333333
54,1747679293160,0.135146695,-0.215136455,-0.9156418083333333,0.7645337888888889,3.1722958444444442,0.7659541355555556
55,1747679293170,0.22937989555555557,-0.15208833888888887,-0.7975994311111111,0.36659864444444445,3.956093111111111,0.7996874933333333
56,1747679293180,0.25528708,0.029421741578947367,-0.5245464736842106,0.1999191531578947,4.390484210526316,0.8624010073684211
57,1747679293190,0.38553657736842106,0.20514296631578946,-0.14510167078947367,0.7244773921052632,3.9099942105263157,1.0316097736842105
58,1747679293200,0.5393697052631579,0.32020953842105265,-0.023792370105263156,1.4821601578947368,3.0699497157894737,1.115765594736842
59,1747679293210,0.935266894117647,0.5089239752941177,-0.3335078477647059,3.0270562176470586,0.9409724470588235,0.9892696011764706
60,1747679293220,1.0641956,0.5351340578947369,-0.6073718052631578,3.619022884210526,0.052618404210526305,0.8881354978947369
61,1747679293230,1.1947347499999998,0.56693144,-1.5070737944444443,4.403888716666667,-1.595705758888889,0.4445995988888889
62,1747679293240,1.0823071315789474,0.5833032736842105,-2.7393788631578944,4.623006,-3.1476017684210524,-0.15862616578947372
63,1747679293250,0.9598161,0.5787818,-3.2881224,4.483961,-3.9835534,-0.56006235
64,1747679293260,0.37204920842105266,0.4170103263157895,-3.932253494736842,2.7544214578947366,-4.256597373684211,-1.0675202578947367
65,1747679293270,-0.24947468789473684,0.21531628947368422,-3.6934883894736843,1.2781901842105263,-3.8433872578947366,-1.1413038368421053
66,1747679293280,-0.7048711944444445,0.08795552233333333,-3.0257878888888885,0.9813741,-3.63414695,-0.89934883
67,1747679293290,-0.9152371726315789,0.029370363842105264,-2.6561168736842107,1.0787055368421052,-3.587499642105263,-0.3635492494736842
68,1747679293300,-0.78714565,-0.07583115578947368,-2.691800468421053,1.6876999578947367,-3.78676,0.24353888736842108
69,1747679293310,-0.2998275421052632,-0.3287001578947369,-3.2610703526315787,1.9545205736842106,-3.5742678789473685,0.5422051557894737
70,1747679293320,-0.031137637055555563,-0.6103193694444444,-3.5208445166666666,1.8190264833333332,-3.107492316666667,0.5447935488888889
71,1747679293330,0.05218007910526315,-0.8901859736842105,-3.386978410526316,1.5197247210526317,-2.0882811,0.4909603631578947
72,1747679293340,0.1148642555263158,-1.2266253210526317,-3.1047968105263157,1.3116058157894737,-0.7516556136842105,0.4837838578947369
73,1747679293350,0.19786940421052632,-1.901867410526316,-3.066312852631579,1.0765750389473685,0.8598079315789474,0.6201936715789473
74,1747679293360,0.22227512,-2.3547862,-3.2559068,0.8330221694736842,1.3995041263157895,0.8084650042105263
75,1747679293370,-0.5736597223684211,-3.406955736842105,-3.7771871736842106,-0.7678658789473684,-0.07358730052631579,2.1260840421052634
76,1747679293380,-1.671352247368421,-3.817511389473684,-4.430233263157895,-2.5191732894736845,-2.6707001168421054,4.1028207684210525
77,1747679293390,-1.2718433500000002,-4.3682587,-4.4771693500000005,-4.32457075,-5.442432,6.20595955
78,1747679293400,0.8703113736842104,-5.884779463157895,-3.934051778947369,-7.198876421052631,-9.470109894736842,9.2099752
79,1747679293410,2.7739578684210526,-6.707585947368421,-2.8416516421052633,-8.862426210526316,-10.841103684210525,10.51901652631579
80,1747679293420,4.5619212000000005,-7.344447010526316,-1.7088149684210525,-10.14416194736842,-11.00756547368421,11.246423210526316
81,1747679293430,5.773575494736842,-7.658638505263158,-0.9473049894736841,-10.937727315789473,-10.374799157894737,11.294864368421052
82,1747679293440,6.9655768,-7.723313650000001,-0.042893085,-11.539246444444446,-9.396513277777778,10.93194238888889
83,1747679293450,8.12220242105263,-7.56625617368421,1.1812852526315791,-12.269531789473684,-7.468871789473684,9.653573
84,1747679293460,8.697047052631579,-7.1520266368421055,2.4306015315789473,-12.331317263157894,-6.20165652631579,7.91876347368421
85,1747679293470,8.372268444444444,-6.680077455555556,3.226091211111111,-11.924162,-5.284358666666667,5.704871466666667
86,1747679293480,6.537654473684211,-6.2610641052631575,3.5620766578947367,-10.626278368421053,-4.872880368421053,3.565367273684211
87,1747679293490,5.022094833333333,-5.989476694444445,3.28377,-10.1017325,-5.103974144444445,3.4295274888888887
88,1747679293500,4.407163315789473,-5.7263988421052625,2.917739568421053,-9.589944842105263,-5.971335231578947,3.7265024368421056
89,1747679293510,4.358700911764706,-5.546997823529412,2.759070682352941,-9.340145647058824,-6.6161331294117645,4.053845111764706
90,1747679293520,4.4384798105263155,-5.2634861789473675,2.5862329736842105,-9.174491789473683,-6.781664894736842,4.386741552631579
91,1747679293530,4.447573894736842,-4.890207210526316,2.65415802631579,-9.162941684210526,-6.116211210526315,4.427053210526316
92,1747679293540,4.3761295,-4.6110955,2.8640729,-9.1321055,-5.6197982,4.3422808
93,1747679293550,4.213279247368422,-4.170161142105264,3.3798556,-8.927687526315788,-5.321973031578947,4.150869942105263
94,1747679293560,3.917558705263158,-3.533094821052632,4.16852,-7.849977105263157,-5.102192631578947,3.6104448157894744
95,1747679293570,3.5248577333333335,-3.0301740666666666,4.609570000000001,-6.1948186666666665,-5.049172333333334,3.2049344333333334
96,1747679293580,3.0073537894736844,-2.6367880736842104,4.463957915789474,-4.561788042105263,-4.878991463157895,3.1566425736842105
97,1747679293590,2.3728562736842105,-1.8203267526315792,3.629359357894737,-2.764015831578947,-4.422330031578947,3.5876256368421053
98,1747679293600,2.3356567368421053,-1.0636978473684209,2.1803272315789473,-2.0617827789473684,-3.8496106263157897,4.13831114736842
99,1747679293610,2.6767975842105263,-0.6589738178947367,1.4384701947368423,-2.2767207157894735,-3.5955172,4.194825994736843
100,1747679293620,2.7981322842105265,-0.26367815684210527,1.1369953105263158,-2.9930684210526315,-3.7542974421052633,3.8198531
101,1747679293630,2.5284533555555555,0.3054919044444444,1.3033538555555557,-3.6166736444444445,-4.407173233333333,3.5944658444444446
102,1747679293640,2.44719868,0.906404212,1.6487653400000002,-3.9709036,-5.11614172,3.73891572
103,1747679293650,2.949113947368421,1.5041954368421053,2.0359479631578945,-4.205597852631579,-5.937078789473684,4.053818736842105
104,1747679293660,4.156504988888889,1.8673768666666666,2.1774041222222222,-4.416302011111111,-6.086265555555555,3.9065880555555554
105,1747679293670,5.154081194736842,2.032052689473684,2.2603264947368418,-5.019907747368421,-5.455691778947369,3.04170617368421
106,1747679293680,5.722554836842105,2.0601064368421054,2.972048810526316,-6.332985242105264,-3.4538931684210525,1.237710232631579
107,1747679293690,5.352042688235294,1.9161006588235292,5.127947705882353,-7.185681152941177,-0.24679652705882346,-0.22281242941176468
108,1747679293700,5.545163478947368,1.4389937157894737,7.23608852631579,-6.287179052631579,1.815012947368421,-1.1710751526315788
109,1747679293710,4.770910852631578,0.7991526631578947,8.53729905263158,-3.574681326315789,3.3706343263157894,-2.5569271736842105
110,1747679293720,3.6015203058823526,0.5277881529411764,8.410172529411765,-1.349610675882353,3.8357951058823527,-2.797868011764706
111,1747679293730,3.171462975,-0.0816676725,7.27028234375,2.06075248375,3.981556075,-2.1684773375
112,1747679293740,4.190646066666667,-0.71748762,5.8052883,4.4516479,3.665039533333333,-1.2194605666666667
113,1747679293750,5.264567678571429,-1.1056315357142856,4.8407620571428565,5.7464506,3.3594610285714284,-0.8493574928571429
114,1747679293760,6.487712999999999,-1.4833066799999999,3.81833652,6.505831240000001,2.90018026,-1.1619362800000002
115,1747679293770,7.289502125,-1.7493413625,2.9937282124999998,6.78279985,2.40962635,-2.0200062
116,1747679293780,7.7139543,-1.99494841,1.9669672000000002,6.7934527000000005,2.159822,-2.635196
117,1747679293790,7.218420333333333,-2.2606344888888885,0.7640415444444444,5.303267311111111,2.827387277777778,-4.2372341111111105
118,1747679293800,6.103200575,-2.5989044999999997,0.3196539975,2.2515678625,5.205144562499999,-5.90568845
119,1747679293810,5.2829600823529415,-2.7942902588235294,0.7531499411764706,0.5182350870588236,7.55030654117647,-5.949544435294118
120,1747679293820,4.6236036,-2.8875632,1.3028386200000002,-0.3652374755555555,9.191627505555555,-5.740735344444444
121,1747679293830,3.3241513,-2.87993653125,2.55238119375,-0.588158688125,10.721212625,-5.0974864375
122,1747679293840,2.4609512374999998,-2.777432625,3.4860526,0.33462594,11.182605125,-4.0325555625
123,1747679293850,2.1644312631578946,-2.6864216526315787,3.9742762631578943,2.0566736842105264,10.723027736842106,-2.6845905421052634
124,1747679293860,2.3876866555555556,-2.636726677777778,4.0317781722222215,3.627489016666667,9.833329944444445,-1.7376522055555554
125,1747679293870,2.7292314,-2.6417978,3.8686123,5.5177680588235285,8.313850005882353,-1.0760259470588234
126,1747679293880,3.37116285,-2.6979919625,3.3128939875000003,7.2002500000000005,6.6761403375,-1.0309088625
127,1747679293890,4.489588905555555,-2.8613407611111112,2.100336327777778,8.302220666666667,5.409349577777778,-1.5251911999999999
128,1747679293900,4.6157937,-3.0425396,1.3557991,9.015593,4.5012717,-2.3230736
129,1747679293910,4.390718744444445,-3.109411266666667,0.45332956599999996,8.886340555555556,4.536780255555556,-3.080120977777778
130,1747679293920,3.975007833333333,-3.1325153777777777,-0.22596310644444445,7.951157222222223,5.677677611111111,-3.967130466666667
131,1747679293930,3.2831896578947366,-3.1134704263157893,-0.479331667368421,6.672741289473684,7.713658536842106,-4.042521263157894
132,1747679293940,2.639392436842105,-2.9630284684210526,-0.23291090315789473,5.717367836842105,9.107920368421054,-3.5495844631578954
133,1747679293950,2.261617489473684,-2.885906268421053,0.2437971357894737,5.351702136842105,9.491246421052631,-2.910538552631579
134,1747679293960,2.223493194736842,-2.884621794736842,0.5497164631578948,5.4377642947368425,9.027015894736843,-2.3047399736842102
135,1747679293970,2.2646323529411765,-2.8706372705882353,0.7540686941176471,5.680314594117647,8.331771529411766,-1.871464588235294
136,1747679293980,2.327513,-2.8468058,0.8330284,5.8112793,8.024098,-1.7787239999999997
137,1747679293990,2.474795052631579,-2.804031642105263,0.46938308842105264,6.670218578947368,5.715559836842106,-1.6568353736842105
138,1747679294000,2.4065875,-2.79189305,0.016656905,6.74977685,4.632298850000001,-1.7409071
139,1747679294010,2.1460700444444445,-2.6914769555555558,-0.43232708,6.23117083888889,3.9373918888888886,-1.7503170055555557
140,1747679294020,1.93145685,-2.345317,-0.631754392,5.57670844,3.98824062,-1.55118368
141,1747679294030,1.9822149352941176,-2.0098903764705884,-0.7464239811764706,4.651458011764706,4.468436464705882,-1.2923371176470588
142,1747679294040,1.9591663421052634,-1.8747899684210525,-0.6204223999999999,3.4703906684210524,5.335484999999999,-1.1086170789473684
143,1747679294050,1.725667763157895,-1.770564752631579,-0.27591634842105267,2.6787877157894737,5.744546199999999,-0.9539856368421054
144,1747679294060,1.4089071736842105,-1.6266737,0.13995720210526316,2.4802561263157896,5.583130784210526,-0.7691904394736843
145,1747679294070,1.3283426263157896,-1.577040142105263,0.28669984210526317,2.434057305263158,5.288445184210526,-0.5745275257894736
146,1747679294080,1.308561152631579,-1.5696927210526317,0.4616246789473684,2.471678,5.08184,-0.46844968000000003
147,1747679294090,1.3176041,-1.5855179,0.5152659,2.911987022222222,4.431792488888889,-0.30700306
148,1747679294100,1.286929952631579,-1.5516838526315788,0.3992744763157895,3.548323252631579,3.4942608684210525,-0.06768629105263158
149,1747679294110,1.161869847368421,-1.3517110315789476,-0.3680415342105263,4.023318578947369,2.676586994736842,0.15209441842105265
150,1747679294120,1.4037948315789475,-1.1025671631578948,-1.4197227947368423,3.877825752631579,1.833515,0.1284343494736842
151,1747679294130,1.4220606,-1.0695809,-1.5123618,3.3051066000000002,1.799370405263158,-0.11848254368421053
152,1747679294140,1.4220606,-1.0695809,-1.5123618,3.0402484736842106,1.8738266789473685,-0.2205235857894737
153,1747679294150,1.4220606,-1.0695809,-1.5123618,2.2271719578947367,1.9015796473684212,-0.3744261563157895
154,1747679294160,0.4813098057894737,-0.5400023478947368,-1.885101547368421,2.080614094736842,1.3671537736842105,-0.0454278905263158
155,1747679294170,-0.10360551421052631,0.009768713157894734,-2.3510195263157896,2.392848484210526,0.5225678942105263,0.6893798105263157
156,1747679294180,0.30987732470588236,0.1138383488235294,-3.0212384588235293,2.780353811764706,-0.20518859470588235,1.3613599764705882
157,1747679294190,1.0118388736842103,0.22466754210526316,-4.240459326315789,2.8786087263157896,-0.6998502105263158,1.7305908421052631
158,1747679294200,2.1759263,0.5908761422222222,-6.148798388888888,1.3783623666666667,-1.0762122111111112,1.4776685555555555
159,1747679294210,2.9642855000000004,0.7004307111111111,-6.755578833333334,0.47217810000000005,-1.0657963,1.191231
160,1747679294220,3.0067244,0.80014165,-5.6884252,-2.3098614,-0.0650402833333333,-0.6712048888888889
161,1747679294230,2.3387396666666667,1.0166204333333333,-4.0915588666666665,-4.3149834,1.1403648,-3.4384047999999994
162,1747679294240,0.5892621076923077,1.3212789461538463,-1.7480082923076923,-2.5923293076923075,0.4471239415384615,-4.219160984615384
163,1747679294250,-0.07375003133333333,1.23734586,-1.68011032,-0.6973393362,-0.584013008,-4.762314286666666
164,1747679294260,-0.613864995,0.9102115,-2.36900265,0.7502119435,-1.416268,-5.2078075
165,1747679294270,-1.588600988235294,0.19208021976470588,-3.855684852941177,1.7368340235294117,-1.7629800352941176,-5.736616970588236
166,1747679294280,-2.22024990625,-0.45269569593750003,-4.20126254375,1.4483590625,-0.531233678075,-5.83131985625
167,1747679294290,-3.052829670588235,-1.1322605470588234,-4.10063155882353,0.9530506764705882,1.329229702164706,-5.273540805882353
168,1747679294300,-3.5573103470588237,-1.3837830470588235,-4.137383705882353,0.626265394117647,2.1145796647058823,-4.5068015882352945
169,1747679294310,-4.123523194117647,-1.5520389294117647,-4.3689225294117655,0.05252689529411764,1.6974976341176469,-2.7645314799999996
170,1747679294320,-3.6595369333333334,-1.7568460666666665,-4.2778556666666665,-1.0916955166666666,-1.7069665572222223,0.4303960977777778
171,1747679294330,-0.9981138684210525,-2.186849178947368,-3.5444852631578945,-1.7530245,-4.1625175,2.2596905
172,1747679294340,0.25432798999999995,-2.4480161666666667,-3.1927773,-2.9610112222222225,-8.275500472222223,4.105378138888889
173,1747679294350,1.8449304133333335,-2.8155663555555552,-2.5437476111111113,-4.22179525,-10.598662833333334,5.164131916666666
174,1747679294360,2.8316490705882353,-3.0137982470588236,-1.9039156529411765,-4.920554705882353,-10.444878470588234,5.311608052941176
175,1747679294370,4.01939477368421,-3.1648252105263155,-0.7899009,-5.711095631578948,-9.165163631578947,5.165841736842105
176,1747679294380,4.6064940052631576,-3.1279597315789474,0.056129953684210566,-5.885238263157895,-7.301513021052632,4.565369521052632
177,1747679294390,4.8485472631578945,-2.9416541421052633,0.7594515421052632,-5.618417473684211,-6.2668057263157895,3.911073305263158
178,1747679294400,4.741958263157895,-2.8221174736842105,0.9590903842105263,-5.383442736842105,-5.857744631578947,3.4771746842105267
179,1747679294410,4.401151721052631,-2.717070157894737,1.0279145105263159,-5.042895,-5.532502789473684,2.8995214631578947
180,1747679294420,4.146629741176471,-2.687422176470588,1.013889111764706,-4.85757885882353,-5.368959923529411,2.5671129294117647
181,1747679294430,3.592217673684211,-2.8209870315789476,0.8866438842105263,-4.742210347368421,-4.953167747368421,2.0373868736842105
182,1747679294440,2.6409338894736845,-3.0600861105263157,0.7032927010526316,-4.952796157894737,-4.810310210526316,1.9406720736842107
183,1747679294450,2.202447188888889,-3.1960787222222224,0.6425552844444444,-5.269933166666666,-5.005141311111111,2.1926973111111114
184,1747679294460,2.0777267210526316,-3.252968231578947,0.7160864105263158,-5.481727531578947,-5.355556768421053,2.519390589473684
185,1747679294470,2.060899621052631,-3.2459806631578947,0.8462331478947368,-5.5288234526315785,-6.0300370315789475,2.875973484210526
186,1747679294480,2.0948877684210525,-3.180573263157895,1.0051015694736842,-5.355241431578947,-6.795625015789474,3.190618852631579
187,1747679294490,2.1684132842105264,-3.0551022105263157,1.168491494736842,-5.002527157894736,-7.568277715789474,3.5193927578947366
188,1747679294500,2.237314505263158,-2.937004147368421,1.2626719105263158,-4.6440379789473685,-8.0272384,3.757114757894737
189,1747679294510,2.289765372222222,-2.857842411111111,1.2920458388888887,-4.270715999999999,-8.370427888888889,3.971628438888889
190,1747679294520,2.6445677649999997,-2.56923951,1.1119370800000001,-3.0426326,-8.7148688,4.498448455
191,1747679294530,2.7965366666666664,-2.4564769111111113,0.8403501644444444,-2.5498416333333336,-8.4338699,4.6952381333333335
192,1747679294540,3.03471392631579,-2.3517548684210525,0.24924345473684212,-2.4122544473684213,-7.431475268421053,4.843627684210526
193,1747679294550,3.1097294,-2.374362289473684,0.019829649210526316,-2.745955315789474,-6.809697505263157,4.8439078421052635
194,1747679294560,3.0861456842105266,-2.3916263421052633,-0.08668206915789473,-3.3480254210526312,-6.264058684210526,4.894816473684211
195,1747679294570,3.1357792631578945,-2.411048026315789,0.01905894842105263,-3.89179337368421,-5.758114368421053,4.978075268421053
196,1747679294580,3.271269584210526,-2.4320111315789474,0.3430641868421052,-4.568011684210526,-4.900184715789473,5.039692105263159
197,1747679294590,3.440208447368421,-2.4245610157894735,0.8479801184210526,-4.8746953894736835,-4.138745494736842,4.95020987368421
198,1747679294600,3.490047578947368,-2.3659873315789475,1.2121391710526317,-4.896953710526316,-3.487925426315789,4.7460718473684205
199,1747679294610,3.3999777315789474,-2.149059015789474,1.6356941157894738,-4.634730689473685,-3.160665315789474,4.503079657894737
200,1747679294620,3.173132931578947,-1.6735327105263158,2.0316834105263157,-3.976958542105263,-3.271676947368421,4.2080578157894735
201,1747679294630,2.9652731210526313,-1.1357075789473683,2.3035631315789473,-3.106918531578947,-3.728394594736842,3.9468440105263163
202,1747679294640,2.8487421684210528,-0.6853577263157894,2.3100885578947365,-2.059820389473684,-4.335146284210526,3.7929413421052636
203,1747679294650,2.7730530888888887,-0.35807267555555555,1.9985103277777776,-0.9519610233333332,-4.748945333333333,3.8947517555555553
204,1747679294660,2.9055690631578948,-0.10673651842105264,1.6078716842105263,-0.6105782821052631,-4.740675578947368,4.416513042105263
205,1747679294670,3.5445879894736843,0.36843011105263157,1.1634305578947368,-0.8037274105263158,-4.7076523526315786,4.88545325263158
206,1747679294680,4.679593223529412,1.1221681094117648,0.9359344470588236,-1.5657182588235294,-4.428144464705882,5.242616588235294
207,1747679294690,6.437518333333333,1.4859426166666667,1.2223810833333333,-2.8672901333333334,-3.749195466666666,4.963684566666667
208,1747679294700,7.5875319999999995,1.4414754,1.8882343599999998,-4.05165042,-3.0258814800000002,4.0111969400000005
209,1747679294710,8.36089052631579,1.5158845578947369,2.8134631999999997,-4.950329357894737,-2.1792771684210526,2.6102183421052634
210,1747679294720,8.479654,1.6628298222222222,3.4251334333333334,-5.172165822222222,-1.7388061555555556,1.952894588888889
211,1747679294730,8.573616166666666,1.7431246444444444,5.050391838888888,-5.103989,-0.66916308,0.5417753
212,1747679294740,8.636555333333332,1.1406015333333333,6.223114033333333,-4.370022266666667,0.4206015733333333,-1.1175503666666666
213,1747679294750,7.989820894736841,0.24074962631578947,7.101728378947368,-3.1607702736842107,1.2762138105263159,-2.6304864157894734
214,1747679294760,5.326719694736842,-0.6790122452631578,7.899924368421053,0.6225484368421054,2.4082526631578944,-3.993743463157895
215,1747679294770,4.8373465210526305,-1.0298380657894737,7.161509863157894,3.4784642894736844,3.0367583052631577,-3.607669389473684
216,1747679294780,5.056869178947369,-1.447946705263158,5.887916389473685,5.566100736842105,3.780424463157895,-3.1420930263157896
217,1747679294790,5.613418611111111,-1.7672592055555554,4.2307391999999995,6.751138,4.494524722222222,-2.9751925000000004
218,1747679294800,5.9962795,-1.9468691599999999,2.94031642,7.13604122,4.8911578,-3.112647
219,1747679294810,6.172930305263158,-2.033889652631579,2.138863215789474,7.159174294736842,5.038949210526316,-3.336924263157895
220,1747679294820,6.198369222222222,-2.1405041333333332,1.4057494422222223,6.749066444444444,5.028458644444445,-3.8429683333333333
221,1747679294830,5.837107578947369,-2.261376694736842,0.41350683578947367,5.6230641052631585,5.123553647368421,-4.833788157894737
222,1747679294840,5.0300745052631575,-2.260092094736842,-0.046425465,4.238838242105263,5.746060110526316,-5.475188863157895
223,1747679294850,4.047243042105262,-2.249250789473684,-0.18566654315789474,2.7059237736842108,6.935903568421052,-5.7152656578947365
224,1747679294860,2.990963252631579,-2.264896052631579,0.3225890915789474,1.0881247578947368,8.995898789473685,-5.146751105263158
225,1747679294870,2.52378632631579,-2.2875549736842107,1.1192176789473685,0.8999655747368421,9.846820631578948,-4.345336605263158
226,1747679294880,2.4903478800000003,-2.38534222,1.88501286,1.5257238433333333,9.842503333333333,-3.6734729333333336
227,1747679294890,2.4968886,-2.4079907,2.0381832,1.8314545,9.753021,-3.4533184
228,1747679294900,2.8726083631578945,-2.7050985421052633,2.2389522789473686,4.358652526315789,8.288003368421052,-2.795658242105263
229,1747679294910,3.115226942105263,-2.959123710526316,1.9684341000000003,6.2284703684210525,7.092497526315789,-2.5067475947368423
230,1747679294920,3.2444632666666666,-3.103716722222222,1.6330481,7.165939533333334,6.346663333333334,-2.4814428333333334
231,1747679294930,3.3665031315789475,-3.241793057894737,1.226731294736842,7.8545114210526314,5.612958231578947,-2.540667789473684
232,1747679294940,3.4404908789473687,-3.3215355,0.7636904526315789,8.30349247368421,4.836997852631579,-2.7097644210526313
233,1747679294950,3.448712057894737,-3.319788547368421,0.10429915789473684,8.423979263157895,4.134708868421053,-3.0157192736842107
234,1747679294960,3.3814294000000005,-3.238247852631579,-0.22818389631578945,8.214626631578946,4.066195563157895,-3.1868342105263157
235,1747679294970,3.2141599789473685,-3.0578766842105263,-0.5409368236842106,6.998151684210527,4.914145252631579,-3.5189161894736842
236,1747679294980,2.906687877777778,-2.988738566666667,-0.5732836566666667,6.094284533333333,5.610566111111111,-3.6114509444444445
237,1747679294990,2.484608742105263,-3.0137152894736845,-0.36614045210526314,5.424701094736842,5.939938115789474,-3.5197011631578947
238,1747679295000,2.1030951588235296,-2.9703274470588235,-0.06191516952941176,4.921972470588235,5.9229598823529415,-3.1505329411764706
239,1747679295010,2.0351324,-2.9595602,-0.005064188,4.645320578947368,5.818946547368421,-2.6173107736842107
240,1747679295020,1.929265777777778,-2.891658022222222,0.1841073,4.582024388888889,5.699397211111111,-2.291825944444444
241,1747679295030,1.8237531157894737,-2.7784183157894735,0.41856781789473685,4.588412473684211,5.538109552631579,-2.061467284210526
242,1747679295040,2.097919305263158,-2.5786510736842105,0.3149847694736842,4.613362405263158,5.021512631578947,-1.3769513894736842
243,1747679295050,2.36314525,-2.4553378500000003,0.068885157,4.4095700722222215,4.867781444444444,-1.4166527444444443
244,1747679295060,2.437287289473684,-2.467592205263158,-0.1331043274736842,3.9601316736842107,4.8681708,-1.7578672631578949
245,1747679295070,2.2250859894736843,-2.752317042105263,-0.3208742705263158,3.054881736842105,5.182311489473684,-2.379588705263158
246,1747679295080,1.6694532777777775,-2.8208814833333333,-0.34405970333333336,2.192223722222222,5.688448722222223,-2.441436266666667
247,1747679295090,0.6061643431578947,-2.3716391736842106,-0.530326752631579,1.5005499947368421,6.15859742631579,-1.9727701684210528
248,1747679295100,0.32087426333333335,-2.0850217333333334,-0.6433552066666667,0.65587692,6.832896766666667,-0.984629111111111
249,1747679295110,0.5376484915789475,-1.8727861789473683,-0.5436342878947368,-0.09016895894736841,7.708331752631578,0.1493471621052632
250,1747679295120,0.8286760888888889,-1.5438654777777776,-0.23388141555555553,-0.2611967188888889,8.218212488888888,0.7582605488888889
251,1747679295130,0.8962071515789475,-1.2927262731578946,-0.12216028684210525,0.4168404747368421,7.686970394736842,0.9068056463157895
252,1747679295140,0.9344342,-0.9983161699999998,-0.05094695,1.0296474105263158,6.924578131578947,0.9073663136842105
253,1747679295150,0.83534695,-0.84309575,-0.31794557500000004,1.9391053999999999,5.382954505555556,0.8082687711111111
254,1747679295160,0.4627100621052631,-0.45070307484210526,-0.9351535052631579,3.1129106684210526,3.3366018789473686,0.9656194326315789
255,1747679295170,0.23902517526315792,0.07486777515789474,-1.6429708789473685,4.235193815789474,1.713420542105263,1.8729436736842107
256,1747679295180,1.7941935805555553,0.990153791111111,-2.9303072833333332,5.2012385,1.8429061,2.8113196166666667
257,1747679295190,2.464313410526316,1.1692461631578945,-3.5556090315789475,5.654349247368422,2.05267882631579,2.3024132
258,1747679295200,2.839200594117647,1.2621708294117646,-4.376904911764706,5.957220517647059,1.6748137470588236,1.203262276470588
259,1747679295210,2.445765205263158,1.3160145,-5.308813363157895,6.26334352631579,0.7183521210526316,-0.40184267894736847
260,1747679295220,2.3499663,1.3207158,-5.415325,6.2961424210526316,0.44777514631578946,-0.7465956263157895
261,1747679295230,0.09406375000000006,0.7097591333333333,-7.204671666666666,5.824772777777778,-1.3299816822222224,-2.336330222222222
262,1747679295240,-1.342388722105263,0.17323567789473684,-8.048703315789474,4.399861210526316,-2.2593400999999997,-2.501140947368421
263,1747679295250,-2.611794752631579,-0.22876513368421053,-8.385990105263158,2.766083163157895,-2.5558759157894735,-1.8731400210526317
264,1747679295260,-3.3544268705882354,-0.46004073529411765,-7.816705,0.016182605882352888,-2.3353399411764704,0.0731428941176471
265,1747679295270,-2.840334910526316,-0.5526162684210526,-6.629009210526316,-1.596052210526316,-1.9870811263157895,1.7438786473684211
266,1747679295280,-1.6163493263157895,-0.6004001105263158,-5.2619031052631575,-2.434561894736842,-2.0445493684210527,2.978855652631579
267,1747679295290,-0.036967900000000005,-0.6301151222222222,-3.733391222222222,-2.269263111111111,-3.197152177777778,3.624293333333333
268,1747679295300,1.0982094789473684,-0.6733089736842105,-2.783052263157895,-1.4990852315789474,-4.578643157894737,3.6184623052631584
269,1747679295310,2.055324989473684,-0.8691199894736842,-2.6991736736842107,-0.8493094684210526,-5.936574368421053,3.1763779368421052
270,1747679295320,2.517929042105263,-1.0680395263157894,-2.835871447368421,-0.8352928405263157,-6.529813947368421,2.762494905263158
271,1747679295330,2.7828980736842106,-1.3929182210526314,-2.9072901736842107,-1.5698902605263159,-6.746903315789473,2.1570887789473683
272,1747679295340,2.873469,-1.7260949,-2.7714529999999997,-2.930140766666667,-6.316835733333333,1.7643429333333334
273,1747679295350,2.9428454894736844,-2.103510152631579,-2.4888475894736843,-3.7930604000000003,-5.9368544,1.5880698263157895
274,1747679295360,2.944695105263158,-2.4085559473684213,-1.9852933263157893,-5.12951787368421,-5.0781961052631575,1.3645326631578947
275,1747679295370,2.8512597444444445,-2.8004075944444446,-1.0001669499999999,-6.5072961000000005,-4.0597199,1.09162895
276,1747679295380,2.7690767684210527,-3.019032984210526,-0.3240598510526316,-7.282191268421053,-3.5230791894736844,0.8700260605263158
277,1747679295390,2.6809593210526317,-3.1923137684210525,0.33810599,-7.510213894736842,-3.4893830789473683,0.6866885684210526
278,1747679295400,2.568424611111111,-3.2874646333333337,1.1349000844444443,-7.043005133333334,-4.132808755555555,0.5230740111111111
279,1747679295410,2.4715323631578947,-3.2668667421052633,1.342928310526316,-6.456163421052632,-4.7769505789473685,0.5401307421052631
280,1747679295420,2.4474092368421054,-3.260161631578947,1.3378673578947369,-6.085003157894738,-5.142784552631579,0.625071505263158
281,1747679295430,2.3905611333333336,-3.2677776222222223,1.0769230144444444,-5.340832111111111,-5.797697422222222,0.9999570555555556
282,1747679295440,2.341514194736842,-3.2700010947368425,0.8276334742105264,-5.138880684210527,-6.008283157894737,1.2812738789473685
283,1747679295450,2.3344750157894736,-3.3200453684210527,0.5411359563157895,-5.226961315789474,-6.2045158421052635,1.7629412263157895
284,1747679295460,2.3706026944444445,-3.3921922333333336,0.42485621888888886,-5.433155366666666,-6.285588066666666,2.067943
285,1747679295470,2.400370389473684,-3.447931589473684,0.41643554631578944,-5.680932057894736,-6.33801027368421,2.3293811368421053
286,1747679295480,2.4552960789473683,-3.4887277157894734,0.4726714631578947,-5.897573105263158,-6.425137578947369,2.5652529894736844
287,1747679295490,2.6070398000000004,-3.5283762666666667,0.6384333999999999,-6.1323235,-6.678670333333333,2.8885512
288,1747679295500,2.8062247368421054,-3.5049380842105258,0.8662201842105264,-6.15149794736842,-7.125800842105264,3.1486810210526315
289,1747679295510,3.0736344210526316,-3.3649779157894737,1.228452536842105,-5.8572609263157895,-7.761202684210526,3.556452752631579
290,1747679295520,3.2846283789473687,-3.161408447368421,1.3963895789473684,-5.522992389473684,-7.671552289473683,3.817049947368421
291,1747679295530,3.5861976666666666,-2.9711122999999997,1.4820579333333332,-5.223298266666666,-7.188221500000001,3.8579410666666667
292,1747679295540,3.7510090052631577,-2.8083475631578945,1.540974194736842,-5.007741457894737,-6.571695484210526,3.685966321052632
293,1747679295550,3.6188839,-2.5510596736842106,1.616580605263158,-4.750956526315789,-5.491237747368421,3.116218505263158
294,1747679295560,3.1271799944444445,-2.3706228666666664,1.6665652111111111,-4.628466933333333,-4.888494711111111,2.696626061111111
295,1747679295570,2.792660389473684,-2.278280757894737,1.7075240263157896,-4.567002505263158,-4.664312757894737,2.5797180368421055
296,1747679295580,2.3802550368421054,-2.1851023684210524,1.801858636842105,-4.421117205263157,-4.429842768421053,2.6684153263157895
297,1747679295590,2.21409047368421,-2.1396049473684213,1.907599605263158,-4.268055626315789,-4.306384368421052,2.819794947368421
298,1747679295600,2.0811691684210523,-2.0142365263157895,2.1489078947368423,-3.861349310526316,-4.160891794736842,3.1481204315789473
299,1747679295610,2.0516197777777783,-1.7144886111111113,2.6066193888888893,-3.051935844444445,-4.081084166666667,3.584286722222222
300,1747679295620,2.119344947368421,-1.5212665842105264,2.7686849473684214,-2.347322547368421,-3.698959831578948,3.923239884210526
301,1747679295630,2.1423121052631577,-1.131853994736842,2.7124746842105263,-1.7340600736842104,-3.2588376894736846,4.3397579526315795
302,1747679295640,2.3189067789473685,-0.7180870526315789,2.532771605263158,-1.3600753684210527,-3.198678315789474,4.748034136842105
303,1747679295650,3.193265288888889,-0.5036935222222222,2.1331485555555556,-1.2054937333333333,-4.053328055555555,5.266219777777778
304,1747679295660,4.3213579052631585,-0.492680947368421,1.8353073157894735,-1.4472587368421053,-5.527737231578947,5.41623494736842
305,1747679295670,5.236829668421053,-0.29602217105263157,1.7484742894736844,-2.1307375578947365,-7.065080978947368,5.23928894736842
306,1747679295680,6.2237971052631575,0.08105912894736843,1.9501169999999999,-2.9946734947368423,-7.971676315789473,4.942753157894736
307,1747679295690,7.328759457894736,0.551935477368421,2.672783421052632,-3.9920406842105267,-7.850011973684211,4.5335237
308,1747679295700,8.352472333333333,0.7937148633333333,3.7975104999999996,-5.25176475,-5.9922265,3.630270494444444
309,1747679295710,8.880886263157896,0.6937969747368422,5.849380984210526,-6.27523687368421,-1.937181943157895,1.6643762994736844
310,1747679295720,7.0208156666666675,0.6074178433333333,8.84404505,-5.329824888888889,0.4139732844444445,-0.3924609011111111
311,1747679295730,5.7920211578947365,0.570072805263158,10.155527157894737,-3.1758593789473686,0.34696758000000005,-0.7911124568421052
312,1747679295740,5.16312452631579,0.5982293105263158,10.341215789473685,0.3019601263157895,0.7163337363157894,-0.5936462152631579
313,1747679295750,5.151101473684211,0.5755705157894737,10.172739263157895,1.4928688210526315,1.080205347368421,-0.503771602631579
314,1747679295760,5.575024882352942,0.11627892047058823,8.060425117647059,5.8604070941176465,3.135415476470588,-0.6898365529411765
315,1747679295770,5.461619210526315,-0.07375024463157895,6.069135210526316,7.951450578947369,3.8431067368421057,-1.2197409052631578
316,1747679295780,5.330598736842105,-0.21956803105263156,4.034006,8.820481315789474,3.975647978947369,-1.6974275368421055
317,1747679295790,5.164003576470588,-0.3324131470588235,2.036891017647059,8.43295605882353,3.7227517764705884,-2.254207505882353
318,1747679295800,4.859773915789473,-0.35148738842105265,0.7936709736842105,6.843912452631578,3.539506684210526,-3.2131294315789476
319,1747679295810,4.300625842105263,-0.37982372105263157,0.038943188526315786,4.406364805263157,4.251439247368421,-4.083057378947369
320,1747679295820,3.8167502375,-0.538207221875,0.1756296979375,2.951446025,5.191961875,-4.44254879375
321,1747679295830,2.9132231111111113,-0.8629728355555556,0.8163240755555556,1.1363699833333334,6.670503333333333,-4.809753983333334
322,1747679295840,2.4692458947368423,-1.0937553789473684,1.0685821631578947,0.6977897157894737,6.8237145,-4.767068789473685
323,1747679295850,1.9931003611111109,-1.3676019166666666,1.512483761111111,0.6740455594444444,6.740041494444444,-4.514972144444444
324,1747679295860,1.7233995411764707,-1.5610547588235293,2.0820559764705884,1.3081594217647057,6.643704529411765,-3.817826447058824
325,1747679295870,1.7633961705882353,-1.6409332823529414,2.1936618764705886,1.7449801823529412,6.76621,-3.5252549411764704
326,1747679295880,2.14007694,-1.97571671,2.39343278,3.0317935,7.1456821,-2.78923297
327,1747679295890,2.4456366352941177,-2.1513574588235294,2.2702384176470587,3.8301397352941176,7.1895583882352945,-2.538006241176471
328,1747679295900,2.8962748222222223,-2.4030553555555554,2.051199411111111,4.981794333333333,7.091164311111111,-2.2837773555555554
329,1747679295910,3.354043557894737,-2.6249705263157894,1.673664305263158,6.012614157894737,6.572761,-2.297955894736842
330,1747679295920,3.6659230999999997,-2.919534666666667,0.9545688999999999,6.852752333333333,5.7423034444444445,-2.692838488888889
331,1747679295930,3.7193716333333335,-3.11567545,0.4846773733333334,6.983069766666667,5.462316833333333,-2.923527233333333
332,1747679295940,3.6038781777777777,-3.2515611555555552,0.02346339155555556,6.469967577777777,5.425328566666667,-3.184516866666667
333,1747679295950,3.4768502529411767,-3.2278797411764706,-0.024071940823529408,6.102096294117647,5.604320764705882,-3.2212162588235294
334,1747679295960,3.2629843000000003,-3.1579789000000003,-0.0038439009999999985,5.712564799999999,5.9024483666666665,-3.207952666666667
335,1747679295970,2.8797329666666664,-3.0284928444444446,0.138766884,5.207630133333333,6.496865433333333,-3.080121
336,1747679295980,2.5094168999999997,-2.881299266666667,0.3141627,5.052101666666667,6.798690333333334,-2.8326247
337,1747679295990,2.2217462631578946,-2.7526511263157896,0.4428707936842105,5.079779726315789,6.834871957894737,-2.5394343052631583
338,1747679296000,2.1104561473684207,-2.6903779473684213,0.48325584,5.154123831578947,6.724196589473685,-2.354414894736842
339,1747679296010,1.9900902722222225,-2.5414358277777778,0.4966090511111111,5.387304422222223,6.199301877777778,-1.9251385944444444
340,1747679296020,2.0719036666666666,-2.3699178666666665,0.40251143,5.651904216666667,5.456754011111112,-1.4924639722222222
341,1747679296030,2.653778794736842,-2.2470158157894735,0.013252945789473683,5.847162063157894,4.3553302894736845,-1.3200438157894736
342,1747679296040,2.8236542444444446,-2.1957695777777775,-0.3117627886666667,5.655869333333333,3.938102044444444,-1.6564553444444445
343,1747679296050,2.6252628666666666,-2.131555333333333,-0.5587487499999999,5.241363333333333,3.7754719333333333,-2.0212489666666666
344,1747679296060,2.1417998176470587,-2.0370524470588234,-0.7645416382352941,4.570936470588235,3.808035635294118,-2.263418811764706
345,1747679296070,1.6581795,-1.9811475368421052,-0.7655722657894737,3.688265115789474,4.136334894736842,-2.2063431263157898
346,1747679296080,1.0743688736842103,-1.8971661999999998,-0.5082845431578947,3.0095799842105264,4.585707842105262,-1.7171629684210528
347,1747679296090,0.8704911755555556,-1.8037050555555554,-0.35374063888888885,2.8333348500000004,4.812328699999999,-1.20188375
348,1747679296100,0.7408967916666667,-1.6467761833333334,-0.18965281333333334,2.8384836,4.9708755,-0.6248659283333333
349,1747679296110,1.1341814944444444,-1.2770295722222222,-0.17815500944444443,3.349100066666667,4.9831258,0.4945486533333333
350,1747679296120,1.9768155526315787,-1.0258561210526316,-0.7974538457894736,3.9314255263157896,4.588342610526316,0.7874961447368422
351,1747679296130,2.466625684210526,-0.7485299947368421,-1.8105225842105264,4.323666852631579,3.7976928526315787,0.018712186842105242
352,1747679296140,2.252497652631579,-0.5354808778947369,-2.5871640842105266,4.133994147368421,2.8857711315789474,-1.0818173
353,1747679296150,1.5904601,-0.33740917,-3.2222269,3.6605122000000003,1.8849840000000002,-1.9917767
354,1747679296160,0.5603329499999999,-0.39200089315789477,-3.604831368421053,2.304487557894737,0.9372357368421053,-2.0769978736842103
355,1747679296170,0.29477299736842105,-0.2540443294736842,-3.424177715789474,1.7276754157894738,1.6131735631578947,-1.9133957736842104
356,1747679296180,-0.1392892431578947,0.09490614894736842,-3.213132447368421,1.7361975736842106,3.317315105263158,-1.9759660263157894
357,1747679296190,-0.27853033,0.20049302,-3.1656055,1.8303892999999998,3.8525259999999997,-2.0365179
358,1747679296200,-1.0890172833333334,0.13394674622222222,-3.3980022222222224,2.8669500555555554,4.188675927777777,-2.1958931
359,1747679296210,-2.855232388888889,-0.13429926955555554,-4.227959577777778,4.768445666666667,3.857023861111111,-2.1168859722222226
360,1747679296220,-4.501131831578948,-0.7772773578947368,-6.503229589473684,5.955931010526316,0.8470807736842105,-0.8207716294736842
361,1747679296230,-4.600899117647059,-1.2528248235294117,-8.528519529411764,5.330845523529412,-1.9436361647058822,0.7891253470588235
362,1747679296240,-3.513573210526316,-1.6232055263157894,-9.718234999999998,1.731487874736842,-3.7449343052631585,2.5726537736842103
363,1747679296250,-2.5003189166666666,-1.6788562166666667,-8.568788861111111,-1.9085973633333333,-4.312364866666667,3.7638425000000004
364,1747679296260,-1.2896031453846153,-1.769912476923077,-6.6166121538461535,-3.9153457692307687,-4.529460115384615,4.4207005384615385
365,1747679296270,0.3939886773684211,-1.9169219263157893,-3.8916887368421054,-5.512620152631579,-5.222343005263158,5.001006210526316
366,1747679296280,1.4474425472222223,-1.8001527166666667,-2.2740915888888886,-5.337755061111111,-5.788997622222222,5.0326309388888895
367,1747679296290,1.7451924,-1.7490363,-1.8296362,-5.140563,-6.0586867,5.0197887
368,1747679296300,1.7451924,-1.7490362999999998,-1.8296362000000002,-5.140563,-6.0586867,5.0197887
369,1747679296310,1.7451924,-1.7490362999999998,-1.8296362000000002,-5.140563,-6.0586867,5.0197887
370,1747679296320,2.0002321722222223,-1.7742826555555555,-1.6833645499999998,-4.750639494444445,-5.899844105555555,4.664286511111111
371,1747679296330,2.8109517894736844,-2.0869142052631577,-1.1404698526315789,-3.742502547368421,-3.908368115789474,2.4199846789473685
372,1747679296340,2.5867276,-2.3032773368421053,-0.987587247368421,-4.437769315789474,-2.8929475421052633,2.0785395894736842
373,1747679296350,2.3119446210526315,-2.913780194736842,-0.5028639052631579,-5.299567631578948,-2.163298094736842,1.8177181947368422
374,1747679296360,2.217353221052632,-3.132815236842105,-0.3302255221052632,-6.063810263157895,-2.3386180631578948,1.6110570947368423
375,1747679296370,2.0396025105263162,-3.2854923789473687,-0.019322273684210533,-6.432054842105263,-2.6528148,1.574726
376,1747679296380,1.816790994736842,-3.2799431368421055,0.42791905894736837,-6.758418052631579,-3.2987011052631576,1.7161256999999999
377,1747679296390,1.7977802157894736,-3.2769630105263157,0.5670573684210526,-6.811905536842105,-3.6158133157894734,1.8488911842105262
378,1747679296400,1.8540419000000001,-3.2865968,0.81984925,-6.7917213,-4.078362,2.1020315
379,1747679296410,1.8540419000000001,-3.2865968,0.81984925,-6.7917213,-4.078362,2.1020315
380,1747679296420,1.8540419000000001,-3.2865968,0.81984925,-6.778994215789474,-4.1013492631578945,2.1171133947368417
381,1747679296430,2.1555340333333333,-3.269024566666667,1.0790380333333334,-5.860326,-5.169191666666666,2.7149132
382,1747679296440,2.1509017,-3.2538071411764706,1.0287335735294119,-5.598062105882353,-5.479120647058823,2.8212724
383,1747679296450,2.1439122999999998,-3.21331,0.9721410385714285,-5.339234492857143,-5.809263057142857,2.9983748857142856
384,1747679296460,2.2586888249999997,-3.14235905,0.8994119125000001,-5.065639333333333,-6.236230866666666,3.2443492666666667
385,1747679296470,2.4830994,-3.055230575,0.75444196,-4.83323435,-6.6927851,3.486075325
386,1747679296480,2.536052770588235,-2.9716769529411766,0.6693090729411765,-4.821798352941177,-6.730617705882353,3.6763658764705878
387,1747679296490,2.675136676470588,-2.862569047058823,0.6360024188235294,-4.90952605882353,-6.507225552941176,3.977647511764706
388,1747679296500,2.85254118125,-2.7781952,0.653036171875,-4.942424,-6.4198112,4.0578556
389,1747679296510,3.113406111764706,-2.6672944764705884,0.7392529947058823,-5.116625764705882,-5.816370729411765,3.9394233058823533
390,1747679296520,3.1851815789473683,-2.6111492684210527,0.813169847368421,-5.275795210526316,-5.269719115789473,3.7699540894736843
391,1747679296530,3.1277049411764706,-2.5540232705882353,0.9391502294117647,-5.367213294117647,-4.937967035294117,3.5261010705882354
392,1747679296540,2.8892785555555554,-2.5043663555555558,1.2355601999999999,-5.411139711111111,-4.488606744444444,3.185522888888889
393,1747679296550,2.6660204,-2.48975005,1.5361574,-5.2103376500000005,-4.278631399999999,3.0383982499999997
394,1747679296560,2.506909517647059,-2.464468564705882,1.802222811764706,-4.759950352941177,-4.2918529411764705,3.132705482352941
395,1747679296570,2.3975445789473686,-2.331716452631579,2.0850935684210525,-3.7912662842105265,-4.295058621052632,3.4962935263157893
396,1747679296580,2.3828325333333336,-2.1758109666666665,2.1390602,-3.1671619499999997,-4.20992185,3.69460075
397,1747679296590,2.3740464666666665,-1.5259679666666668,2.2090231333333334,-2.1826142166666664,-4.147959083333333,3.871789416666667
398,1747679296600,2.2955800210526314,-1.0318676578947368,2.086840336842105,-1.4831413315789472,-4.15702305263158,3.8933563789473684
399,1747679296610,2.204379621052632,-0.6286079857894737,1.8392122315789474,-1.0459907894736842,-4.0978169157894735,3.9404522105263156
400,1747679296620,2.1737568,-0.46480703,1.7126108,-0.861532,-4.0282946,3.987548
401,1747679296630,2.2458179157894738,-0.29496887105263153,1.5150785315789475,-0.8615320000000001,-4.0282946,3.9875480000000003
402,1747679296640,2.664055052631579,-0.11863108578947366,1.3385352052631578,-0.9753469894736841,-4.411733378947368,4.531505326315789
403,1747679296650,3.7350181111111107,0.06200409777777779,1.315719427777778,-1.3642846277777778,-5.360702511111111,5.764348672222222
404,1747679296660,4.975097,0.24583629263157894,1.4030177000000001,-1.8568316473684212,-5.842774789473684,6.2778087631578945
405,1747679296670,7.5785460526315775,0.37436456210526314,1.8512095368421053,-2.7108646684210527,-5.765403052631579,6.257625
406,1747679296680,10.501044777777777,0.7961283555555556,2.931649444444444,-4.407483916666667,-2.906571833333333,3.280213166666667
407,1747679296690,10.08329252631579,0.9579696105263158,4.256252631578947,-5.3216015789473685,-0.16200416421052632,0.43124957210526316
408,1747679296700,8.341597157894736,0.8724725157894736,6.135852736842105,-5.2038620947368415,1.198505747368421,-1.2397566342105264
409,1747679296710,6.494674878947368,0.9063065668421052,7.849570894736841,-3.735592331578947,1.4443573157894738,-1.9512966473684212
410,1747679296720,5.232513536842106,0.8157741731578948,9.069395421052631,-0.37147566842105256,0.4302263289473684,-1.656555052631579
411,1747679296730,5.354953073684211,0.4315510078947369,9.013570842105263,1.791871452631579,-0.23864708157894735,-1.4209075315789474
412,1747679296740,5.869888231578948,-0.03416160052631579,7.626092157894736,4.176267957894737,-0.30682395526315787,-1.6631148157894737
413,1747679296750,6.004750444444444,-0.36496049444444445,5.877203655555555,6.627153177777777,0.43326637777777777,-2.408531466666667
414,1747679296760,5.584809411111111,-0.5650603244444444,3.863704361111111,6.892521933333334,1.4776982177777778,-3.003540377777778
415,1747679296770,5.271871157894737,-0.6138617947368421,2.9028908789473684,6.737329684210526,2.1025781578947367,-3.319095136842105
416,1747679296780,4.733378015789474,-0.5771247368421053,1.807613252631579,5.689278631578947,3.1794475578947368,-3.800201878947368
417,1747679296790,4.264017284210527,-0.46781277947368427,1.2249329684210526,3.8464848421052626,4.413247073684211,-4.349877826315789
418,1747679296800,4.066485284210526,-0.5704709747368422,1.3071417421052631,2.960521736842105,5.048817115789474,-4.729448173684211
419,1747679296810,3.731998105263158,-0.8530122157894736,1.547962047368421,2.4493074210526316,5.597147526315789,-5.236345542105263
420,1747679296820,3.2889185684210527,-1.1090153842105264,1.7578769263157896,2.4920301578947366,5.755815715789474,-5.60189922631579
421,1747679296830,2.8497139944444445,-1.3483484333333333,1.8969281722222222,2.8407326999999998,5.579495772222223,-5.664569083333333
422,1747679296840,2.8119279842105263,-1.464568205263158,1.8950370684210525,3.116611094736842,5.34630585263158,-5.65488197368421
423,1747679296850,2.943385015789474,-1.6677523157894738,1.8033999631578947,3.828207263157894,4.558459442105263,-5.711733394736842
424,1747679296860,3.191629789473684,-2.0490981842105263,1.5430551,4.287784336842106,4.07146565263158,-5.920693331578948
425,1747679296870,3.2774865789473684,-2.285653847368421,1.2506488694736841,4.656197315789473,3.9082560999999996,-6.201810736842106
426,1747679296880,3.1687141315789473,-2.5503661263157897,0.8263489884210525,4.729812684210526,4.386783947368421,-6.399445184210527
427,1747679296890,2.793824966666667,-2.8381824,0.3914474866666666,4.456619133333334,5.9202026,-6.2276201
428,1747679296900,2.5518142421052628,-2.8435430105263158,0.25993059631578946,4.212487105263158,7.0927216,-5.668786526315789
429,1747679296910,2.4831699578947366,-2.7590735368421053,0.22278251736842106,4.084991789473684,7.507501515789474,-5.041962789473684
430,1747679296920,2.474050036842105,-2.7066656684210524,0.2687680594736842,4.079272684210526,7.320463578947368,-4.661832078947368
431,1747679296930,2.4716351684210527,-2.6166469210526317,0.3148049463157895,4.1738007368421055,6.710123710526315,-4.241277273684211
432,1747679296940,2.4715838263157894,-2.547257547368421,0.2957427968421053,4.2299234000000006,6.428726068421053,-3.975465852631579
433,1747679296950,2.486330052631579,-2.5122418789473686,0.24901225421052633,4.249995284210526,6.32130267368421,-3.8064813315789476
434,1747679296960,2.510119263157895,-2.4705466421052633,0.19172301894736843,4.207609157894737,6.278691905263158,-3.6053147526315787
435,1747679296970,2.5345763368421053,-2.4001038263157897,0.1532647436842105,4.119304589473684,6.230698984210527,-3.4238835263157896
436,1747679296980,2.5487059684210527,-2.3754413,0.13785060684210526,4.0054334473684206,6.098494131578947,-3.23936852631579
437,1747679296990,2.526740836842105,-2.3308945368421057,0.13160788,3.943087405263158,5.9895006578947365,-3.1458495368421056
438,1747679297000,2.414343111111111,-2.150266477777778,0.15520007444444447,3.7600552499999997,5.814150083333334,-2.913348161111111
439,1747679297010,2.288592210526316,-2.0500231210526314,0.22083005736842107,3.7071034789473685,5.773196494736842,-2.7221551631578946
440,1747679297020,2.264058,-2.0365357,0.23752870999999998,3.7626092736842107,5.619237594736842,-2.4861711315789474
441,1747679297030,2.0343102052631576,-1.996125,0.21237798000000002,3.9494227894736844,5.112957073684211,-2.1794312263157893
442,1747679297040,1.8465980625,-1.9570341125,0.167057198,4.062316225,4.59241815,-1.9349847937499998
443,1747679297050,1.6774985736842105,-1.8821887526315788,-0.058217289473684215,4.0900938842105266,3.989328147368421,-1.6042449578947369
444,1747679297060,1.6224958210526317,-1.8423431736842104,-0.17690618947368422,3.977063710526316,3.8876236157894737,-1.3873797
445,1747679297070,1.6133471777777777,-1.7483311444444445,-0.36350295555555556,3.8352153222222225,3.897977211111111,-1.2321253
446,1747679297080,1.6605429789473685,-1.6497948368421054,-0.5446362252631578,3.6487942000000007,3.9675744,-1.1459574
447,1747679297090,1.675674505263158,-1.6213814526315788,-0.6553097410526316,3.5211868526315793,4.022071010526315,-1.1887922
448,1747679297100,1.4790072333333333,-1.6702870666666667,-0.7089252866666667,3.090300288888889,4.226847544444444,-1.3432086833333334
449,1747679297110,1.1414204210526315,-1.618504142105263,-0.9847870789473684,3.4151651684210527,3.6633574105263156,-1.2044347421052632
450,1747679297120,0.9158601305263158,-1.564940047368421,-1.4064409263157893,3.7374355263157892,2.532552047368421,-1.0406083894736842
451,1747679297130,0.6874482357894737,-1.428370752631579,-2.0595894631578946,3.6927504263157895,1.4141374789473684,-0.9209624463157895
452,1747679297140,0.34308346500000003,-1.0959391,-2.9950095,3.2079527,0.8194836666666667,-0.7406245311111112
453,1747679297150,0.161389272,-0.7866543521052631,-3.2913078842105263,2.079773194736842,0.8418105368421053,-0.32957295005263154
454,1747679297160,0.15214079031578948,-0.2318479663157895,-3.023461505263158,1.0068844157894736,2.0855898684210525,0.12989208505263158
455,1747679297170,0.28195354736842104,0.3082121792631579,-2.52286152631579,0.8028022894736843,3.051727889473684,0.15994373263157893
456,1747679297180,0.2923837852631579,0.5797579731578948,-2.236826378947369,1.2549787078947368,3.853927578947369,-0.13676022263157894
457,1747679297190,0.033293473888888876,0.809524341111111,-2.2246020888888887,2.5145253,4.137069844444444,-0.7907511199999999
458,1747679297200,-0.49183640578947374,0.779679452631579,-2.8055054789473686,4.313967294736842,3.4370171368421047,-1.7933573631578947
459,1747679297210,-2.1085999684210526,0.09937626447368421,-4.448319105263158,6.316775105263158,1.2759335263157894,-2.814216357894737
460,1747679297220,-3.6322020000000004,-0.496209045,-6.032464999999999,6.52181035,-0.0719053,-2.54305065
461,1747679297230,-4.5421587,-0.794412767368421,-7.353037436842105,5.536217263157894,-1.804921052631579,-1.2046029034210528
462,1747679297240,-4.7006162157894735,-0.889774927368421,-8.0816123,3.5303819052631575,-2.7883275789473685,0.4747011192105263
463,1747679297250,-4.1564457842105265,-0.9394084442105263,-8.261752,1.4131423136842103,-2.862839905263158,1.6185139631578946
464,1747679297260,-2.641004477777778,-1.0695266555555554,-7.64354105,-2.4252502466666663,-2.2074038333333332,2.8427448
465,1747679297270,-1.0070283894736842,-1.3675106157894736,-5.263008247368421,-5.024449178947368,-2.012367057894737,3.3403162789473684
466,1747679297280,-0.12595603368421054,-1.5583376157894737,-3.614927868421052,-6.595713063157895,-2.144067205263158,3.569179747368421
467,1747679297290,0.5204359747368421,-1.6584781210526316,-2.2822467368421053,-7.271874984210526,-2.906852205263158,3.547874642105263
468,1747679297300,1.0291283789473684,-1.6778485789473685,-1.0762956821052632,-7.025799110526315,-3.599497905263158,3.363976442105263
469,1747679297310,1.3432943473684211,-1.6078941,-0.11966832736842105,-5.981953210526316,-4.4112287631578955,3.043500210526316
470,1747679297320,1.475290757894737,-1.5131998947368424,0.4188760963157895,-4.784372631578948,-4.910781289473684,2.8220375789473686
471,1747679297330,1.5502034736842105,-1.5058010421052632,0.49024357315789474,-3.510597389473684,-5.418070821052631,2.6911783684210526
472,1747679297340,1.617640294736842,-1.5753958894736841,0.34440008,-2.6382585789473687,-5.770505052631579,2.612573042105263
473,1747679297350,1.6119912833333332,-1.6864220666666665,0.11205616344444445,-2.1095327333333334,-5.8534463,2.598089266666667
474,1747679297360,1.584711138888889,-1.748548161111111,-0.11125620922222221,-1.8956514944444445,-5.604884772222222,2.67975945
475,1747679297370,1.5859043333333334,-1.7802756333333332,-0.28491650333333335,-1.9526060944444446,-5.025144466666666,2.8590196166666666
476,1747679297380,1.6247308684210526,-1.8351242631578948,-0.3918050126315789,-2.1443897210526317,-4.484507547368421,3.0150184842105263
477,1747679297390,1.7306259736842107,-1.9659903263157894,-0.49312731052631575,-2.587427210526316,-3.7233486736842107,3.186806247368421
478,1747679297400,1.8404773421052634,-2.076766757894737,-0.5049448210526315,-3.081898763157895,-3.0561572263157895,3.2910899315789472
479,1747679297410,2.076930284210526,-2.2197843578947367,-0.3787543578947368,-3.861629757894737,-2.244538505263158,3.307181089473684
480,1747679297420,2.2505705947368417,-2.382429110526316,-0.1407343272631579,-4.481108442105263,-1.9488437578947366,3.0434441894736843
481,1747679297430,2.1692354052631577,-2.5055366157894734,0.11442110473684211,-4.9551507263157895,-2.0041814631578947,2.6143112
482,1747679297440,1.9638134666666665,-2.571617633333333,0.3480595355555556,-5.177018444444444,-2.281143777777778,2.2955544333333333
483,1747679297450,1.6221265625,-2.6002468625,0.6386368025,-5.165063812500001,-2.754638625,2.18725255
484,1747679297460,1.2790431,-2.562235,0.9052693,-4.898215425,-3.4037836500000003,2.4117568
485,1747679297470,1.2754635777777779,-2.5195792611111107,0.9300276111111112,-4.453053511111111,-4.002432,2.9286760055555554
486,1747679297480,1.2916991785714287,-2.4886343785714287,0.9350095092857142,-4.288960607142857,-4.1875510714285715,3.1274237857142855
487,1747679297490,1.6363140470588233,-2.433774758823529,0.7592082299999999,-3.942517405882353,-4.423381882352941,3.565327776470588
488,1747679297500,2.0839438454545456,-2.4383870545454545,0.5572437009090909,-3.811791763636364,-4.653991645454545,3.656251136363636
489,1747679297510,2.2074368625,-2.4312067875,0.45989537625,-3.88781285,-4.84215595,3.52362585
490,1747679297520,2.1525881526315787,-2.3725896526315786,0.43200381526315784,-4.068347,-5.009794842105263,3.3936356315789475
491,1747679297530,1.9532918944444444,-2.341254833333333,0.5386411333333334,-4.269177066666667,-5.184460666666666,3.4872293333333335
492,1747679297540,1.882095705263158,-2.4034693684210526,0.6850269389473684,-4.303433773684211,-5.312609915789473,3.694768842105263
493,1747679297550,1.786682157894737,-2.4232508421052628,1.0691473789473684,-4.090941784210526,-5.502002484210526,4.1053998210526315
494,1747679297560,1.7590765666666668,-2.409129822222222,1.2043751,-3.5964040666666666,-5.741356666666666,4.504911022222222
495,1747679297570,1.716624942105263,-2.466770189473684,1.8267781684210527,-2.536196568421053,-6.280878505263158,5.047597578947368
496,1747679297580,1.699206905263158,-2.4160833263157895,2.1560242210526313,-1.4608269084210528,-6.880229431578948,5.459574236842105
497,1747679297590,1.6804015578947369,-1.940505642105263,2.3542500105263158,0.8567382410526315,-8.013445263157895,6.378167921052632
498,1747679297600,1.992152647368421,-1.4549344263157895,2.205143805263158,2.611171373684211,-8.649239763157894,7.0882502894736845
499,1747679297610,2.6672921,-1.1805627210526315,1.6859955947368421,3.885787210526316,-8.736927736842105,7.397064615789473
500,1747679297620,3.683083968421053,-1.059947089473684,0.5400570163157894,4.933950631578947,-8.406135105263157,7.168032973684212
501,1747679297630,4.384966810526316,-1.1513528578947367,-0.7645189273684211,5.04899947368421,-7.656862768421052,6.346322257894737
502,1747679297640,3.9373401578947367,-1.6323769210526315,-2.7402009105263154,2.5115413052631577,-5.910783726315789,5.354786084210526
503,1747679297650,3.0610404888888887,-1.337718422222222,-2.5636519333333334,-0.9110666833333334,-4.440551666666667,6.187140116666667
504,1747679297660,3.4427004210526317,-0.8142199431578947,-1.0791216105263157,-3.2614588894736842,-3.0310955789473684,8.133666189473685
505,1747679297670,4.719599416666667,-0.48091479500000006,-0.095853485,-4.061628183333333,-1.4963403333333334,9.43779225
506,1747679297680,7.16218405263158,-0.2868250636842105,0.48541377431578947,-4.261327868421053,0.5721306157894738,9.587807210526314
507,1747679297690,8.669687084210526,-0.26041549947368425,0.7153927684210526,-4.254599763157895,1.457757205263158,8.63624647368421
508,1747679297700,10.046915315789473,-0.11233697421052632,1.014144542105263,-4.0528724315789475,1.4143617657894738,6.230040278947368
509,1747679297710,9.911836333333333,0.41249742,1.3637715,-3.6113769000000002,-0.961933025,3.98381965
510,1747679297720,9.116235,1.5119025789473683,1.7219105,-3.2692309684210525,-3.3608787052631577,2.6261412
511,1747679297730,8.956056315789473,2.232899078947368,1.7402790789473686,-3.320756063157895,-3.6223169052631574,1.995168794736842
512,1747679297740,9.330980444444442,2.638136766666667,1.8781899444444443,-4.388131733333333,1.3270225333333334,0.6481833344444445
513,1747679297750,8.943796888888889,2.3623522444444442,2.4385456111111115,-4.924965283333333,4.208856666666667,-0.7102645527777778
514,1747679297760,7.932044,1.7243051999999999,3.6774343666666667,-4.782930272222222,5.494866666666667,-2.3386383055555555
515,1747679297770,6.5445912368421055,1.2878323263157896,4.638394721052632,-3.6195345789473685,5.270055421052632,-3.879143389473684
516,1747679297780,4.6852685,0.9133029333333335,5.409101633333333,-1.6227959666666667,4.176721133333333,-4.281738533333334
517,1747679297790,3.5530141578947374,0.6326028210526315,5.46387322631579,0.672503702631579,2.9470518421052634,-4.090234000000001
518,1747679297800,3.208017377777778,0.3251791566666667,5.067584288888889,3.0021791111111114,1.7493404444444445,-3.6579673333333336
519,1747679297810,3.3633434315789477,0.09010208157894738,4.549172515789474,4.612409184210527,0.9926294736842104,-3.448216289473684
520,1747679297820,3.5620315684210526,0.013725009231578947,3.5396234421052633,6.3546199526315785,0.5683181157894737,-3.674052173684211
521,1747679297830,3.7447919052631575,0.0015478366368421052,2.2724010157894736,6.872282000000001,0.5012065,-3.7984638
522,1747679297840,3.8043418736842107,0.04784164661578947,1.3782778894736842,6.641512336842105,0.6562864663157895,-4.241837747368421
523,1747679297850,3.90656322631579,0.2657205447368421,0.2923003026315789,5.410684368421053,1.4677931515789473,-5.591022315789473
524,1747679297860,4.100678715789473,-0.12382051000000001,0.04415830105263158,4.005209094736842,2.5250953157894735,-6.290395842105263
525,1747679297870,4.234711777777778,-0.684594143888889,-0.02797845388888889,2.3914280888888886,3.9571585555555555,-7.091430333333333
526,1747679297880,4.095771684210526,-1.8940577368421052,0.21584614052631582,1.227842452631579,5.219091105263158,-7.711457357894737
527,1747679297890,3.9475648000000003,-2.382609,0.37468886,0.7555382,5.763609,-7.965775000000001
528,1747679297900,3.9475648000000003,-2.382609,0.37468886,0.30476350336842106,6.904001842105264,-7.887730536842105
529,1747679297910,2.3962856421052634,-3.266353,1.5811023673684212,0.40287992552631585,8.027630789473685,-7.118498178947369
530,1747679297920,2.2622139555555556,-3.346255222222222,1.9770061333333335,1.1603383666666667,8.572709333333332,-6.034097200000001
531,1747679297930,2.5903754210526313,-3.321741,1.959982094736842,1.926487257894737,9.007280710526315,-5.206798421052632
532,1747679297940,3.0365378421052633,-3.3216125789473683,1.8154744999999999,2.8897659263157895,9.361004157894737,-4.563435315789474
533,1747679297950,3.5919350210526315,-3.3225118157894737,1.5596254,3.5535372210526317,9.49332105263158,-4.258433668421053
534,1747679297960,4.056183405263158,-3.3496920210526313,1.0749533421052633,4.778870984210526,8.742815105263157,-4.265890315789474
535,1747679297970,4.11945842631579,-3.3396214631578944,0.672181805263158,5.45217367368421,7.688876763157896,-4.525982663157895
536,1747679297980,3.9974298157894737,-3.3786706210526316,0.26720092947368423,5.692362452631579,7.075565357894736,-4.764826215789474
537,1747679297990,3.8177265,-3.36762395,0.06302778,5.7217973,6.6999758,-4.93723075
538,1747679298000,3.5561741368421056,-3.2966161842105266,-0.15062506789473684,5.619924415789473,6.5094055736842105,-5.025759631578947
539,1747679298010,3.1553038105263163,-3.1898732210526317,-0.3605399873684211,5.20660202631579,6.596644952631579,-4.877744010526317
540,1747679298020,3.015600294736842,-3.1976831789473685,-0.4052409915789474,4.776628010526316,6.820406547368422,-4.521946042105263
541,1747679298030,3.0082528789473684,-3.0798933157894735,-0.34060436,4.456880921052632,7.003295615789474,-3.9981727526315787
542,1747679298040,3.0662614578947367,-2.862142789473684,-0.33947399894736846,4.3458693,6.879052215789474,-3.675566057894737
543,1747679298050,3.225902105882353,-2.5541955176470585,-0.4736828229411765,4.248287111764705,6.372062647058823,-3.419543288235294
544,1747679298060,3.3919183764705885,-2.4424746882352943,-0.7352834529411765,4.102408811764707,6.004546588235294,-3.493046394117647
545,1747679298070,2.9885227263157894,-2.368016736842105,-1.1711439684210525,3.6224992105263154,5.915100447368421,-3.9690181789473686
546,1747679298080,2.334485914285714,-2.2097465714285716,-1.3878227428571428,3.024397714285714,5.969661142857142,-4.180132757142857
547,1747679298090,1.5776063944444443,-1.921557672222222,-1.4991012833333333,2.385510044444444,5.9175987999999995,-4.038503222222222
548,1747679298100,0.888551405263158,-1.5045937315789473,-1.5141857315789473,2.0065502736842107,5.809191242105263,-3.7794012210526318
549,1747679298110,0.4876809442105263,-1.2417312210526315,-1.430204389473684,1.400303047368421,5.434835189473684,-3.0269887736842107
550,1747679298120,0.3155306921052632,-1.0360552,-1.2547401,1.1161580157894737,4.906632578947369,-2.271268236842105
551,1747679298130,0.4479381842105263,-0.8740268300000001,-1.073752305263158,1.0678287263157895,4.112450452631579,-1.4846551315789474
552,1747679298140,0.7557232625,-0.79568762125,-1.042856575,1.1986879375000001,3.5309496,-1.089631575
553,1747679298150,1.0135087,-0.76060444,-1.0877022,1.3584775,3.0589046,-0.8199867
554,1747679298160,1.4027158,-0.644767147368421,-1.247341252631579,1.7832373736842104,2.975253336842105,-0.8417405105263157
555,1747679298170,1.0179788421052631,-0.46395923789473686,-1.443794547368421,3.0112059263157898,2.6450776684210524,-1.575875347368421
556,1747679298180,-0.039200099999999995,-0.09533004263157895,-1.9350944894736841,4.407935063157895,0.8280181999999999,-1.8648420578947367
557,1747679298190,-0.8323091,0.20072424263157895,-2.9207775315789473,5.330509326315789,-1.0570499157894737,-1.5032130842105262
558,1747679298200,-0.914928902631579,0.31789742210526317,-3.956916073684211,5.541599684210526,-2.0675926842105263,-1.0569798052631578
559,1747679298210,-0.5953166584210526,0.2993747636842105,-5.380489121052631,4.672008068421053,-1.7149904210526314,-0.84151626
560,1747679298220,-0.2942013957894737,0.015985750263157895,-7.046834905263158,2.011932589473684,0.8305411842105263,-1.5655591294736844
561,1747679298230,-0.6041026866666667,-0.073990022,-7.196617533333334,0.37861248999999997,2.178109061111111,-2.1835833611111113
562,1747679298240,-1.8306316473684212,-0.3133887631578947,-6.65636922631579,-1.698548817894737,3.0157333894736844,-2.8712920421052632
563,1747679298250,-3.4059568894736842,-0.6647798,-5.039246094736842,-2.8454804,2.08839332631579,-2.812366142105263
564,1747679298260,-3.9550088333333338,-0.7251347333333333,-3.5206275333333332,-1.9856070666666668,-0.4280584666666667,-1.6104123
565,1747679298270,-3.9432940631578943,-0.7752991894736843,-2.634048915789474,-0.16426785894736842,-3.2187501631578948,0.2217290105263158
566,1747679298280,-3.646211994736842,-0.8049201031578948,-2.8307332526315787,1.1429578221052632,-4.794947873684211,1.825511405263158
567,1747679298290,-2.880180475,-0.9410847375,-3.278115975,1.841041875,-5.540968749999999,3.2794141249999997
568,1747679298300,-1.8961930631578947,-1.0911863552631578,-3.6671561105263155,1.877429042105263,-5.446216284210526,4.533355663157894
569,1747679298310,-1.133116047368421,-1.204711494736842,-3.6374068947368423,1.4939341789473684,-4.829765136842106,5.38646362631579
570,1747679298320,-0.36120473187499996,-1.33371180625,-3.37955235,1.1214563,-4.237618875,6.0220685000000005
571,1747679298330,0.6294910821052632,-1.5100913736842105,-3.2007241,0.6926876815789473,-3.820063526315789,6.504485921052631
572,1747679298340,1.3837564315789475,-1.6641299631578947,-3.2319634263157897,0.08761792999999998,-3.9126852736842097,6.54059297368421
573,1747679298350,2.0382408578947366,-1.825875705263158,-3.2962146315789473,-0.5556331189473684,-4.1772069210526315,6.401996315789473
574,1747679298360,2.562037564705882,-2.027864429411765,-3.2830974235294117,-1.659477102352941,-4.805372811764705,6.001272347058824
575,1747679298370,2.8214848,-2.161981,-3.2329652,-2.5595622,-5.3332424,5.6685343
576,1747679298380,3.0002432,-2.8748452666666666,-2.3834292,-2.5595622,-5.3332424,5.6685343
577,1747679298390,3.022588,-2.9639533,-2.2772372,-2.5595622,-5.3332424,5.6685343
578,1747679298400,3.1260169473684214,-3.3796469473684208,-1.3833967510526317,-5.789308557894737,-5.425752168421053,5.35030082631579
579,1747679298410,3.357537410526316,-3.7841656105263155,-0.20899327163157894,-8.388215263157894,-5.108191631578947,5.097721121052632
580,1747679298420,3.597586888888889,-3.834803844444444,0.5363089714444444,-8.413644444444445,-4.446706333333334,4.864496611111111
581,1747679298430,3.6925636736842105,-3.7933112157894735,0.9157252473684212,-8.04536842105263,-3.967293989473684,4.4588992526315785
582,1747679298440,3.6668734526315787,-3.7097152315789477,1.0796289842105264,-7.539648568421053,-3.682308021052631,3.965009436842105
583,1747679298450,3.5519211444444445,-3.591614244444444,1.1841454555555555,-7.087154511111112,-3.5746104555555553,3.531378533333333
584,1747679298460,3.3167583,-3.4714295999999996,1.1561602333333332,-6.4920272,-3.762333566666667,2.963474666666667
585,1747679298470,3.0552916736842106,-3.338902142105263,1.1026474736842105,-6.060670263157895,-4.042142736842106,2.587567505263158
586,1747679298480,2.8574330823529412,-3.2493277882352944,1.059628411764706,-5.809235082352941,-4.337471458823529,2.446174394117647
587,1747679298490,2.5134330842105266,-3.161408426315789,1.0066173210526317,-5.430482563157894,-4.827018173684211,2.435907542105263
588,1747679298500,2.1864993368421053,-3.056027110526316,1.0371886789473683,-5.081188531578948,-5.014616405263157,2.8165990789473683
589,1747679298510,2.0828391789473684,-2.935154557894737,1.116699942105263,-4.810947715789474,-5.065917168421053,3.1754247894736842
590,1747679298520,2.0519081684210523,-2.8931765736842108,1.234695263157895,-4.410520621052632,-5.164313894736843,3.573609052631579
591,1747679298530,2.079550789473684,-2.831108994736842,1.2942451631578946,-3.992769289473684,-5.251889894736841,3.895767105263158
592,1747679298540,2.1890511,-2.6877617166666665,1.2760736666666668,-3.4695192333333336,-5.26275765,4.242323583333334
593,1747679298550,2.3785594368421052,-2.545536347368421,1.1893519526315788,-3.046927247368421,-5.191842831578947,4.420942131578947
594,1747679298560,2.5261755947368423,-2.4370722736842105,1.0783188157894736,-2.7762381736842103,-5.10987332631579,4.43764997368421
595,1747679298570,2.610239644444444,-2.3289163,0.9533215555555555,-2.6312751999999997,-5.067044855555555,4.346541888888889
596,1747679298580,2.6155260210526317,-2.214543289473684,0.8034846442105262,-2.5946949263157895,-5.014168036842105,4.1944895052631574
597,1747679298590,2.49474082,-2.09069195,0.6857642294999999,-2.70004379,-4.84950615,4.0821434000000005
598,1747679298600,2.167303,-1.7456736333333334,0.7309040111111111,-3.015006711111111,-4.361129888888889,4.3234611
599,1747679298610,2.1202441052631578,-1.480753142105263,0.7752510657894738,-3.1908499789473685,-4.2713989473684215,4.60792405263158
600,1747679298620,2.1849064736842103,-0.9747839105263157,0.7198885842105264,-3.639269978947368,-4.17014272631579,5.1845678842105265
601,1747679298630,2.701100431578947,-0.6647027368421053,0.6160229210526316,-4.3391483157894735,-3.827071805263158,5.537506621052631
602,1747679298640,3.2863237526315787,-0.5245882263157895,0.6801971631578947,-5.11079152631579,-3.161674442105263,5.392574805263158
603,1747679298650,3.45530148125,-0.43292706375,0.90047969375,-5.64256825,-2.603238,5.158272875
604,1747679298660,3.4660179363636363,-0.16519347636363635,1.5147468000000002,-6.654980272727273,-1.3202005909090908,4.5058473090909095
605,1747679298670,3.483096922222222,0.10921562222222223,2.111508666666667,-6.948433622222222,-0.9489723444444444,4.294817555555555
606,1747679298680,3.9338977333333336,0.47839288333333335,2.9641363333333337,-6.978497866666667,-1.2305570333333333,4.244986999999999
607,1747679298690,4.708444,0.48985340625,3.3257071875,-6.881070599999999,-1.6471638875,4.30220055
608,1747679298700,8.209184177777779,-0.5944285644444444,3.951971422222223,-6.406806177777778,-4.228682266666667,3.856757355555555
609,1747679298710,10.30428,-1.892542,4.451421,-6.21861,-4.386223,1.3701954
610,1747679298720,9.460329941176472,-1.6305106352941177,5.0997807058823525,-5.860681247058824,-2.5203823411764708,-1.1272838470588236
611,1747679298730,8.0563296875,-1.307353725,6.27580975,-5.4275182,-1.3911011125000001,-2.256760925
612,1747679298740,5.735425805263158,-0.8847910631578946,8.417531263157896,-3.363646884210526,0.3594143631578947,-3.043472252631579
613,1747679298750,4.506944,-0.72887695,8.968921,0.7683214,1.9126809,-2.1036294
614,1747679298760,5.150910811764706,-1.189140167647059,7.883181470588235,3.6089408352941175,2.864525335294118,-1.3544357882352942
615,1747679298770,5.775295617647059,-1.5893941470588235,6.8969322823529415,5.2550239411764705,3.4117575470588233,-1.1642548647058824
616,1747679298780,6.442663047058823,-2.143978341176471,4.905109164705882,7.040907217647058,3.6796399294117648,-1.6257646470588236
617,1747679298790,6.589212,-2.3796515294117646,3.3784017,7.788408876470589,3.4323734117647056,-2.2490692294117647
618,1747679298800,6.485272,-2.412384,2.4291627,7.9055877,3.016294,-2.7672887
619,1747679298810,6.485272,-2.412384,2.4291627,7.9055877,3.016294,-2.7672887
620,1747679298820,5.265962,-2.1407482,1.4944235000000001,6.1106186000000005,3.83335115,-4.13881565
621,1747679298830,3.34611016,-1.7445455200000002,0.6002954199999999,3.45140094,5.7316509799999995,-5.39028742
622,1747679298840,2.5074877,-1.5630646000000001,0.7795798471428572,2.3595208214285712,7.290664507142857,-4.792278828571428
623,1747679298850,2.124348788888889,-1.4895220222222223,1.1298562066666666,1.8538250666666667,8.207323500000001,-4.1478705
624,1747679298860,2.0136010777777775,-1.553573511111111,1.690265922222222,1.9397562444444445,8.817601555555555,-3.4191116666666668
625,1747679298870,2.0468472,-1.6066695333333334,1.9384449333333333,2.3701229333333336,8.805292,-3.1330291
626,1747679298880,2.1783127333333336,-1.7257694666666668,2.1558186,2.922284638888889,8.574899111111112,-2.9772639
627,1747679298890,2.6462775,-2.1313326105263157,2.418141705263158,4.5692382315789475,7.483617210526316,-2.8973629473684213
628,1747679298900,2.8711954947368423,-2.373257536842105,2.363549921052632,5.692194347368421,6.580553905263158,-3.043640373684211
629,1747679298910,3.1063123368421053,-2.931043936842105,1.9069829736842103,7.538632526315789,5.003459084210526,-3.632787305263158
630,1747679298920,3.09006975,-3.341753775,1.29234415,8.494146,4.2056607999999995,-4.132956650000001
631,1747679298930,2.8945221473684213,-3.6733120263157897,0.3628713921052632,9.038355684210526,3.8021222473684206,-4.687061894736842
632,1747679298940,2.8590696,-3.7019823000000005,0.23215946999999998,8.919270421052632,3.8608798263157893,-4.959096505263158
633,1747679298950,2.8590696,-3.7019822999999996,0.23215946999999998,8.443546,4.089547049999999,-5.0533445
634,1747679298960,2.396388389473684,-3.4463644578947368,-0.37515772473684206,7.539753894736842,4.488880752631579,-4.9572464210526315
635,1747679298970,1.8680686842105263,-3.050066842105263,-0.9825519842105264,6.3782802210526315,4.964605094736842,-4.588104357894737
636,1747679298980,1.7110244000000001,-2.77114795,-1.03376545,5.496730955555555,5.2919337777777775,-4.239364516666666
637,1747679298990,1.7224051000000002,-2.486911184210526,-0.852764905263158,4.282626173684211,5.61194902631579,-3.7247363
638,1747679299000,1.838602,-2.313707736842105,-0.5950918573684211,3.2784749631578944,5.679621252631579,-3.3560991157894735
639,1747679299010,1.8813763,-2.2353610666666666,-0.39994882,2.784036861111111,5.599854088888889,-3.230027322222222
640,1747679299020,1.7973436578947368,-2.099656442105263,-0.034094155789473675,2.2659137578947366,5.367723263157895,-3.090063547368421
641,1747679299030,1.6227527157894734,-1.9950973210526317,0.2354221136842105,2.1190195315789473,5.136785526315789,-2.832886421052631
642,1747679299040,1.5266455368421052,-1.9419955789473686,0.3948043452631579,2.1801321368421056,5.031660589473684,-2.5238478578947365
643,1747679299050,1.5110515315789472,-1.8940834210526314,0.6140448147368421,2.510419815789474,4.906520210526316,-1.828174605263158
644,1747679299060,1.5659002736842107,-1.9487777789473684,0.6452584442105264,2.969940868421052,4.745161031578948,-1.2190680789473685
645,1747679299070,1.6325193,-2.003099766666667,0.5469933266666667,3.306134533333333,4.615255,-0.8242477266666666
646,1747679299080,1.7128482947368422,-2.009381078947368,0.4714897,3.619303410526316,4.48136812631579,-0.4957540631578947
647,1747679299090,1.9404636631578946,-1.9929393947368421,0.23154287368421053,3.920941147368421,4.285696021052632,-0.3068099368421053
648,1747679299100,2.066936684210526,-1.899298515789474,-0.16914771315789476,4.061724026315789,4.049039268421052,-0.4344733878947369
649,1747679299110,1.9469634210526312,-1.6334045684210525,-0.5737689342105263,4.013506763157895,3.8628982157894733,-0.7888137194736843
650,1747679299120,1.7508185578947368,-1.3647360473684211,-0.82162835,3.888366389473684,3.833463273684211,-1.087199662631579
651,1747679299130,1.2618306210526318,-1.0400370789473683,-1.389177094736842,3.600128484210526,3.9324207315789472,-1.471984105263158
652,1747679299140,0.68508905,-0.7823255,-1.8708006000000001,3.07586005,4.2644277666666675,-1.374989
653,1747679299150,0.3377527563157895,-0.5888651894736842,-2.141001910526316,2.7609811368421053,4.367833136842106,-1.0627546447368421
654,1747679299160,0.027466074,-0.2975892757894737,-2.8566804684210525,2.1462118736842104,4.299432121052631,-0.258536687368421
655,1747679299170,0.4939237055789473,-0.2911667210526316,-3.38148057368421,1.1148124631578948,4.284966963157895,0.5587448105263157
656,1747679299180,1.0804318052631579,-0.27159075473684213,-3.6012864684210526,0.17154951999999998,4.5783069,0.8988442252631579
657,1747679299190,1.2951508,-0.2554059,-3.6136949999999994,-0.41283170105263156,4.9801916,0.7677607294736842
658,1747679299200,1.329986752631579,-0.12769973684210528,-3.4604013157894737,-0.8620926257894737,5.383534021052633,0.3371699747368421
659,1747679299210,1.3975006578947369,0.6155701684210526,-2.4929067894736843,-0.5918520889473684,5.095800631578947,-0.613718
660,1747679299220,0.9041439549999999,0.8573324083333334,-1.919774772222222,0.5033074799999999,4.037763255555555,-1.4810419777777777
661,1747679299230,-0.7807230526315789,0.7784205947368421,-2.1563388157894736,4.310210789473683,1.1075658263157895,-2.672143842105263
662,1747679299240,-2.127687994736842,0.3144806094736842,-3.2311156315789473,6.192980157894737,-0.36810462631578944,-2.9375065
663,1747679299250,-3.4257300333333336,-0.24678254666666666,-4.559660533333333,7.6016326,-1.7567973,-2.6273840333333336
664,1747679299260,-4.563096631578947,-0.8306103447368421,-6.43674357368421,7.685582652631578,-2.6548333052631574,-1.427859805263158
665,1747679299270,-4.677469605263158,-1.1337808578947368,-8.212786894736842,5.604169589473684,-2.817426031578947,0.9036099105263158
666,1747679299280,-3.5979915789473687,-1.2413715105263157,-8.593259263157895,2.8124501421052632,-2.270048736842105,2.7326676368421055
667,1747679299290,-2.662481611111111,-1.2844596888888888,-8.263310666666667,0.5204700777777778,-1.7109909888888888,3.827285266666667
668,1747679299300,-1.060592542105263,-1.357003252631579,-6.964292505263158,-2.7787892736842106,-1.3043032526315788,4.628556789473684
669,1747679299310,0.2948500568421053,-1.466469347368421,-5.446436178947368,-4.371106063157894,-1.567479352631579,4.682044157894737
670,1747679299320,1.0034638589473683,-1.5821267631578948,-4.473007305263159,-5.2833082631578945,-2.1420489210526314,4.4395003157894735
671,1747679299330,1.6562014263157896,-1.7910654842105262,-3.2237168315789475,-6.313754631578948,-3.309633894736842,3.8172740947368418
672,1747679299340,2.108760689473684,-2.0908191052631575,-1.7693412105263158,-6.727356973684211,-4.462977894736842,3.0359872684210525
673,1747679299350,2.158779452631579,-2.3011707736842104,-1.097233205263158,-6.655367594736842,-4.790182263157895,2.743768647368421
674,1747679299360,2.1464995789473686,-2.473346731578947,-0.5144245105263158,-6.401274157894737,-5.044051447368421,2.514568863157894
675,1747679299370,2.1713163421052633,-2.5203085789473683,-0.24531928210526313,-6.182054105263158,-5.040126684210526,2.5521334947368417
676,1747679299380,2.2640581,-2.5944506,-0.016290820999999997,-5.90116105,-4.958683616666666,2.6786941888888887
677,1747679299390,2.436336789473684,-2.6995749789473686,0.04164066368421052,-5.679810368421053,-4.842940789473684,2.8205798526315786
678,1747679299400,2.5870870736842106,-2.772766494736842,0.06656019631578947,-5.602887,-4.797415,2.8743477
679,1747679299410,2.6959173625,-2.7840526,0.09298581575,-5.5721276875,-4.781102987500001,2.8990484687499998
680,1747679299420,2.817888210526316,-2.801000094736842,0.08901345757894737,-5.571826315789473,-4.718641242105264,2.9296852842105263
681,1747679299430,2.904515752631579,-2.860806894736842,0.05571890842105263,-5.698312315789473,-4.581726894736843,2.9041189842105264
682,1747679299440,3.0107448105263157,-2.9953980736842105,0.040073556578947366,-5.969394157894737,-4.286368557894737,2.8130109105263155
683,1747679299450,3.0665183,-3.095256,0.06912921,-6.245241,-3.9878143999999995,2.6708822
684,1747679299460,3.0665183,-3.095256,0.06912921,-6.245241,-3.9878143999999995,2.6708822
685,1747679299470,3.101499883333333,-3.2697570000000002,0.17529412666666666,-6.629623844444444,-3.6326673666666665,2.415633277777778
686,1747679299480,2.7976486,-3.415215116666667,0.6473822266666667,-7.263633277777777,-3.321551338888889,1.953959872222222
687,1747679299490,2.558673821052632,-3.2748306842105266,1.1077598342105264,-7.298282263157894,-3.6485561052631574,1.8728315263157895
688,1747679299500,2.56336996,-3.2030317999999998,1.31050206,-7.04014104,-3.9709833000000003,1.87023014
689,1747679299510,2.583284933333333,-3.168310566666667,1.3968007,-6.862739100000001,-4.1035731,1.8442376999999999
690,1747679299520,2.609000705263158,-3.113187742105263,1.4964017315789473,-6.589209136842105,-4.264334457894737,1.7852556631578949
691,1747679299530,2.491487026666667,-2.81241002,1.60581126,-5.67532524,-4.60651962,1.5294877733333332
692,1747679299540,2.3037752631578945,-2.6418233157894737,1.634717905263158,-5.069582789473684,-4.7348447315789475,1.4517721000000001
693,1747679299550,2.0439184473684207,-2.474477042105263,1.6527268315789474,-4.254599778947369,-4.951485547368422,1.5313864684210527
694,1747679299560,1.8132987705882353,-2.260982294117647,1.6325886705882353,-3.6311469529411764,-5.223896223529412,1.7311944294117647
695,1747679299570,1.701056494736842,-2.0747113578947367,1.4874101684210528,-2.9230764315789473,-5.64536472631579,2.114085747368421
696,1747679299580,1.795802057894737,-2.0166770052631584,1.306653594736842,-2.388538368421053,-6.026841252631579,2.4924226315789477
697,1747679299590,1.96329805,-2.0323867,1.151279,-2.1162349833333334,-6.145683383333333,2.7308921666666666
698,1747679299600,2.0807324315789475,-1.9912180789473684,1.0134766157894735,-2.010825289473684,-6.023140757894737,2.9035021947368422
699,1747679299610,2.1442644894736844,-1.9458491368421054,0.9184998105263158,-1.965796894736842,-5.793100052631579,3.0780372368421056
700,1747679299620,2.1984415285714287,-1.9034896000000001,0.8742391914285713,-2.0453632857142856,-5.473857285714286,3.1949920142857144
701,1747679299630,2.475899666666667,-1.8704140666666664,0.8523902566666667,-2.46051495,-4.087239083333333,3.451306222222222
702,1747679299640,2.537185261111111,-1.901572061111111,0.9565213277777777,-2.7175837444444446,-3.2804203055555554,3.4765766222222223
703,1747679299650,2.4953431,-1.902331272222222,1.2042665888888888,-3.0409873666666667,-2.344763677777778,3.5509083944444444
704,1747679299660,2.496837294736842,-1.8508723421052629,1.5915069,-3.063887457894737,-2.5473538,3.831795415789474
705,1747679299670,2.6129828842105263,-1.5404572315789473,1.7323664368421052,-2.8571843210526318,-3.7644454263157896,4.108203115789474
706,1747679299680,2.7508708888888886,-0.5147031622222222,1.8400086,-2.768220688888889,-5.596835877777778,4.296829677777778
707,1747679299690,2.9850031263157897,0.3253732852631579,1.9964622,-3.0497656263157893,-6.477335373684211,4.638592363157895
708,1747679299700,3.0816498,0.5963539,2.0596602,-3.7296702894736846,-6.664261415789475,5.306120426315789
709,1747679299710,5.954887,0.804876356,3.02339332,-4.616737166666667,-5.6425950600000006,5.2192058
710,1747679299720,7.60960532631579,0.7691463647368421,4.368364494736841,-5.707507321052631,-2.898161847368421,3.776682010526316
711,1747679299730,7.105460421052632,1.1575827478947367,6.356686094736842,-5.935922473684211,-0.787594252631579,2.4389912000000002
712,1747679299740,6.579017405555556,1.7624864,7.631514194444445,-5.391491722222223,-0.2068386888888889,2.003257888888889
713,1747679299750,7.420807821052631,1.8366013789473685,8.492444,-3.8070770736842108,0.15953725263157895,1.4923082052631578
714,1747679299760,8.460491710526316,0.8691842163842106,8.775909736842104,-2.158889963157895,1.273018147368421,0.052744536842105165
715,1747679299770,8.10699407894737,-0.1306284260263158,8.953994263157895,-0.7504151947368422,2.6607764210526317,-1.5886585263157895
716,1747679299780,3.3980250578947366,-0.8918043757894737,8.23546452631579,4.202170542105263,4.159882752631579,-2.6682192052631577
717,1747679299790,3.046248694736842,-1.3504779736842105,6.639484210526316,6.765699673684211,3.1520310631578945,-1.5934241894736842
718,1747679299800,3.942792266666667,-1.6432781444444444,4.740439022222223,8.502964333333333,1.6355939333333334,-0.867450088888889
719,1747679299810,4.574483752631579,-1.6154213315789474,3.3563234368421053,8.810220947368421,0.8351947221052631,-1.1082245631578949
720,1747679299820,4.749665515789474,-1.3821283052631579,2.0927491736842105,8.15020585263158,1.0533495415789473,-1.550252947368421
721,1747679299830,4.830949263157894,-1.2936511052631579,1.3383296368421052,6.66786352631579,2.241735168421053,-2.1475855684210523
722,1747679299840,4.8229340315789475,-1.3145115894736843,0.9844466452631578,5.161917157894737,3.488317768421053,-2.634354884210526
723,1747679299850,4.691968111764706,-1.390300805882353,0.8777052358823529,3.855956705882353,4.617635864705882,-3.0900634823529414
724,1747679299860,4.221268642105263,-1.5311059578947368,0.9796682968421053,2.6024810526315787,6.0429321789473684,-3.5453796578947365
725,1747679299870,3.2554186421052633,-1.5831544105263158,1.3322924631578947,1.551290136842105,7.799383631578947,-3.7334827736842104
726,1747679299880,2.776963757894737,-1.5905531894736842,1.5784050315789475,1.4639385368421052,8.31104657894737,-3.5539578789473687
727,1747679299890,2.200689194117647,-1.6407895705882352,1.9913528823529414,1.8874748588235293,8.877374588235295,-2.9129791764705883
728,1747679299900,2.055530273684211,-1.6492811315789473,2.1827677578947364,2.7738205263157893,8.687028736842104,-2.330810778947368
729,1747679299910,2.1322413894736845,-1.7412006368421051,2.273454221052632,3.892010694736842,8.057401705263159,-1.8759993684210527
730,1747679299920,2.227963257894737,-1.8520797736842105,2.2514377736842106,5.090488563157894,7.126305421052631,-1.6027872736842106
731,1747679299930,2.454397021052632,-2.048070657894737,1.9950235263157896,6.110842963157895,6.198180473684211,-1.4862810736842105
732,1747679299940,2.6561938421052633,-2.1989751210526314,1.623979410526316,7.540707184210526,4.701316842105263,-1.5170616210526315
733,1747679299950,2.8541070833333335,-2.367314666666667,1.1651903,8.353530666666666,3.6680579166666667,-1.7765934999999997
734,1747679299960,2.9090113947368423,-2.409506557894737,1.0205928005263158,8.582198421052633,3.1964918421052633,-2.1109741315789474
735,1747679299970,3.1118358368421055,-2.552447,0.31475357315789476,8.663383052631579,2.6803435,-2.688347
736,1747679299980,3.0466887000000002,-2.5428936,-0.34912388125,7.881752375,2.885399675,-3.6599795
737,1747679299990,2.8344583210526317,-2.5041238,-0.5658820631578948,6.972024347368421,3.699240184210526,-4.068928578947368
738,1747679300000,2.517660777777778,-2.4088587555555554,-0.6241018666666667,5.901353511111111,4.619279266666666,-4.225516133333333
739,1747679300010,2.3843911631578947,-2.3556599157894738,-0.5822467473684211,5.3288272999999995,4.967632936842105,-4.149440063157894
740,1747679300020,2.0233662473684206,-2.1819938736842106,-0.2893523410526316,4.6991444,5.3130026,-4.0285606
741,1747679300030,1.773158382352941,-2.0850025529411766,0.02290189882352941,3.8447402529411763,5.2913838058823535,-3.471177188235294
742,1747679300040,1.4975897578947368,-1.9264531157894735,0.3818564605263158,3.572936415789474,5.060646984210527,-2.974342094736842
743,1747679300050,1.4420445176470589,-1.8588333352941175,0.5024313270588234,3.5351870647058825,4.848108829411764,-2.6476031000000004
744,1747679300060,1.458155394736842,-1.7934803578947367,0.6471852368421052,3.6512052052631576,4.3203448947368415,-2.0508708526315793
745,1747679300070,1.5267482894736841,-1.789241436842105,0.6812248,3.7765138947368424,4.004466131578948,-1.7383560684210528
746,1747679300080,1.6245738444444444,-1.8035965999999999,0.6161428711111111,3.907298333333333,3.7983158333333336,-1.5334765444444445
747,1747679300090,1.6798107894736842,-1.792940847368421,0.4024343568421052,3.9653458,3.688979973684211,-1.3881647210526316
748,1747679300100,1.7951855684210527,-1.7193384210526317,0.20320656052631578,3.879451905263158,3.6483877894736843,-1.369214252631579
749,1747679300110,1.930242111111111,-1.6594401555555554,-0.007504761555555557,3.565230188888889,3.4435830666666667,-1.5163140333333334
750,1747679300120,1.8912200222222222,-1.6220994055555555,-0.13484841116666668,3.308383311111111,3.2728449833333335,-1.6799503666666666
751,1747679300130,1.6071072999999998,-1.4839129947368424,-0.25978286842105264,2.7904160052631575,3.0739863578947366,-1.8449945473684213
752,1747679300140,1.3516859764705882,-1.3472893,-0.2869072305882353,2.466038311764706,3.179843247058823,-1.7221396823529411
753,1747679300150,1.1105,-1.225088405882353,-0.31791685882352944,2.1727775588235296,3.4054284705882356,-1.5221207647058823
754,1747679300160,1.0471886,-1.202348,-0.3360058,2.0977705,3.5340119999999997,-1.4335785
755,1747679300170,0.7399815375,-1.0394398125,-0.37932597500000004,1.8804566500000002,4.350004,-0.7720498
756,1747679300180,0.5945009684210527,-0.8480539736842104,-0.5209241315789473,1.6823175842105262,5.330999631578948,0.3062773078947368
757,1747679300190,1.17695394,-0.5529604884999999,-1.0296165050000001,1.831134845,5.091321,1.1741868275
758,1747679300200,1.8024645499999998,-0.2878655133333333,-1.5694712,1.9452601666666665,4.136063666666667,1.0792007666666668
759,1747679300210,2.2649368466666666,-0.0496168404,-2.3495106133333334,1.83749108,2.8667311333333334,0.3351141773333333
760,1747679300220,2.124714284210526,0.02094396357894737,-2.526201294736842,1.6163273157894738,2.3937876315789475,-0.45813345263157895
761,1747679300230,1.5557767444444444,0.190486685,-2.3281095,1.5875682944444443,2.0724703666666664,-1.2954493999999999
762,1747679300240,0.645307675,0.414612565,-1.8490793333333333,2.284724183333333,1.7804106166666667,-1.8307444
763,1747679300250,0.0788722394736842,0.4174470710526316,-1.804408347368421,3.2945099736842107,1.4963310157894736,-1.8729156789473687
764,1747679300260,-0.3862495026315789,0.26623434842105265,-2.151843089473684,4.324059105263157,1.2471154157894737,-1.785564005263158
765,1747679300270,-0.7389764763157894,0.00830437263157895,-2.9145862473684208,5.4381005263157896,1.1585303105263158,-1.6353057947368421
766,1747679300280,-1.0379337631578947,-0.25527745736842106,-4.059086405263158,6.163713447368421,1.1676130631578947,-1.5934241526315789
767,1747679300290,-1.5685193733333334,-0.5682872999999999,-5.648774293333333,6.13611386,0.7553784520000001,-1.4475689866666668
768,1747679300300,-1.9210613263157894,-0.7353252263157894,-6.721211378947369,5.250053668421053,0.0528426747368421,-1.0280494736842105
769,1747679300310,-1.498867905263158,-0.7637900315789473,-7.151600121052632,2.3019646263157894,-0.5904083368421054,-0.03152339605263158
770,1747679300320,-1.1183855816666666,-0.7513573572222222,-6.528416172222222,0.29043229,-0.22915003944444445,0.4099785625
771,1747679300330,-0.713586807,-0.794235462,-5.0580742999999995,-1.37675339,0.1893506075,0.8402267
772,1747679300340,-0.5049069933333333,-0.8725453255555555,-4.000173,-2.425324155555556,0.12339303333333335,1.357885722222222
773,1747679300350,-0.40788066666666667,-0.9276480222222223,-3.5102144444444443,-2.6242473888888886,-0.23133977777777778,1.630238111111111
774,1747679300360,-0.2676633489473684,-1.016967247368421,-2.889949242105263,-2.7658098842105265,-0.8450064263157894,2.0214078315789474
775,1747679300370,-0.0742544165,-1.11790415,-2.3223876999999997,-2.6980242555555556,-1.64973835,2.4578294722222225
776,1747679300380,0.14977730068421055,-1.2195091052631577,-1.8697643368421053,-2.5254037052631575,-2.9416134736842103,3.092390194736842
777,1747679300390,0.4565958,-1.3369648842105264,-1.638321,-2.4941115684210526,-3.837275957894737,3.4971343368421053
778,1747679300400,0.7866125789473685,-1.4274458315789473,-1.5145968,-2.6246343684210527,-4.824943536842106,3.8321878842105264
779,1747679300410,1.4201338052631578,-1.5630903263157894,-1.4342891210526316,-2.988730321052632,-5.83245857368421,3.875863689473684
780,1747679300420,1.8052560789473686,-1.8206348947368423,-1.3509499473684212,-3.8678531210526317,-7.196892994736841,3.712373584210526
781,1747679300430,2.0676733333333335,-2.145059766666667,-1.2129848333333335,-4.503535266666667,-7.770565666666666,3.7031227333333336
782,1747679300440,2.3323684421052633,-2.5240336052631576,-0.9597904631578947,-5.185976910526316,-8.019388736842107,3.7691130210526316
783,1747679300450,2.636408088888889,-2.82475925,-0.4961073816666667,-6.057103866666667,-7.783467255555556,3.9502638388888887
784,1747679300460,2.8725742444444444,-2.8962679666666666,-0.08923681777777778,-6.769114188888889,-7.058969744444444,4.162014566666667
785,1747679300470,3.150859342105263,-3.0362455842105263,0.21579476526315788,-7.266604684210526,-6.151981657894737,4.225382142105263
786,1747679300480,3.3567023000000002,-3.137966,0.43204233999999997,-7.554450200000001,-5.513272150000001,4.1254997
787,1747679300490,3.54438245,-3.2724415000000002,0.685861865,-7.908118,-4.653012611111111,3.706436811111111
788,1747679300500,3.4849096,-3.375793405263158,0.8948390805263159,-8.194786157894738,-4.025883594736842,3.115601663157895
789,1747679300510,3.155971736842105,-3.4375270526315793,1.1651260736842106,-8.422975894736842,-3.7091079105263156,2.3718794263157896
790,1747679300520,2.880977423529412,-3.450172588235294,1.3344368823529411,-8.393564235294116,-4.075730182352941,2.0949504647058825
791,1747679300530,2.773649505263158,-3.402742357894737,1.4284767157894738,-8.292397631578947,-4.547975105263157,2.0548794842105265
792,1747679300540,2.8521075894736843,-3.29628222631579,1.5652515263157893,-8.033537842105263,-5.219427315789473,2.076016547368421
793,1747679300550,3.02864068,-3.24110462,1.62357858,-7.7860385999999995,-5.41548068,1.9362764000000001
794,1747679300560,3.0465917294117646,-3.1939699647058823,1.6473181705882352,-7.61893005882353,-5.385315023529412,1.7282492588235296
795,1747679300570,2.8137521263157894,-3.056695,1.7200094631578946,-7.328894736842105,-5.157025484210526,1.2642296947368423
796,1747679300580,2.522810136842105,-2.954987347368421,1.8195592105263156,-7.090555947368421,-5.064459778947368,1.034581247368421
797,1747679300590,2.1475614,-2.8466430000000003,1.9750536666666665,-6.7121819333333335,-5.065506133333333,0.900059
798,1747679300600,1.79424785,-2.69890705,2.12775215,-6.298185009999999,-5.1531594499999995,0.9405212825
799,1747679300610,1.4875763444444443,-2.5340328666666667,2.243191233333333,-5.559448111111111,-5.347564166666667,1.1393882777777777
800,1747679300620,1.264399657894737,-2.361851147368421,2.280750310526316,-4.809041352631579,-5.5625542368421055,1.4781795157894735
801,1747679300630,1.2283305105263158,-2.0450904947368422,2.0576563210526317,-3.2951897210526315,-5.81861005263158,2.3810184157894736
802,1747679300640,1.4541404722222222,-1.9260862166666668,1.8028848388888887,-2.5296978111111112,-5.702474611111111,2.9298004888888887
803,1747679300650,1.8338235631578947,-1.8603006,1.5093495947368423,-2.1486928578947366,-5.448291,3.1819284684210527
804,1747679300660,2.104110584210526,-1.8171410315789476,1.301644047368421,-1.9609751947368421,-5.171042157894736,3.2529647578947367
805,1747679300670,2.2954601333333335,-1.7282100666666667,1.0998644,-1.9678970333333332,-4.742021,3.0593483999999997
806,1747679300680,2.023982789473684,-1.3809979421052632,1.1557491578947368,-2.3240268947368423,-4.371757842105263,2.6687517368421054
807,1747679300690,1.6532469368421052,-1.1179042894736841,1.399343952631579,-2.4010271947368422,-4.037601463157895,2.704578236842105
808,1747679300700,1.364836294117647,-0.8559877470588235,1.603904723529412,-2.313353170588235,-3.645927447058823,3.0178448529411765
809,1747679300710,1.2060313999999999,-0.646719552631579,1.7311847473684212,-2.1847436157894733,-3.317987884210526,3.407596052631579
810,1747679300720,1.8766578999999999,-0.8227576333333333,1.5012572,-2.0151237333333336,-3.213722833333333,4.298604833333333
811,1747679300730,3.01962866875,-0.84413298875,1.0749196125,-2.5760988125,-4.4302316625,4.80407296875
812,1747679300740,3.9734861052631576,-0.5418777210526315,1.1363273157894735,-3.3013571578947367,-5.4113990526315785,4.918252473684211
813,1747679300750,5.411368684210527,-0.41499365263157895,1.6909795157894738,-4.750115894736843,-6.293213157894737,4.7549863684210525
814,1747679300760,6.628343888888889,-0.5744158444444445,2.4970107555555554,-5.5317515,-5.743013888888888,4.158818777777778
815,1747679300770,7.6474727842105255,-0.9968518652631579,3.9427031631578946,-6.397966563157895,-3.9665652631578947,2.9501495578947368
816,1747679300780,7.553703489473684,-1.263876189473684,5.2404711105263155,-6.6940537631578945,-1.2675235589473683,1.4105632263157895
817,1747679300790,6.614459888888889,-1.4072476555555555,7.247232366666667,-6.1606711388888895,0.3139568711111111,0.5404733183333333
818,1747679300800,5.283431421052632,-1.0622334684210526,8.674741910526315,-3.692869494736842,1.0901851736842105,0.36537139526315787
819,1747679300810,4.123491684210526,-0.45617509105263154,9.588235631578948,-0.7772359947368422,0.863340074736842,0.9321477084210527
820,1747679300820,4.5536677222222215,-0.2616429227777778,9.014044555555556,2.1929339666666667,0.36804860166666664,1.5733056
821,1747679300830,6.479106547368421,-0.14409012105263158,6.219731484210526,6.000167705263158,0.6458581463157894,1.0095755789473684
822,1747679300840,6.780247715789474,-0.19968378947368423,4.8227992,7.0516388315789476,1.4721663105263159,-0.49222189263157895
823,1747679300850,6.4570430666666665,-0.5062967500000001,3.4706363666666666,7.099005861111111,1.8561035166666666,-1.9260263055555553
824,1747679300860,6.192674866666667,-0.6243120000000001,3.0860021333333334,6.914300977777778,1.9870125777777778,-2.5677292888888887
825,1747679300870,5.033080457894737,-0.8895180105263157,2.0661854631578946,5.723927778947369,2.6086344210526313,-3.7222133315789474
826,1747679300880,4.3448901,-0.9717952666666666,1.6340243333333335,4.489287266666667,3.6597130000000004,-3.9880805666666665
827,1747679300890,4.093588584210527,-1.0427345894736841,1.5481419157894738,3.7441073947368424,4.478059947368421,-4.025420863157895
828,1747679300900,3.7965324052631577,-1.1477562894736841,1.658018947368421,3.1019216894736843,5.487593736842105,-3.980231336842105
829,1747679300910,3.365809626315789,-1.2548845736842105,1.873611305263158,2.4385427263157893,6.963432168421053,-3.800650342105263
830,1747679300920,2.9536611684210525,-1.350863294736842,2.1848743263157893,2.431310052631579,7.712200478947369,-3.516505284210526
831,1747679300930,2.86590328,-1.49385006,2.40319512,2.88542628,7.928864000000001,-3.23451318
832,1747679300940,3.1679762857142855,-1.8551663,2.5252517142857145,4.257972885714286,7.6313204,-2.9814065857142857
833,1747679300950,3.4940576200000004,-2.2524288500000003,2.29922686,5.56605578,7.02530726,-3.132887
834,1747679300960,3.6283381,-2.5485679,1.9849786500000002,6.74072195,6.37027665,-3.4144361500000002
835,1747679300970,3.6268250199999996,-2.909919,1.4176919,7.91293778,5.5290379000000005,-3.8554553900000004
836,1747679300980,3.4755580000000004,-3.1943433,0.79788417,8.730102,4.652539,-4.297007
837,1747679300990,3.34759115,-3.2645911333333335,0.3696857308333334,8.912705666666668,4.1476927166666675,-4.5831192
838,1747679301000,3.214417075,-3.263289575,0.014826482000000002,8.82457775,3.9018609125,-4.8039394
839,1747679301010,3.12329214375,-3.2408668187500003,-0.18722241975,8.679502124999999,3.806985875,-4.949614125
840,1747679301020,2.889734735294118,-3.126954788235294,-0.521173485882353,8.220028529411765,3.9048491647058823,-5.095202835294118
841,1747679301030,2.7223670812500003,-3.03674326875,-0.719450254375,7.615969375,4.12436788125,-5.18031059375
842,1747679301040,2.3091476125,-2.7511963,-0.92095005125,5.9473667500000005,4.902343125,-4.846150625
843,1747679301050,2.0647445666666666,-2.514237122222222,-0.7695057444444444,4.660439777777778,5.338450455555556,-4.326006122222221
844,1747679301060,2.0140621166666666,-2.383910466666667,-0.5012326,3.882974666666667,5.500488933333333,-3.9365931166666663
845,1747679301070,1.9737926733333333,-2.289086113333333,-0.2551740606666667,3.4235266,5.550769233333333,-3.6737570533333335
846,1747679301080,1.90651415,-2.20347085,0.04106264000000001,3.1549781,5.5014209375,-3.43048185
847,1747679301090,1.7814653375,-2.077964325,0.506784903125,2.99319111875,5.24975253125,-3.0044429999999998
848,1747679301100,1.713790288888889,-2.0115332666666665,0.72781264,3.1485938333333334,4.954126955555555,-2.661827577777778
849,1747679301110,1.6683784736842107,-1.9388613,0.9506896857894735,3.5694041263157894,4.605723231578947,-2.2017457736842103
850,1747679301120,1.6710530944444446,-1.903253333333333,0.9874352872222221,3.9501455500000002,4.4446348888888885,-1.90176195
851,1747679301130,1.7156885,-1.8695463444444442,0.8936630888888888,4.374593988888889,4.273541844444445,-1.5798747999999998
852,1747679301140,1.7941322736842107,-1.8436790789473683,0.7444741842105264,4.73956832631579,4.0827912,-1.3049620263157893
853,1747679301150,2.0068216,-1.8266466,0.46059700000000003,5.110336,3.6586480000000003,-1.0809762
854,1747679301160,2.1677367333333333,-1.8339682666666666,0.16610126666666666,5.1071401666666665,3.360019133333333,-1.2404107
855,1747679301170,2.400377655555556,-1.816694427777778,-0.6680863722222222,4.822773916666667,2.5082224388888887,-1.9505273944444446
856,1747679301180,1.934523417647059,-1.7090395588235294,-1.0036602411764708,4.085301647058823,2.247111076470588,-2.6179638588235297
857,1747679301190,1.3295756894736843,-1.5619342578947368,-1.1624863842105264,3.3899352999999994,2.344953563157895,-2.796443157894737
858,1747679301200,0.8835931789473683,-1.4131878105263158,-1.190899852631579,2.8438475157894736,2.5525117684210525,-2.582381263157895
859,1747679301210,0.5648030552631579,-1.2833750315789472,-1.1802641052631577,2.4588948210526316,2.77565647368421,-2.252373794736842
860,1747679301220,0.2699048442105263,-1.1138451315789475,-1.127522,2.093341157894737,3.1880817631578946,-1.469348947368421
861,1747679301230,0.4056520484210527,-1.0109300578947369,-1.277809857894737,2.0080639894736843,3.6241110526315787,-0.700621087368421
862,1747679301240,0.6855728315789474,-0.9624269168421054,-1.6300743631578947,2.028920757894737,3.9968972105263156,-0.4697392263157894
863,1747679301250,0.7531267044444445,-0.9651786422222222,-2.0866013111111115,2.0537396,4.393561444444445,-0.8061382866666666
864,1747679301260,-0.8162426766666666,-1.0872615111111112,-3.3985987166666667,2.106765922222222,3.9072095333333334,-2.121028677777778
865,1747679301270,-2.856006036842105,-0.773321087368421,-3.906871552631579,1.959846815789474,2.009507789473684,-1.6834109526315788
866,1747679301280,-3.9307314631578945,-0.5766880221052632,-3.9523432210526317,1.929346705263158,-0.5744294368421052,0.027458567368421047
867,1747679301290,-3.260524610526316,-0.4526812473684211,-3.695698068421053,2.445943394736842,-2.072302294736842,1.16947726
868,1747679301300,-2.887707810526316,-0.3572163084210526,-4.108385984210526,2.9289564263157892,-2.3297035210526316,1.548991452631579
869,1747679301310,-2.8593202,-0.4540685089473684,-4.776229426315789,2.8931298315789475,-1.7999311000000002,2.018043984210526
870,1747679301320,-2.822017915789474,-0.4819167178947369,-5.1834450789473685,2.690281221052632,-1.5303633684210525,2.2430948210526314
871,1747679301330,-2.457627515789474,-0.4867207863157895,-5.6828375,1.8832038884210527,-1.030474389473684,2.6364013052631576
872,1747679301340,-1.6553385666666667,-0.4773353,-6.1286233333333335,0.25877030333333334,-0.17417059666666665,3.111191266666667
873,1747679301350,-0.9893791947368421,-0.4427391357894736,-5.72437887368421,-1.4206832036842105,0.3574520163157895,2.9250878210526317
874,1747679301360,-0.641559032631579,-0.43271994157894733,-5.144601415789474,-2.6987472631578946,0.3440521231578947,2.599958094736842
875,1747679301370,-0.03542362831578947,-0.5879403421052632,-3.449636789473684,-3.556459736842106,-1.1857224821052632,1.9221140947368422
876,1747679301380,0.10492213763157895,-0.83019925,-2.5961300263157896,-3.3239939684210524,-2.0327753789473686,1.6897744842105262
877,1747679301390,-0.015154024210526312,-0.9207317052631578,-2.1157225631578944,-2.643942284210526,-3.089292652631579,1.6975116368421055
878,1747679301400,-0.1137531494736842,-1.0390352,-1.8161743684210527,-2.1452307315789474,-3.524761236842105,1.9906834631578947
879,1747679301410,0.07206432894736842,-1.306162305263158,-1.7714733578947368,-1.626286152631579,-3.7335528526315787,2.6040509684210527
880,1747679301420,0.2646383373684211,-1.4719157157894738,-1.8204903263157894,-1.4640646894736842,-3.7992067368421054,2.9953390736842103
881,1747679301430,0.4867789777777778,-1.5908871777777778,-1.8960739111111111,-1.4428107666666667,-3.858917566666667,3.4588221666666663
882,1747679301440,0.8481664105263157,-1.7356002684210527,-1.9752227473684212,-1.6490561,-3.984506531578947,4.043782784210527
883,1747679301450,1.3764090315789475,-1.9333637105263157,-1.9789221263157897,-2.1071405631578948,-4.263213236842105,4.625753231578948
884,1747679301460,1.8242669,-2.1053598,-1.8994364999999998,-2.7320018,-4.720716,5.1135316
885,1747679301470,2.8141116947368423,-2.5829156947368417,-1.7116152894736842,-4.1477371,-5.944198947368421,5.531956184210526
886,1747679301480,3.427493164705883,-2.952985088235294,-1.6000788235294117,-5.114119252941176,-6.351571529411764,5.5485981176470585
887,1747679301490,4.187581344444444,-3.458928638888889,-1.3382675777777777,-6.608614466666666,-5.838177244444444,5.2696521333333335
888,1747679301500,4.537895882352941,-3.7169990235294117,-1.0966317176470588,-6.8886604,-5.6698656,5.1976876
889,1747679301510,4.643102578947369,-3.9761485947368422,-0.661090087368421,-9.064489263157895,-3.5254338736842104,4.103493652631578
890,1747679301520,4.536668,-4.187014068421052,-0.28090027444210525,-10.556418894736844,-2.0654620842105267,3.1419531
891,1747679301530,4.260137978947368,-4.457994736842105,0.27747702924210527,-11.490935789473683,-1.153147905263158,2.309870036842105
892,1747679301540,3.852056933333333,-4.651961555555555,0.8852566722222223,-11.949373194444444,-0.684135986111111,1.6879989666666666
893,1747679301550,3.285912842105263,-4.693625242105263,1.6838633315789473,-12.172255894736843,-0.39058732578947375,0.75155751
894,1747679301560,2.891670589473684,-4.594358357894737,2.247763942105263,-11.636708842105262,-0.8314943342105263,0.29315774157894736
895,1747679301570,2.3279754631578946,-4.0250115052631585,3.088040205263158,-10.05058705263158,-2.2080392315789474,0.1394233842105263
896,1747679301580,2.210905115789474,-3.402485505263158,3.223684710526316,-6.865729063157895,-4.863236763157895,0.3529807163157895
897,1747679301590,2.1774720555555556,-3.2391684166666668,3.0739891833333335,-5.175953322222223,-6.2031483666666665,0.47839215111111105
898,1747679301600,2.010536777777778,-3.0577798222222223,2.751209988888889,-3.9981860555555553,-6.984045927777777,0.6320860294444445
899,1747679301610,1.5387199571428571,-2.6543143714285717,2.170287842857143,-2.2232623,-7.7348793928571435,1.2423636928571429
900,1747679301620,1.2673824666666667,-2.3383532222222225,1.7148343777777777,-1.2844193833333335,-7.755296916666667,2.0253323833333337
901,1747679301630,1.3138532947368422,-2.1534005052631584,1.2386515263157896,-0.979944407368421,-7.457882810526316,2.606573984210526
902,1747679301640,1.4631392947368422,-2.0787960631578946,1.0014278684210527,-0.8287891231578947,-7.025049421052632,3.175312636842105
903,1747679301650,1.788309211111111,-1.9882666222222223,0.6972511788888889,-0.9474632333333334,-6.385131155555555,3.6013308388888885
904,1747679301660,2.1207151666666664,-1.9312657666666668,0.46759331666666665,-1.2450047166666667,-5.71087825,3.7697018
905,1747679301670,2.443941052631579,-1.9704861263157893,0.3041178210526316,-2.182606115789474,-4.548479315789474,3.5514628526315786
906,1747679301680,2.4119838666666666,-2.0689411944444442,0.4896940594444444,-2.7716532444444444,-4.082149333333334,3.3488634666666663
907,1747679301690,2.1838531,-2.055263863157895,0.7687770989473685,-3.3848401421052627,-3.4980734052631575,3.3271967736842107
908,1747679301700,2.1340140263157896,-1.9934788421052632,0.8704847315789473,-3.5330799578947367,-3.1557874684210523,3.5134496842105265
909,1747679301710,2.2145958,-1.5401232333333335,1.3387149666666667,-3.556634155555556,-2.767377427777778,3.7673936666666665
910,1747679301720,2.4375442526315787,-1.0997669157894738,1.6136776736842104,-3.4521760526315792,-2.6547211263157897,3.7177000526315793
911,1747679301730,2.436413852631579,-0.7492493684210527,1.7299516315789474,-3.2594193789473684,-2.696770947368421,3.350576536842105
912,1747679301740,2.2713797333333337,-0.28941124,1.8271549333333335,-3.1549114,-3.0308525,3.1715561333333335
913,1747679301750,2.2020931368421053,0.04997392789473684,1.8633610315789475,-3.0989570157894737,-3.324547552631579,3.1855727526315794
914,1747679301760,2.287487457894737,0.3495477842105263,1.8492570368421053,-3.095593005263158,-3.7857506578947366,3.3534359210526317
915,1747679301770,3.064822752631579,0.6072208684210526,1.755282152631579,-3.4161813684210522,-4.8022924736842105,3.7226339368421053
916,1747679301780,3.3989244,0.69300056,1.7458025000000001,-3.6776195789473687,-5.328196336842105,3.955366042105263
917,1747679301790,4.489860268421052,0.5727702547368421,1.9438742631578947,-4.323506,-5.966009,4.584096
918,1747679301800,7.753547394736842,0.051926393684210516,2.7664756210526313,-5.3410005,-5.590643710526316,4.382032052631579
919,1747679301810,8.996079333333334,-0.034561218222222224,4.120045466666666,-6.944172466666667,-2.7790953444444444,1.9366789111111113
920,1747679301820,8.704086789473683,0.2355088275789474,5.08029234736842,-7.328782657894737,-1.499302552631579,0.7707883431578948
921,1747679301830,8.361481789473684,0.3985904578947369,6.6843654263157894,-7.1424736736842105,-0.29673199105263154,-0.30277317684210525
922,1747679301840,7.812254588235295,-0.22431011176470586,8.1505255,-6.402336352941177,0.7132566935294118,-1.2502905294117648
923,1747679301850,5.93453261,-1.15905227,9.9552534,-2.5842230600000002,2.6136244,-3.03807866
924,1747679301860,4.994668299999999,-1.2810321,10.2854626,-0.49369642999999996,3.13858632,-3.46365153
925,1747679301870,3.2443798769230767,-1.4823005153846154,9.60617276923077,3.999429946153846,3.1102830846153844,-2.5903728307692306
926,1747679301880,2.8893328,-1.6787479,8.41247,6.873347300000001,2.9300077,-1.6732628000000003
927,1747679301890,4.413362,-1.8805289,4.79122985,9.675049683333334,3.0858319777777776,-0.46560898888888885
928,1747679301900,5.833767821052631,-1.7716179894736843,1.7351924631578945,9.453808368421054,3.797300505263158,-0.7407646947368421
929,1747679301910,6.158543631578947,-1.5689477210526317,0.17171032336842104,7.488677315789475,4.109590952631579,-2.1556030368421055
930,1747679301920,5.727745638888888,-1.3760625000000002,-0.20079810066666667,5.912834666666666,4.396165566666666,-3.2750642333333335
931,1747679301930,5.005026415789474,-1.2354370052631578,-0.18024591052631578,4.136012215789473,5.099220642105263,-4.411382736842105
932,1747679301940,4.124390763157895,-1.2553726421052631,0.04629059736842106,3.0501161105263157,5.87663907368421,-4.992007705263157
933,1747679301950,2.9920935842105263,-1.431813247368421,0.38691743736842105,2.1391474578947367,6.826854421052633,-5.274582947368421
934,1747679301960,2.7024618736842108,-1.4786465526315788,0.488291117368421,1.8576375210526315,7.2190956315789485,-5.259949505263158
935,1747679301970,2.077110288888889,-1.5397435888888888,0.7790646655555555,1.7153408333333333,7.709135333333332,-4.8267983333333335
936,1747679301980,1.6371649631578948,-1.5142532157894737,1.0419928,1.9260387210526317,7.792375368421052,-4.129144115789474
937,1747679301990,1.6034850210526315,-1.5345227315789474,1.2573284421052633,2.3477149368421055,7.6534987421052625,-3.4317327526315786
938,1747679302000,2.0091187647058826,-1.7132603705882354,1.3238993294117645,3.159399611764706,7.282800182352941,-2.7046886647058823
939,1747679302010,2.625956394736842,-2.1751859,1.185806747368421,4.257676605263158,6.5443912105263164,-2.6118162210526314
940,1747679302020,2.761343910526316,-2.4174704842105266,1.0681968789473684,4.85394402631579,6.164540473684211,-2.7788944842105265
941,1747679302030,2.7613441,-2.587848168421053,0.9427257463157894,5.303148889473684,5.867163631578948,-2.9592043789473683
942,1747679302040,2.669410222222222,-2.7359496,0.7221721533333334,5.782221694444445,5.532860944444445,-3.1570568333333338
943,1747679302050,2.5726493105263155,-2.7511353052631584,0.5956505831578948,5.973816547368421,5.422724578947369,-3.221034957894737
944,1747679302060,2.408642689473684,-2.729863694736842,0.4134554389473684,6.082641515789473,5.391663789473685,-3.226921910526316
945,1747679302070,2.224495,-2.6650730315789475,0.19847955578947368,5.949931784210526,5.521513857894737,-3.053732405263158
946,1747679302080,2.1139243052631578,-2.5896465052631576,0.07002837052631579,5.6565359105263155,5.7310342842105255,-2.7809127631578945
947,1747679302090,2.043104861111111,-2.477818361111111,0.0117215275,5.299834694444445,5.908662322222223,-2.4845794944444446
948,1747679302100,1.9920497421052632,-2.3746706210526316,0.03714487210526316,4.866390663157895,6.031999294736842,-2.1299806947368425
949,1747679302110,1.9335017842105262,-2.3030205315789476,0.13710558710526316,4.553203,6.043773,-1.8607492
950,1747679302120,1.8200537210526317,-2.1587441368421056,0.40184346,4.125135321052632,5.743368694736842,-1.1672626789473686
951,1747679302130,1.8321281736842105,-2.1127329105263155,0.5448609947368421,4.083253552631579,5.4031573368421055,-0.7845526836842105
952,1747679302140,1.855198010526316,-2.0998621052631576,0.6028438631578947,4.0923362894736846,5.248189589473684,-0.6358642921052632
953,1747679302150,1.9615897999999998,-2.080737177777778,0.6345285111111111,4.140946,5.0232506,-0.44714442
954,1747679302160,2.210339842105263,-2.045963868421053,0.5983737978947369,4.2799912631578945,4.608638905263158,-0.16053243263157896
955,1747679302170,2.6390840842105265,-2.0369467789473688,0.3208164536842105,4.235025757894737,4.221724047368421,-0.2811875452631579
956,1747679302180,2.7020594222222223,-2.0668531000000003,0.0007389488888888992,3.9628695277777783,4.235547483333333,-0.34405056277777774
957,1747679302190,2.5462653315789474,-2.0478394105263162,-0.38070681578947374,3.4294059894736844,4.461071768421053,-0.21121655052631577
958,1747679302200,2.4490535,-2.020916,-0.5214893,2.587511336842105,5.103369578947368,0.37950018210526315
959,1747679302210,2.3080653736842103,-1.9066716052631578,-0.8597783463157894,1.5603729631578946,6.081505894736843,1.274882305263158
960,1747679302220,2.554332005263158,-1.9255795947368421,-0.8668945842105265,0.7705079736842105,7.145480210526316,1.989730257894737
