id,timestamp,acc_x,acc_y,acc_z,gyro_x,gyro_y,gyro_z
0,1747679588530,-0.07596282,0.9839168,0.08621322,-0.4696481,0.08375636,-0.3534012
1,1747679588540,-0.06864110157894737,0.9839168000000001,0.1121603594736842,-0.5078854526315789,-0.08943308921052631,-0.24496860210526317
2,1747679588550,-0.039625404,0.9803372888888889,0.19088666333333332,-0.48349655,-0.21558273,-0.13395691
3,1747679588560,0.028493684,0.9517012,0.23948117,-0.36631754,-0.3476754,-0.071106344
4,1747679588570,,,,,,
5,1747679588580,0.07207146133333334,0.9724189299999999,0.2601175727777778,-0.05543809611111111,-0.542855375,-0.015771820000000002
6,1747679588590,0.21153662000000004,1.0200373,0.25949386,0.12903006,-0.511726,-0.041278966
7,1747679588600,0.299339815882353,1.0199797764705882,0.2501335464705883,0.19188060352941178,-0.32705941982352943,-0.11246364388235293
8,1747679588610,0.3423513,1.0117394,0.24680288000000003,0.2707101,-0.024900537,-0.27670223
9,1747679588620,0.15414462631578948,0.9997163000000001,0.2546641147368421,0.4016814936842105,0.023540925736842105,-0.4031882678947369
10,1747679588630,-0.04311558835294118,1.0119116411764706,0.2315852111764706,0.5476160129411765,-0.24597408470588236,-0.3527745764705883
11,1747679588640,-0.0821284787368421,1.0179306473684209,0.16531345421052632,0.6156873505263157,-0.4276823368421053,-0.26178852962105265
12,1747679588650,0.02209395966666667,1.005393871111111,0.0032337588888888885,0.7148067199999999,-0.7716503488888888,-0.003758013177777778
13,1747679588660,0.052573998777777776,0.9969332311111112,-0.10805634333333333,0.5464358633333334,-0.6012081883333332,0.018908429666666667
14,1747679588670,0.029803884315789474,0.9941415842105262,-0.12547432210526316,0.2884832142105263,-0.3189132957894737,0.04876384484210526
15,1747679588680,0.0075047607999999995,0.9927029,-0.116842404,0.12050795000000002,-0.12503532,0.08016109
16,1747679588690,0.029469912499999997,1.0161323999999998,-0.047448797,-0.08082688,0.054994237,0.12596743
17,1747679588700,0.07340022,1.0332164,0.023734568,-0.1330248,0.09867004,0.12916322
18,1747679588710,0.10422850294736842,1.0410261684210524,0.04757510610526316,-0.13840718315789474,0.10494949263157895,0.12108963684210527
19,1747679588720,0.1418989502222222,1.0580559333333335,0.0797592671111111,-0.11124607777777779,0.08292781666666667,0.05660692622222222
20,1747679588730,0.10977759421052631,1.0810001736842105,0.10848665947368422,-0.04096359315789474,0.011542692631578947,-0.03286898778947369
21,1747679588740,0.037713624777777774,1.1013083222222224,0.12962830444444445,0.06677131955555556,-0.0789922571111111,-0.0701594491111111
22,1747679588750,-0.022450054947368424,1.119381405263158,0.14054807263157895,0.1529144,-0.13338922263157896,-0.07301261231578947
23,1747679588760,-0.05486542388888889,1.1234090777777779,0.12846224555555555,0.2440785311111111,-0.1581768577777778,-0.04897253688888889
24,1747679588770,-0.06265527736842105,1.1299143789473685,0.1100537647368421,0.30726548789473684,-0.14835898505263156,-0.03242045847368421
25,1747679588780,-0.09173662631578947,1.1280646736842106,0.09618103631578948,0.3596876768421053,-0.11926046789473684,-0.01554443894736842
26,1747679588790,-0.11508905105263158,1.1096448315789473,0.07398467231578947,0.40695172631578946,-0.09739453210526315,0.02011385947368421
27,1747679588800,-0.1258532605263158,1.0881677578947369,0.05127450094736842,0.4375640442105263,-0.07508006263157896,0.06653692578947369
28,1747679588810,-0.13502468,1.053229,0.011531705,0.4613923,-0.07603319,0.14088112
29,1747679588820,-0.13079434277777777,1.0260844222222223,-0.005037070888888889,0.4671920722222222,-0.09094688444444445,0.18645072333333335
30,1747679588830,-0.10286049421052632,0.9716624736842107,-0.04182691742105263,0.4643638447368421,-0.12032573368421054,0.25508859736842104
31,1747679588840,-0.05250763305263158,0.8931018421052631,-0.07591785947368421,0.4358820578947369,-0.16697306736842105,0.31031410842105267
32,1747679588850,-0.013150189868421052,0.823840952631579,-0.09867940578947368,0.40846554105263155,-0.20218283263157896,0.33503944421052634
33,1747679588860,0.03435106,0.7242399,-0.12953338,0.35699648,-0.2486059,0.36565176
34,1747679588870,0.06471691710526316,0.60698962,-0.15465843105263155,0.27912008947368416,-0.29973855684210526,0.39172267263157895
35,1747679588880,0.070471525,0.53289896,-0.16077271,0.22809957999999997,-0.32956594,0.4050665
36,1747679588890,0.059655939842105266,0.4168048157894737,-0.13377226736842104,0.1601469805263158,-0.35524438578947365,0.4440887789473684
37,1747679588900,0.0434625295,0.3016140883333333,-0.092843446,0.12725462166666668,-0.35282420499999995,0.5231332066666667
38,1747679588910,0.030446142,0.19707623,-0.053387526,0.13435638,-0.33595753,0.61811924
39,1747679588920,0.018731393,0.043808278,-0.03142237,0.1748364,-0.333827,0.7981488
40,1747679588930,0.0034713930736842103,-0.0884450574736842,-0.04020843147368421,0.19457181052631578,-0.34190057473684216,0.9739733894736842
41,1747679588940,-0.004364128852631578,-0.24428202052631579,-0.0599128422631579,0.18778776315789472,-0.3681957442105263,1.3109891684210526
42,1747679588950,0.013721797410526315,-0.3834203484210526,-0.07450488994736842,0.1865543,-0.3711112,1.3467596
43,1747679588960,0.10677183578947369,-0.4703817968421053,-0.08534617157894737,-0.031432285789473685,-0.2576886736842105,2.2102958684210527
44,1747679588970,0.25207580526315787,-0.5217108894736843,-0.0911007894736842,-0.2334959842105263,-0.14297660105263157,2.799218405263158
45,1747679588980,0.4503016631578947,-0.546373525263158,-0.09161459157894737,-0.4321956947368421,-0.11410235368421053,3.109154210526316
46,1747679588990,0.5844046947368421,-0.5758145589473684,-0.08051640736842106,-0.5869392631578947,-0.18575535157894738,3.2477506736842106
47,1747679589000,0.6805375705263158,-0.6082612863157895,-0.05194886747368421,-0.7182470284210526,-0.32552914842105257,3.321534105263158
48,1747679589010,0.7532923389473684,-0.6521145410526316,-0.0021611914736842115,-0.8177650694736842,-0.5072406884210526,3.376142915789474
49,1747679589020,0.78165436,-0.71130484,0.03935423,-0.8701871999999999,-0.68642926,3.4400026999999995
50,1747679589030,0.8427971057894736,-0.8370842789473684,0.07429295210526315,-0.92260942,-0.8637115589473684,3.594409763157895
51,1747679589040,0.9481013400000001,-1.0705571,0.08182019,-1.0118673,-0.95061463,3.8522595999999996
52,1747679589050,1.0079670988235296,-1.3182034823529412,0.0693302105882353,-1.1331193588235295,-0.8509811623529412,4.158679423529413
53,1747679589060,1.0987117555555557,-1.6010291222222222,0.027422545,-1.3166510111111112,-0.5626219544444444,4.589777311111111
54,1747679589070,1.2176267411764705,-1.8616184470588235,0.008574304988235294,-1.5146090529411766,-0.19477875729411764,5.041657917647059
55,1747679589080,1.3105120235294117,-2.0097468764705884,0.06295600152941176,-1.6099188000000002,-0.03950091576470588,5.4485886
56,1747679589090,1.3186059578947367,-2.03584197368421,0.14237207631578946,-1.4450932368421054,-0.38316551789473685,5.789918168421052
57,1747679589100,1.4073656684210527,-1.9775252631578948,0.20968049736842106,-1.070793202631579,-1.0884821894736842,6.304159973684211
58,1747679589110,1.5889957,-1.8983994,0.20824185,-0.70187557,-1.7996298,6.7923875
59,1747679589120,2.0450955823529413,-1.7881428705882352,0.13803950294117648,-0.20057505,-2.5518313,7.4381249470588235
60,1747679589130,2.1059089,-1.773442,0.12867919,0.09707215,-2.9032428,7.801192000000001
61,1747679589140,3.02142865,-1.53152025,-0.14222436625,0.24754063124999998,-3.041727175,8.03621575
62,1747679589150,4.118893,-1.2287062,-0.46047502999999995,0.21957746,-2.8574367,8.036615
63,1747679589160,4.466484833333333,-1.0334061888888888,-0.5785715872222222,-0.13432678333333334,-2.161168472222222,7.639626777777778
64,1747679589170,4.503202277777778,-0.7311006133333334,-0.6469076133333334,-1.03814375,-1.0203894166666665,6.9587459
65,1747679589180,4.268310555555555,-0.5472170277777778,-0.5799003472222223,-1.7700982222222221,-0.5387127044444444,6.635556833333333
66,1747679589190,4.069566277777778,-0.4256222722222222,-0.39528459944444444,-2.4282537222222222,-0.6009714616666666,6.626679661111111
67,1747679589200,4.027616,-0.3871968,-0.22325136,-2.784466,-0.78869456,6.7220798
68,1747679589210,4.23237955,-0.39061363833333335,0.06571240833333333,-2.8547734166666667,-0.8552735333333333,6.713380166666667
69,1747679589220,4.455285633333333,-0.3428868772222222,0.3481408555555556,-3.2069023055555554,-1.1470373999999999,6.569273805555556
70,1747679589230,4.5078691105263164,-0.28315136947368424,0.5750213252631579,-3.1976762263157896,-1.02658477,6.285153763157895
71,1747679589240,4.4454417,-0.18511742,0.92137706,-3.0039103,-0.78336823,5.8794565
72,1747679589250,4.3151155,-0.06699371,1.2376753,-2.606567,-0.6800377,5.5598774
73,1747679589260,4.193652068421052,0.058785685789473685,1.437442647368421,-2.0878397157894737,-0.7594278684210526,5.382258452631579
74,1747679589270,4.034166863157895,0.3879033131578947,1.4640063210526315,-0.6845510831578947,-1.0449185052631578,5.137696410526315
75,1747679589280,4.015669773684211,0.6830841289473684,1.1522038315789473,0.5824399147368421,-1.3141498947368422,4.897843863157894
76,1747679589290,4.069213716666667,0.9053574727777778,0.6483583888888889,1.039830488888889,-1.3389031999999998,4.500886833333333
77,1747679589300,3.974205657894737,1.1086685789473685,0.14578888789473685,1.0351769210526316,-1.1114694631578947,3.968317394736842
78,1747679589310,3.652153189473684,1.2693096052631578,-0.2846510363157895,0.6075576884210525,-0.7519149315789474,3.4121375
79,1747679589320,3.3183856,1.3495145,-0.51807255,0.098137416,-0.4968123400000001,3.0746171
80,1747679589330,2.986030984210526,1.4013574315789474,-0.6105060052631579,-0.4759836142105263,-0.33948969921052635,2.9066979473684214
81,1747679589340,2.592379389473684,1.453637005263158,-0.527346707368421,-1.790575005263158,0.017653942631578944,2.6692563842105264
82,1747679589350,2.3812056,1.4725194,-0.26376486,-2.4766047,0.2233059,2.5185497
83,1747679589360,2.2855352,1.4959488666666667,-0.09064692566666667,-2.7658830111111112,0.3056271,2.3477523055555554
84,1747679589370,2.028375831578947,1.559814852631579,0.25738726986842103,-3.0749465105263156,0.4134274221052632,1.9225625894736844
85,1747679589380,1.7095599700000002,1.5648219349999999,0.5687632265,-3.054297155,0.470340527,1.404390346
86,1747679589390,1.30889935,1.489034,0.8667083416666667,-2.7308476666666666,0.4951256533333333,0.816968465
87,1747679589400,1.0213186,1.4691025,1.0033803,-2.340251,0.52797127,0.47430864
88,1747679589410,0.6428500126315789,1.4455189631578946,1.0772141,-1.6239453052631578,0.6738563563157896,0.13050881157894736
89,1747679589420,0.38052701210526313,1.4336757157894737,1.0758525105263157,-1.0406294,0.8145272,-0.07004108
90,1747679589430,0.17151123,1.4900916,1.0185119,-0.4426801131578948,0.8809659894736841,-0.23151263789473686
91,1747679589440,0.0247686,1.5550364421052632,0.8927324789473685,0.47165245421052626,0.8996922315789473,-0.5187974063157895
92,1747679589450,-0.07842908157894736,1.5976051894736845,0.7505883789473685,1.3834059736842104,0.9135406673684211,-0.9050956631578947
93,1747679589460,-0.14918,1.564773,0.567006,2.1796625,0.874182,-1.3249216
94,1747679589470,-0.22953905368421051,1.4612670684210525,0.37877364315789475,2.7187980789473682,0.763843052631579,-1.6586295578947368
95,1747679589480,-0.40217743052631577,1.3064577315789472,0.04341328905263158,3.360815684210526,0.4821088915789474,-2.1132168105263163
96,1747679589490,-0.517012794736842,1.2276914621052633,-0.19327085200000002,3.5825027368421054,0.01485062231578948,-2.475350363157895
97,1747679589500,-0.9662837000000001,0.9502368600000001,-1.1423709,3.2298443842105264,-0.6113561973684211,-2.7384143578947366
98,1747679589510,-1.0776251210526315,0.8456776315789474,-1.5198633210526318,2.1068320736842105,-0.8017020052631579,-2.6322245315789474
99,1747679589520,-0.9586792536842106,0.8148493368421053,-1.4904736684210527,0.8928801061052631,-0.7325159052631578,-2.4680617631578947
100,1747679589530,-0.73247683,0.7720751,-1.2399938,-0.109588996,-0.5937513,-2.364619
101,1747679589540,-0.6760096889473683,0.7659608263157895,-1.1137519837894736,-0.24123315431578946,-0.5865747894736842,-2.3754959052631577
102,1747679589550,-0.19603899,0.7139895,-0.040696546,-1.3602085,-0.52557445,-2.4679496
103,1747679589560,-0.03634419283333333,0.7520624555555556,0.2416777005555556,-1.3409745666666666,-0.5886617311111111,-2.515649705555555
104,1747679589570,0.16359864594736842,0.8082212894736842,0.5062743042105263,-1.1752450852631577,-0.7021839605263157,-2.5927535842105263
105,1747679589580,0.35406607,0.8653049500000001,0.7207621,-0.9575388400000001,-0.82491356,-2.6735454
106,1747679589590,0.9370546178947368,1.0406922263157894,0.7499718542105264,-0.3502264447368421,-0.8282775257894738,-2.945972689473684
107,1747679589600,1.4833318105263156,1.1795480210526315,0.64325461,-0.11048605736842106,-0.4804409247368422,-3.3221789210526316
108,1747679589610,1.8647804000000001,1.1972228,0.57091093,-0.16178691,-0.06751108,-3.6812849999999995
109,1747679589620,1.9052425578947367,1.173973142105263,0.604051332631579,-0.1767566794736842,0.47302609578947363,-4.332833784210527
110,1747679589630,2.0185366,1.1088741,0.69684446,-0.10532793999999998,0.6494113,-4.708199
111,1747679589640,2.0314843789473684,1.1930353736842105,0.8032020073684211,0.14585001368421052,0.47089557789473685,-4.8580086842105255
112,1747679589650,2.5100421368421055,1.3478960789473684,0.7172681947368421,0.4649805621052632,-0.02602186210526316,-4.868717563157895
113,1747679589660,3.4052956,1.4896034684210526,0.49103995263157896,0.44417988894736843,-0.2509606757894737,-4.93588512631579
114,1747679589670,4.2228613,1.5974767,0.2975668,0.11518163,-0.19747324,-5.160936
115,1747679589680,4.848701178947368,1.6079582736842106,0.19842816842105265,-0.343947,0.26804698,-5.484776
116,1747679589690,5.4548626,1.445185,0.24777912,-0.8490595,1.04835258,-5.921534333333334
117,1747679589700,5.562401842105263,1.3099002105263158,0.5586823515789474,-1.0957428,2.169430478947368,-6.378139831578947
118,1747679589710,5.703313,1.1962466,1.0053328,-0.9735178399999999,2.9897957,-6.624608
119,1747679589720,5.984005666666667,1.0420567166666668,1.0363552305555555,-0.6473104311111111,2.8977095444444445,-6.6899442222222225
120,1747679589730,6.122346578947369,0.7732825578947369,0.7477625163157895,0.5258127421052632,2.5471504736842108,-6.951812368421052
121,1747679589740,5.754950315789475,0.48955958684210527,0.2999046225263158,0.7999779578947369,2.4176928947368417,-7.298695842105263
122,1747679589750,5.101440666666666,0.33735490055555556,-0.020087267833333332,0.8163026888888889,2.752952033333333,-7.4752805
123,1747679589760,4.578209,0.35717776,-0.10122274,0.746883,3.181543,-7.394794
124,1747679589770,4.262599705882353,0.2956466523529412,-0.09100105235294118,0.7729505764705883,3.2326757999999995,-7.2454064235294116
125,1747679589780,4.09644,0.19707623,-0.08121005,0.8321041100000001,3.17355353,-7.14978337
126,1747679589790,3.8734937625,-0.08139309312500001,-0.06925124125000001,0.958337825,3.086734575,-6.842188525
127,1747679589800,3.6164605666666665,-0.39625404722222224,-0.07101388,1.1564176444444445,3.2030850444444443,-6.426587544444445
128,1747679589810,3.0736391176470588,-0.6146294582352941,-0.08439714588235295,1.4232001117647057,3.3668988823529413,-6.206147629411765
129,1747679589820,2.4490535,-0.73815113,-0.09438914,1.8142772,3.383943,-5.9556227
130,1747679589830,1.8923589166666668,-0.8452109083333333,-0.11480860333333334,2.1931558666666664,3.194681233333333,-5.597871333333333
131,1747679589840,1.4947609235294117,-0.9884390882352941,-0.17274587764705882,2.5426042352941174,2.9619106588235296,-5.190074023529412
132,1747679589850,1.186084272222222,-1.1470284333333334,-0.2671816661111111,2.746382788888889,2.759461877777778,-4.900656644444444
133,1747679589860,0.9900793,-1.2633624,-0.349673,2.880606,2.5647554,-4.664523
134,1747679589870,0.74114084,-1.4019868,-0.5151438,2.8970691818181815,2.2771341272727272,-4.436943909090909
135,1747679589880,0.6135802711111111,-1.458825111111111,-0.5984486888888889,2.8987155,2.248372,-4.414186
136,1747679589890,0.37098736444444447,-1.5710913666666668,-0.6840314555555556,2.5822138444444445,1.834931388888889,-4.133311777777777
137,1747679589900,0.10529036500000001,-1.7113701666666667,-0.6896447499999999,2.2143427555555557,1.5312128777777778,-3.804973733333333
138,1747679589910,-0.13899466133333332,-1.7609137533333334,-0.6755707966666668,1.9302488066666668,1.21570548,-3.4380496999999997
139,1747679589920,-0.3807903111111111,-1.7186646444444444,-0.6925192344444445,1.3471589944444444,0.4302629572222222,-2.6129438555555553
140,1747679589930,-0.3781057,-1.6977842000000003,-0.70355606,0.9509650684210528,0.07730871368421051,-2.1650783315789477
141,1747679589940,-0.14691924684210525,-1.7697939789473682,-0.7448916242105262,0.3753862821052632,-0.22769308736842103,-1.6294188578947368
142,1747679589950,0.0295309265625,-1.7946748874999998,-0.726222809375,-0.382629383125,-0.41152465125,-1.0653302375
143,1747679589960,0.32858132631578946,-1.7505262526315788,-0.5425296536842105,-1.036031947368421,-0.5201359863157895,-0.5841709294736842
144,1747679589970,0.5685110222222222,-1.6956147888888888,-0.31604735666666667,-1.6187716611111111,-0.4497631855555555,-0.1940851252222222
145,1747679589980,0.6646352921052632,-1.6417794894736841,-0.13181980736842105,-2.0302594,-0.1932122,0.069508456
146,1747679589990,0.63180315,-1.4859425,0.20482506000000003,-2.2156153,0.08482162,0.29854015
147,1747679590000,0.63180315,-1.4859425,0.20482506,-2.153661663157895,0.2115879984210526,0.48630689473684213
148,1747679590010,0.40775865,-1.125226,0.66999817,-1.7841834,0.27124277,0.794953
149,1747679590020,0.3377013789473684,-0.9645849284210527,0.7529519615789473,-1.2338907052631578,0.2319962042105263,1.0543167315789475
150,1747679590030,0.29562075473684213,-0.7618118431578947,0.6489064463157895,-0.23831769368421052,0.05067711684210526,1.4040034263157894
151,1747679590040,0.30784931263157894,-0.6931675631578947,0.47788657631578946,0.3836841284210526,-0.1749905789473684,1.5670448578947367
152,1747679590050,0.33122743157894735,-0.6448442015789474,0.24402835736842102,0.8113594631578948,-0.4291961368421053,1.6612366157894738
153,1747679590060,0.2961973622222222,-0.62132909,-0.007233585555555559,1.0254494,-0.653051,1.7187141
154,1747679590070,0.19766389315789473,-0.5935665,-0.23738098947368425,1.0401668473684211,-0.84891,1.8583664684210526
155,1747679590080,0.11098503,-0.5604775,-0.37261438,0.9396957,-0.8653936,1.9784609
156,1747679590090,0.029469911,-0.5380242,-0.48585695000000007,0.5285039,-0.6523408,2.366217
157,1747679590100,0.029469911,-0.5380242,-0.48585695000000007,0.26325327,-0.46698496,2.609097
158,1747679590110,-0.02833312047368421,-0.5546715,-0.47059695736842105,-0.2332716994736842,-0.13697748842105262,3.1823208315789473
159,1747679590120,0.05566539555555556,-0.5456171055555555,-0.38687819333333334,-0.5695461444444444,-0.030581944444444446,3.7624223333333333
160,1747679590130,0.21284682105263156,-0.5597324499999999,-0.27298767578947364,-0.7552508847368421,-0.04329035105263158,4.401094578947369
161,1747679590140,0.5475906231578948,-0.5245881836842106,-0.16498591368421053,-0.8426025289473684,-0.14858324789473684,5.290197305263158
162,1747679590150,1.2431024263157895,-0.3634076805263158,-0.1719736494736842,-0.8044212389473685,-0.5311811,6.255326063157895
163,1747679590160,1.861723352631579,-0.24977975736842103,-0.19928237894736842,-0.7907970684210526,-0.8776160578947368,6.8304003263157895
164,1747679590170,3.012517489473684,-0.029922699999999993,-0.20462594263157893,-0.7923669315789474,-1.1122544631578946,7.228080131578948
165,1747679590180,3.564549342105263,0.10233063684210526,-0.22004008263157898,-0.8574601373684211,-0.924375542631579,7.142130005263158
166,1747679590190,4.044982584210526,0.19196386,-0.2085822352631579,-0.9713872700000001,-0.46059336999999995,6.8541726999999995
167,1747679590200,4.0061383,0.17022994,-0.12025920999999999,-1.0693915,0.17430377,6.5590944
168,1747679590210,3.7615936,0.12288283,0.02959194,-1.0342379,0.38522595,6.522876
169,1747679590220,3.5319225684210522,0.13028161315789474,0.08508285157894736,-0.8108688894736842,0.1789012089473684,6.802759789473684
170,1747679590230,3.4789235473684212,0.14692887947368422,0.023734567263157896,-0.7689872,0.14021532,6.855238000000001
171,1747679590240,3.9691447210526314,0.12971642842105263,-0.2527951378421053,-0.5368718505263158,-0.7997957452631579,7.553153878947368
172,1747679590250,4.294614255555555,0.20271666444444444,-0.5463289177777777,-0.7136526877777778,-1.012577472222222,7.537302627777779
173,1747679590260,4.2306970368421055,0.3345189978947368,-0.6976729842105263,-1.3873447684210525,-0.8360147115789474,7.25712232631579
174,1747679590270,3.97916377368421,0.4170874042105263,-0.6050083315789474,-2.100286457894737,-0.6572746568421053,7.124300952631579
175,1747679590280,3.7540662,0.4446016363157895,-0.42111758526315785,-2.6156498105263157,-0.5780526610526315,7.0864
176,1747679590290,3.6488390000000006,0.44747895,-0.26327676,-2.9708872,-0.62144816,7.0864
177,1747679590300,3.638203178947368,0.5071317552631578,-0.07229553789473685,-3.2928208947368423,-0.7960392926315789,7.044013789473684
178,1747679590310,3.7240857526315794,0.5750823589473684,0.026534804210526317,-3.4727383789473683,-0.9982712263157895,6.951111631578947
179,1747679590320,3.8797169,0.7169182,0.21605167000000003,-3.645199,-1.2126695,6.601705
180,1747679590330,3.7332826000000003,0.8901987999999998,0.4244766,-3.713375888888889,-1.2211916333333335,6.048715133333334
181,1747679590340,3.5818386526315793,1.0031074315789474,0.5720669684210526,-3.720216105263158,-1.1810480315789473,5.580958189473685
182,1747679590350,3.448352168421053,1.0813084842105263,0.7951609789473684,-3.6101014315789475,-1.1606398210526316,5.087797284210526
183,1747679590360,3.1895487263157896,1.1292978421052633,0.9777672078947369,-3.110548815789474,-1.1287939999999999,4.207440989473684
184,1747679590370,2.3777372842105264,1.2041078684210529,1.2594864210526315,-2.3330185473684213,-1.0533845210526316,3.3621261263157893
185,1747679590380,1.8858463263157896,1.2017699736842105,1.2160698421052631,-1.7317612526315789,-1.0284910999999999,2.909052705263158
186,1747679590390,1.4079594666666668,1.1865385777777777,1.0554458933333335,-1.121234388888889,-1.0204486555555556,2.4851712
187,1747679590400,0.8561817347368421,1.1505179157894736,0.7760731236842106,-0.7122478578947369,-1.0186794578947367,2.17200252631579
188,1747679590410,0.42967241747368423,1.2040564105263158,0.6089325005263158,-0.5504399121052631,-1.015147110526316,1.986758752631579
189,1747679590420,0.039232206,1.2621421,0.5089204,-0.48988813,-0.9878989,1.8676735
190,1747679590430,-0.28682828,1.3231564,0.4937888000000001,-0.48383294894736845,-0.9132182831578948,1.7354686157894736
191,1747679590440,-0.6894970978947368,1.4541765631578947,0.5772049994736842,-0.48349655,-0.9090693599999999,1.7281239
192,1747679590450,-0.8864498199999999,1.5493160333333333,0.7552012377777778,-0.3416981016666667,-0.6895066911111111,1.6273381722222222
193,1747679590460,-0.954233325,1.6556539125,1.0623508,0.1538640175,-0.434494415,1.6074828437500002
194,1747679590470,-0.8396992777777778,1.7330639444444444,1.1503028,0.7949381777777779,-0.23558602222222222,1.6086960666666665
195,1747679590480,-0.4319781021052632,1.8702042157894736,1.0590510947368421,1.5218341789473684,-0.15312463157894737,1.5122117789473684
196,1747679590490,-0.0010243968421052574,2.0117574,0.8327200947368422,1.9800097157894738,-0.19517451526315788,1.28867462
197,1747679590500,0.4067567315789474,2.1097141052631576,0.5621248752631579,2.346909,-0.26245433,0.8993488600000001
198,1747679590510,0.8455973,2.157344,0.18432423,2.481368822222222,-0.46035664111111113,0.23557122444444445
199,1747679590520,1.0423075,2.1246405,-0.22178702000000003,2.4981763,-0.48509443,0.15259902
200,1747679590530,1.0423075,2.1246405,-0.22178702000000003,2.4981763,-0.48509443,0.15259902
201,1747679590540,0.6635820715789474,1.849497994736842,-0.7410894642105262,1.108624047368421,-0.8143169731578948,-1.7025295863157897
202,1747679590550,0.5775454073684211,1.6496536263157895,-0.7356431226315789,-0.28120857789473686,-0.5264154863157894,-2.2527102631578946
203,1747679590560,0.6587579666666667,1.4467035333333333,-0.534885328888889,-1.3514496666666667,-0.14397334555555555,-2.3963400444444445
204,1747679590570,0.8602151105263157,1.2473702,-0.13770288631578947,-2.1450275052631578,0.2764008752631579,-2.607499136842105
205,1747679590580,1.0373236,1.0906083942105262,0.2708489494736842,-2.4728482421052633,0.5653676852631578,-2.8880558210526313
206,1747679590590,1.219775705263158,0.9469485173684212,0.7691368,-2.341596689473684,0.7281287421052631,-3.292463505263158
207,1747679590600,1.3433200631578948,0.8947973673684211,1.0738744157894737,-1.850117584210526,0.7145606157894736,-3.6514014421052634
208,1747679590610,1.5802353842105263,0.8599613631578947,1.318882094736842,-1.0411900842105262,0.5983347842105262,-4.0112922736842105
209,1747679590620,1.7777419,0.8227105800000001,1.3264865263157894,-0.31625015,0.4747081,-4.2980723
210,1747679590630,1.9340926,0.784278,1.1312664,0.49548075,0.33622384,-4.6336308
211,1747679590640,2.0011474375000002,0.8124665625,0.87244363125,0.84781669375,0.2905506425,-4.76878575
212,1747679590650,2.196749652631579,0.9120098094736842,0.5135189210526315,0.9546654526315789,0.3562395652631579,-4.746492231578947
213,1747679590660,2.9840783052631576,1.1157591463157894,0.06905214342105263,0.5533974879473684,0.6328717305263158,-4.60834452631579
214,1747679590670,3.8765587176470593,1.294587305882353,-0.025019458823529413,-0.05789238164705882,0.9283851176470588,-4.5263521764705885
215,1747679590680,4.895890027777778,1.50169775,0.19750333388888888,-0.6683198,1.2331758666666666,-4.7106848333333335
216,1747679590690,5.4997687,1.5813689,0.42594093,-0.9532778000000001,1.5740602,-5.010734
217,1747679590700,6.071866488888889,1.5140633499999998,0.7541708100000001,-0.9281257616666667,2.0620100666666668,-5.553012277777778
218,1747679590710,6.232428852631578,1.3198423052631578,0.9551597684210527,-0.5171925152631579,2.4229631368421054,-6.1655356368421055
219,1747679590720,6.025391157894737,0.8710338789473685,0.8849997052631579,0.2771577747368421,2.600077257894737,-6.9336469473684215
220,1747679590730,5.665728,0.5709719,0.6675576,0.8342346,2.5157533,-7.383076
221,1747679590740,5.018035128571428,0.30899390357142853,0.3026920042857143,1.1501613428571429,2.355963614285714,-7.597650571428572
222,1747679590750,4.9682126,0.28884175,0.27462542,1.329648675,2.1685440000000002,-7.6453970625
223,1747679590760,4.201671776470588,0.18840502058823527,-0.1792349164705882,1.1451035058823529,2.179192688235294,-7.421488
224,1747679590770,3.615698542105263,0.07936356631578947,-0.47427067157894737,1.0398304,2.1908479,-7.298919999999999
225,1747679590780,3.3015455,-0.0671564208888889,-0.3922203266666667,0.27514870785,2.7101638833333332,-6.54134015
226,1747679590790,3.0585362647058822,-0.17808283647058823,-0.18477647388235297,0.0018250473764705884,3.0619829588235294,-6.158649517647058
227,1747679590800,2.7268557933333333,-0.2608402626666667,0.07117929653333332,0.0990606428,3.3024150333333333,-5.8698335733333336
228,1747679590810,2.385368882352941,-0.29617784764705885,0.2581730888235294,0.36589456117647057,3.4090708294117644,-5.624952482352941
229,1747679590820,2.156185,-0.3144678,0.34589013,0.6647392977777778,3.394003888888889,-5.420505188888889
230,1747679590830,1.746322847368421,-0.37031831684210526,0.42113686,1.4896521157894735,3.182832526315789,-4.9027497421052635
231,1747679590840,1.51498538125,-0.445282453125,0.441804629375,1.9176077,3.0217535,-4.654936
232,1747679590850,1.3859401,-0.5477865,0.43082207,2.39398041875,2.82601128125,-4.43722271875
233,1747679590860,1.2586192368421052,-0.6920114789473684,0.37867088368421054,2.9194600947368423,2.594750947368421,-4.2979040263157895
234,1747679590870,1.0026417789473683,-1.0252138894736842,0.1346907042105263,3.6886924631578943,2.068566789473684,-4.148206657894737
235,1747679590880,0.8056804472222221,-1.27575505,-0.1263606311111111,4.106842888888888,1.5057649499999999,-4.067028611111111
236,1747679590890,0.39663478210526315,-1.5512214473684212,-0.5616688331578947,4.256702510526316,0.7236994247368421,-3.9228192421052634
237,1747679590900,0.10086307931578946,-1.5503993368421054,-0.8081666599999999,3.8614335315789474,0.35096933368421057,-3.6109773894736845
238,1747679590910,-0.037401773,-1.57722,-0.92516,3.4111073,0.23076274,-3.3041816
239,1747679590920,-0.06745934489473683,-1.7168721473684212,-0.9829630684210526,2.8166901736842105,0.10360390000000001,-2.9327968842105263
240,1747679590930,-0.023092310673684214,-1.949934005263158,-1.0552296157894736,2.011294805263158,-0.10771077315789473,-2.5016453789473685
241,1747679590940,0.0006197769052631585,-2.0814422736842104,-1.1113885947368423,1.2375209336842106,-0.3015887489473684,-2.1353628842105263
242,1747679590950,0.04997072,-2.1561239,-1.1135722,0.19401114,-0.41159123,-1.6327828
243,1747679590960,0.105127655,-2.2322695,-1.0857497,-0.40147123,-0.41265652,-1.3249216
244,1747679590970,0.19754399722222224,-2.296483811111111,-0.9772798333333333,-1.2510190383333333,-0.31678277,-0.8606442416666666
245,1747679590980,0.2981897768421053,-2.2955703473684212,-0.6127924621052632,-2.2797552947368422,-0.07009013999999998,-0.23930586894736844
246,1747679590990,0.2919984289473684,-2.203368042105263,-0.15745865947368418,-3.176258789473684,0.31486250263157894,0.5296462921052632
247,1747679591000,0.25351447,-2.1087766,0.15113245,-3.3575778,0.50560075,0.9142625299999999
248,1747679591010,0.2058148422222222,-1.8586721555555554,0.6281016677777778,-3.0353947777777774,0.6452686566666667,1.4615712811111112
249,1747679591020,0.19542885,-1.6641042,0.86426777,-2.5117586,0.63236713,1.8687388
250,1747679591030,0.21109989315789476,-1.6180673157894736,0.8611849310526316,-1.4660620589473683,0.3191796066842105,2.2673716
251,1747679591040,0.34430376,-1.2267538,0.8349808,-0.56552184,-0.014247901000000002,2.5292022
252,1747679591050,0.4539240010526316,-1.0677825947368422,0.64107098,0.3155072589473685,-0.3987520105789473,2.687646157894737
253,1747679591060,0.54085121,-0.9441680633333334,0.41816361133333335,0.8916167620000001,-0.6869263726666667,2.751842206666667
254,1747679591070,0.5900051763157894,-0.8735643815789474,0.2327246342105263,1.2502480247368422,-0.8972954089473684,2.773820247368421
255,1747679591080,0.5742827557894736,-0.7524862842105263,-0.12958476263157895,1.7573696684210527,-1.2077917,2.812842652631579
256,1747679591090,0.41901239777777777,-0.6876855305555556,-0.3998403483333333,1.781254011111111,-1.1758587066666668,3.0574546666666667
257,1747679591100,0.2708553673684211,-0.6400914684210527,-0.6310068073684211,1.4809057157894736,-0.9206751168421052,3.6234522736842103
258,1747679591110,0.20806559111111111,-0.6345081666666668,-0.7388630088888889,1.10126067,-0.6793274966666667,4.150178222222221
259,1747679591120,0.2537441670588235,-0.6577270941176471,-0.7208122823529411,0.6126597723529411,-0.4565829582352941,4.900666988235294
260,1747679591130,0.446114162631579,-0.6971495105263158,-0.628078047368421,0.22916484,-0.36258912,5.6291194
261,1747679591140,0.84657353,-0.7322938,-0.5170963,-0.03322641505263158,-0.49075715368421047,6.372897968421053
262,1747679591150,1.3688560883333334,-0.7562927500000001,-0.4418453,-0.1447427,-0.84408826,7.0139623
263,1747679591160,1.8423271799999998,-0.7668034539999999,-0.3960439,-0.10399636050000001,-1.155571389,7.296470085
264,1747679591170,1.8833288,-0.767438,-0.3926271,-0.09680583,-1.210539,7.346324399999999
265,1747679591180,2.609155,-0.6458975,-0.28377756,0.2760364464705882,-1.4096806,7.705130070588234
266,1747679591190,2.6176328421052633,-0.5669000000000001,-0.3103669626315789,0.5651714178947368,-1.2996286631578948,8.40233742105263
267,1747679591200,3.2422138315789475,-0.6468480084210526,-0.3892359815789474,0.8269459536842105,-0.7437292347368422,9.822389842105263
268,1747679591210,4.47610146875,-0.77683421625,-0.6053229875,0.9249151624999999,-0.34321460937500003,10.92494475
269,1747679591220,6.000754621052632,-0.8400643421052632,-1.0360391368421054,0.6140614305263158,-0.2658743836842105,10.665013578947368
270,1747679591230,6.8635607,-0.79574865,-1.3127229,0.28242803,-0.24327959,10.054225
271,1747679591240,7.290609605263158,-0.42878929105263164,-1.4880845105263159,-0.4414466557894737,-0.22842195789473685,8.41590517894737
272,1747679591250,6.6734402500000005,-0.009721613333333339,-1.4646079166666666,-1.3190183333333334,-0.259081,6.647333833333333
273,1747679591260,5.689003642105264,0.2912566415789474,-1.2766795157894737,-2.013215,-0.11970900000000001,5.756951
274,1747679591270,5.1732206,0.3947626,-1.1487164,-2.532110710526316,0.11492932894736842,5.403732026315789
275,1747679591280,4.333663444444444,0.4884805555555556,-0.8003111911111112,-3.2454884111111113,0.49068705555555564,5.046893844444444
276,1747679591290,3.64524202631579,0.4635096936842105,-0.30430407263157894,-3.865484247368421,0.838523692631579,4.7413063157894735
277,1747679591300,3.2483407833333335,0.41892429000000003,0.07636956666666667,-4.036150766666666,0.9153721933333334,4.4672719999999995
278,1747679591310,2.7933910833333333,0.430883085,0.5128252666666666,-3.755217105555555,0.7188310277777777,4.077444672222223
279,1747679591320,2.400601589473684,0.46875050315789474,0.8429704789473684,-3.293662,0.43316284,3.6850133
280,1747679591330,2.0725375,0.5098805700000001,1.0350563421052632,-2.5256069,0.01238369,3.3569121
281,1747679591340,1.7503047684210529,0.54094002,1.0849212052631578,-1.4312447368421053,-0.4989428578947368,3.0302685263157896
282,1747679591350,1.5378978210526317,0.5750823684210526,0.9657698578947369,-0.73489875,-0.802543,2.835998
283,1747679591360,1.3403655684210527,0.6071952136842105,0.6835111842105264,-0.11553204421052632,-1.0593836631578946,2.6186843157894737
284,1747679591370,1.2141238,0.64418906,0.5138015,0.13116059,-1.1551453,2.491918
285,1747679591380,0.9874845752631579,0.7525762484210526,0.2158975415789474,0.15824070789473685,-1.108834377368421,2.346088921052632
286,1747679591390,0.73479533,0.8994730000000001,-0.09341291,-0.16924377,-0.88243777,2.2778
287,1747679591400,0.6686686884210526,1.011687905263158,-0.1107795142105263,-0.6335305115789474,-0.6368104126315789,2.255934
288,1747679591410,0.6105830842105263,1.1897212842105265,0.04341328789473684,-1.173002447368421,-0.3666819791578948,2.1848416842105265
289,1747679591420,0.6042118947368421,1.3601502789473685,0.32562053789473683,-1.9176216842105263,-0.008416982736842106,1.9269357315789477
290,1747679591430,0.5777309683333333,1.4931286666666665,0.5498406327777778,-2.0856529666666663,0.114649005,1.6792993666666667
291,1747679591440,0.46682052105263155,1.5387232,0.7189380421052631,-2.161623157894737,0.2871656457894737,1.2860395210526314
292,1747679591450,0.15375927526315789,1.583758105263158,0.904832605263158,-2.0961375842105263,0.45087984894736843,0.7554261189473683
293,1747679591460,-0.3568583517647059,1.7141647352941176,1.1320416411764704,-1.9001092470588237,0.5044101611764706,0.32028404864705884
294,1747679591470,-0.7793358,1.8259143000000002,1.3406675,-1.5050844,0.48536074,0.0034621070000000003
295,1747679591480,-1.1044201,1.8918098,1.5320083,-0.8605999000000001,0.3958786,-0.09986847
296,1747679591490,-1.1200397,1.9088936999999997,1.5671526,-0.30950348222222224,0.31917962222222224,-0.08093044333333334
297,1747679591500,-0.7773833,1.9015721,1.4255993,0.47973854777777775,0.18483803333333335,-0.10773958166666667
298,1747679591510,-0.36726439052631576,1.8624971789473685,1.1383825,0.8792560173684211,0.10909841315789474,-0.32475123999999994
299,1747679591520,0.17122864157894738,1.8010203894736843,0.6865683678947369,1.335581310526316,-0.09004981947368422,-1.0705478894736842
300,1747679591530,0.6591376,1.742935,0.36736718,1.3988243,-0.24008380000000004,-1.7158734
301,1747679591540,0.9295530300000001,1.65361,0.20531316,1.2283821,-0.36471963,-2.4658191
302,1747679591550,0.9179467566666667,1.6340854,0.176894048,1.0775881222222221,-0.34909576333333336,-2.643363011111111
303,1747679591560,0.891403047368421,1.561947142105263,0.07794096094736842,0.4837067878947368,-0.23924278784210523,-3.274690494736842
304,1747679591570,1.1843744684210527,1.4867260684210526,0.08724083105263158,0.09101696999999999,0.0996231762631579,-3.3412976105263157
305,1747679591580,1.5206597,1.4290771,0.08767757,-0.2502038,0.47896916,-3.4575794
306,1747679591590,1.9282353,1.3817302,0.097439855,-0.5846966,0.78150403,-3.6844807
307,1747679591600,2.2328186263157894,1.3188404315789473,0.11511473415789474,-0.7802565494736842,0.9232401731578946,-3.9195114368421056
308,1747679591610,2.6339946666666667,1.1881655777777778,0.20867572155555558,-0.9902069377777778,1.0160987222222222,-4.384003966666666
309,1747679591620,2.833071131578947,1.1289895157894736,0.3902828610526316,-1.026781057894737,0.9380417231578948,-4.8046894315789475
310,1747679591630,3.1090100263157896,1.1876146631578948,0.6660418684210526,-0.8586936094736841,0.81923682,-5.043476484210527
311,1747679591640,3.6527953842105263,1.4346776368421053,0.8132469105263158,-0.6070671,0.7591335,-4.95534
312,1747679591650,4.410271931578948,1.7040141736842103,0.7657199905263158,-0.3461896589473684,1.1046713789473686,-4.598476868421052
313,1747679591660,5.5576233578947365,1.8089845421052633,0.5640773042105263,-0.26820115,1.5922257894736844,-4.533887947368421
314,1747679591670,6.814315555555556,1.6036324666666666,0.4093450327777778,-0.19605288944444446,2.5630391444444443,-4.80064
315,1747679591680,7.551699768421052,1.2976717157894737,0.33335332315789473,-0.04914930368421053,3.105124410526316,-5.3054194210526315
316,1747679591690,7.633445999999999,0.7371620736842106,0.22098421157894735,0.3239172310526316,3.063467089473684,-6.56932692631579
317,1747679591700,7.1823,0.2702934,0.12184557999999998,0.57217973,2.9130967,-7.3575096
318,1747679591710,5.625165925,-0.3858545,-0.021440428150000003,0.9579116595,2.9502209600000002,-8.206844389999999
319,1747679591720,4.343534611111111,-0.4160498177777778,-0.1426582441111111,1.2283821,3.1431935,-8.363118
320,1747679591730,3.4875043526315785,-0.2781417684210526,-0.19221756631578946,1.3575032894736843,3.3260824631578947,-7.525596884210526
321,1747679591740,3.208431105263158,-0.2819953,-0.20673255315789474,1.500416852631579,3.4412992,-6.762475715789474
322,1747679591750,3.3765684800000004,-0.4229268,-0.17697812,1.68388892,3.49068264,-6.40835968
323,1747679591760,3.474860857142857,-0.5867658857142857,-0.14975526571428574,1.9976546714285714,3.5387106714285714,-6.263940535714285
324,1747679591770,3.3564324105263155,-0.7355564578947369,-0.1494176357894737,2.3580101368421054,3.4854795999999997,-6.267969289473684
325,1747679591780,3.007255341176471,-0.8735598952941176,-0.19743871999999998,2.827906835294118,3.2182633352941177,-6.275577811764706
326,1747679591790,2.5622147666666666,-0.9418576333333333,-0.31591177000000004,3.1915445333333334,2.7843180555555556,-6.173409911111111
327,1747679591800,2.1639946,-0.9597551,-0.43997422,3.3589094,2.4230752,-6.018473
328,1747679591810,1.9614542888888888,-0.9502097888888889,-0.5112660633333334,3.3680233222222222,2.2979659888888886,-5.920705633333333
329,1747679591820,1.6344478823529414,-0.9315019117647059,-0.6241082294117647,3.3033903764705883,1.906485094117647,-5.540859141176471
330,1747679591830,1.2320755944444446,-0.9216821444444443,-0.8141952983333334,2.785738322222222,1.4223785166666667,-4.926518844444444
331,1747679591840,1.0287943631578946,-0.9693375973684212,-0.9230020400000001,2.2647714736842106,1.237717257894737,-4.5866466263157895
332,1747679591850,0.8642271066666667,-1.0998439000000002,-1.0042345750000001,1.6662055,1.1586074,-4.2778325
333,1747679591860,0.7264974357894737,-1.214242557894737,-1.0418707631578947,0.7652167361052632,1.1419556157894737,-3.900953378947369
334,1747679591870,0.5888234631578948,-1.3528157526315787,-0.9739714484210527,-0.09254478031578947,1.221738294736842,-3.559059842105263
335,1747679591880,0.4741422,-1.4420123,-0.78653544,-0.8978841,1.4568812,-3.238135
336,1747679591890,0.27720087473684213,-1.5127374,-0.4115865205263158,-1.4624739,1.7317193,-2.914295
337,1747679591900,0.1571760747368421,-1.5649657052631578,-0.15137008421052633,-1.6213102789473683,1.8478889842105264,-2.590398731578947
338,1747679591910,0.04850638,-1.6167572,0.11452385999999999,-1.5104107,1.7114792,-2.3198779
339,1747679591920,0.012694188052631578,-1.6307327210526317,0.26869097263157893,-1.1329709736842106,1.2613772631578948,-2.016109521052632
340,1747679591930,0.0462013925,-1.632024311111111,0.3305416394444445,-0.7234767333333334,0.7916832,-1.8030474666666667
341,1747679591940,0.07848688357894737,-1.6712975789473683,0.27711736315789476,-0.032890003157894754,0.07635556715789472,-1.5022039947368422
342,1747679591950,0.034993316315789474,-1.7211109263157895,0.07873736263157895,0.5370260115789474,-0.5309568421052632,-1.1483682315789474
343,1747679591960,-0.035998442500000005,-1.6680093375,-0.091826538125,0.7048715937500001,-0.7843669125,-0.6979474168750001
344,1747679591970,-0.058460428571428566,-1.5194133,-0.3049756771428571,0.5863325,-0.8133478,-0.11447779857142858
345,1747679591980,0.004297149999999999,-1.396303757142857,-0.4706556828571428,0.19142406714285715,-0.6460253285714286,0.46281900928571423
346,1747679591990,0.08426076125,-1.2705009875,-0.5153878762499999,-0.4155859875,-0.307328565,0.98443675
347,1747679592000,0.12128966777777778,-1.1861860444444443,-0.4611800455555556,-0.8082835888888888,-0.07970243555555555,1.262603711111111
348,1747679592010,0.14905797,-1.099844,-0.31062385,-1.1908315,0.1380848,1.5438334000000002
349,1747679592020,0.16467762,-1.0500563,-0.19201203999999997,-1.3484906,0.20306589,1.7004270000000001
350,1747679592030,0.21397719,-0.9407187,0.012019819999999999,-1.439038,0.17856482,1.9699388
351,1747679592040,0.27461825352941177,-0.8529729117647059,0.14708397058823527,-1.3257440705882353,0.056247483529411765,2.1283497176470587
352,1747679592050,0.35245815764705885,-0.7703954017647059,0.3096835164705882,-0.9853610323529411,-0.09815308,2.2814971235294115
353,1747679592060,0.39506766,-0.73766303,0.40397575,-0.5302497933333333,-0.24943444111111113,2.4171128444444445
354,1747679592070,0.42712052,-0.6917259955555556,0.4226325799999999,0.1892174488888889,-0.5085894027777778,2.6250167555555555
355,1747679592080,0.46486804000000004,-0.65614796,0.3883561,0.7468829666666666,-0.7553163,2.8104318
356,1747679592090,0.47265074388888884,-0.6087194533333333,0.19850667166666666,1.2875042944444446,-1.0081388666666666,3.068344027777778
357,1747679592100,0.4683619168421053,-0.5665146578947369,0.022784032631578945,1.5882730421052633,-1.1544724263157895,3.4082129736842104
358,1747679592110,0.5309357882352941,-0.500697794117647,-0.17891908,1.6982260470588235,-1.176325223529412,3.822181788235294
359,1747679592120,0.6752454,-0.4199005,-0.34332752,1.6026261000000002,-1.0460397631578946,4.3892088
360,1747679592130,0.8392518,-0.37258209999999997,-0.43382973176470585,1.3977591,-0.8845683,4.850412
361,1747679592140,1.2059885555555556,-0.34608673333333334,-0.5438883277777777,1.112327561111111,-0.7260807499999999,5.287406638888889
362,1747679592150,1.7415957578947368,-0.3476852357894737,-0.5936018552631579,0.6476452526315789,-0.5785012105263158,5.929804
363,1747679592160,2.306626736842105,-0.2875444005263158,-0.4939750721052631,0.1504474689473684,-0.5844442684210526,6.665733089473684
364,1747679592170,3.122240478947368,-0.11033314157894737,-0.34959596315789476,-0.23887836157894735,-0.62032686,7.265812800000001
365,1747679592180,3.7519396222222223,0.04538109,-0.2675613311111111,-0.4650319666666667,-0.5619709666666668,7.51126275
366,1747679592190,4.155861694736842,0.1834347036842105,-0.16236549469473682,-0.5726983589473683,-0.43598017684210527,7.523045789473684
367,1747679592200,4.430038866666667,0.3871697033333333,0.0250362048,-0.570966528888889,-0.31867658444444447,7.453916022222223
368,1747679592210,4.5126985263157895,0.5322824252631578,0.12207678726315789,-0.47817022000000003,-0.35513225,7.468829599999999
369,1747679592220,4.647213210526315,0.7634431536842105,0.12924436105263157,-0.2859742289473684,-0.4725355278947369,7.479482368421053
370,1747679592230,4.810551,0.9390102600000001,-0.07340022,0.010785795,-0.71945244,7.4155664
371,1747679592240,4.852529,0.9897742000000002,-0.23740669000000003,0.045939494,-0.9026778000000001,7.176947599999999
372,1747679592250,4.662627021052631,1.0797927263157896,-0.5033520121052631,-0.1780461927368421,-1.0589911894736843,6.701335378947369
373,1747679592260,4.169605457894736,1.189644242105263,-0.7046864021052631,-0.7853586052631579,-1.0282667589473684,6.323278894736842
374,1747679592270,3.6303420210526314,1.2181347315789475,-0.7237742105263159,-1.532500905263158,-0.9036869831578948,6.096489763157894
375,1747679592280,3.2738385631578946,1.1549624157894738,-0.5801914947368421,-2.232771657894737,-0.75572745,5.978189463157896
376,1747679592290,3.095239915789474,1.0999853894736844,-0.45788028736842107,-2.592438294736842,-0.6803740947368421,5.887305710526316
377,1747679592300,2.744773789473684,0.9850985631578947,-0.1242411894736842,-3.0789834210526315,-0.6072633736842105,5.610673657894736
378,1747679592310,2.441628842105263,0.9072057589473684,0.1857372,-3.188481210526316,-0.6003671899999999,5.376035115789474
379,1747679592320,2.294809,0.87946033,0.3649266,-3.1348815631578946,-0.6152808642105263,5.1824375736842105
380,1747679592330,2.202170468421053,0.8664866684210526,0.5416497368421053,-2.9612997,-0.65766716,4.9271107
381,1747679592340,2.0282989,0.8350419,0.6914752,-2.5873923,-0.7524756,4.4328284
382,1747679592350,1.7915632,0.8174698,0.74712026,-2.1282637,-0.84408826,3.8629122
383,1747679592360,1.4621116631578945,0.8185487578947368,0.7676210789473684,-1.6996912789473686,-0.9312156315789473,3.420996010526315
384,1747679592370,1.0667132563157893,0.8266668494736842,0.7502544615789474,-1.2313676757894738,-1.0397043236842105,3.01473807368421
385,1747679592380,0.6573478666666667,0.8207238566666667,0.6768317716666666,-0.6411555722222222,-1.1269749888888887,2.5971422666666673
386,1747679592390,0.4677967,0.79794514,0.62069863,-0.35140383,-1.0890989,2.407762
387,1747679592400,0.253666985,0.7795188375000001,0.555443785625,-0.35140383,-1.0890989,2.407762
388,1747679592410,0.009317756785714285,0.7850798785714286,0.4564480692857143,0.12446464,-0.8544365285714285,2.155066292857143
389,1747679592420,-0.06912921,0.80233824,0.40153518,0.23449115,-0.7609977,2.0871177
390,1747679592430,-0.09796551830769232,0.8131518092307691,0.33395011846153844,0.2816905376923077,-0.6233328692307692,1.9386364384615384
391,1747679592440,-0.10378534,0.83016074,0.26095822,0.2761548244444445,-0.5380025511111111,1.812634911111111
392,1747679592450,-0.20092013,0.8677455,0.18432423,0.18761955,-0.38282913,1.4724606
393,1747679592460,-0.2989497716666667,0.8966256666666665,0.19978119666666666,0.12281602500000001,-0.33222910499999997,1.2895904333333332
394,1747679592470,-0.4703849894736842,0.9532683263157894,0.272621587368421,0.08798937789473685,-0.27669523421052633,1.0545409
395,1747679592480,-0.5580400947368421,1.0072948842105263,0.31642344210526313,0.12964679736842105,-0.2442327163157895,0.9226724842105263
396,1747679592490,-0.61972237,1.1562212,0.35418808,0.27816698,-0.25819328,0.8482161999999999
397,1747679592500,-0.3904370184210526,1.2800738157894738,0.3358452384210526,0.40078441210526317,-0.38350193157894735,0.8808469078947369
398,1747679592510,-0.14137016,1.3646461,0.29415,0.46884915000000005,-0.48189864,0.86312985
399,1747679592520,0.41723835263157893,1.5367193368421053,0.13068301968421053,0.42416414578947365,-0.6074315894736843,0.6741857431578948
400,1747679592530,0.9129315,1.6739566263157897,0.002976856,0.15672691,-0.6619282,0.18775272
401,1747679592540,1.3341999,1.7766147000000003,-0.09829406,-0.1249512289473684,-0.582986557894737,-0.2670588
402,1747679592550,1.5472490473684208,1.8329533947368422,-0.09169166236842105,-0.7286753778947368,-0.23363613947368422,-1.156778232631579
403,1747679592560,1.5689831,1.8190807,-0.007992875,-1.0622710905263157,0.03828641526315789,-1.6088425157894737
404,1747679592570,1.5786168894736843,1.7601216210526316,0.1877667210526316,-1.4370196526315788,0.44830079368421055,-2.134466031578947
405,1747679592580,1.7179606578947368,1.6087804368421053,0.4749322021052631,-1.5814469578947368,0.8461486905263159,-2.7180062421052633
406,1747679592590,1.9227889842105264,1.4131493105263158,0.7195289631578947,-1.3812335,1.0102553578947369,-3.275195147368421
407,1747679592600,2.069916989473684,1.2610117157894736,0.8384490894736842,-0.9450360578947369,0.9665795763157895,-3.831094489473684
408,1747679592610,2.143494,1.197711,0.8335165,-0.5807158842105263,0.8555678731578947,-4.1817905263157895
409,1747679592620,2.143494,1.197711,0.8335165,-0.22996379999999997,0.71652293,-4.5047336
410,1747679592630,2.3812311263157895,1.172894094736842,0.5020610694736842,0.023344694368421053,0.6522707489473685,-4.76460182631579
411,1747679592640,2.6536248263157893,1.2359380157894737,0.27421437789473685,-0.03687073768421052,0.7900822315789474,-4.831040752631579
412,1747679592650,2.957858638888889,1.2948727944444445,0.15254255777777778,-0.20013641,0.9721862,-4.8498793
413,1747679592660,3.4783584000000003,1.3365666947368422,0.10260358778947369,-0.5633913,1.4409022,-4.965993
414,1747679592670,3.8548234,1.334383,0.10915460400000002,-0.7295724,1.7125444000000003,-5.091694
415,1747679592680,4.349154557894737,1.315886010526316,0.17065702863157894,-0.9616878,2.121269263157895,-5.398489789473684
416,1747679592690,4.673960716666667,1.283510588888889,0.2556703072222222,-1.068385438888889,2.3996987444444446,-5.842823283333334
417,1747679592700,4.8203133578947375,1.1214365736842105,0.3894864473684211,-1.0608695,2.6126924,-6.202764
418,1747679592710,4.661432361111111,0.8363163611111111,0.5520100555555556,-0.7721829755555556,3.089811888888889,-6.706041733333333
419,1747679592720,4.483848478947369,0.6895580126315789,0.6546353694736842,-0.36542047578947373,3.3460983368421053,-6.931460215789474
420,1747679592730,4.353855784210526,0.6453194505263158,0.7058874184210526,0.4064471394736842,3.2592512894736845,-6.9832096
421,1747679592740,4.382757494736842,0.6544138263157894,0.6410195273684212,1.0741992736842105,2.916796905263158,-6.934543747368421
422,1747679592750,4.521947105263158,0.6606565847368421,0.27801651947368416,1.8818933157894735,2.2517361157894737,-6.8733192315789475
423,1747679592760,4.581137,0.64955837,-0.04753015,2.184989,1.9000309,-6.8504442999999995
424,1747679592770,4.6016383,0.6388198,-0.21202473000000002,2.2158816,1.8052224,-6.8557706
425,1747679592780,4.634830352631579,0.5514730305263157,-0.5649058089473684,2.028114810526316,1.7861597631578947,-6.963474278947368
426,1747679592790,4.505479894736842,0.3718725968421053,-0.7580449989473684,1.6831375789473684,1.9603023315789472,-7.156174842105263
427,1747679592800,4.129170555555556,0.14989182444444443,-0.8340181566666667,1.2109828499999997,2.2563614833333334,-7.339281622222223
428,1747679592810,3.4284678894736844,-0.03385331042105263,-0.6540766484210527,0.7058983505263158,2.5461412736842104,-7.281090831578948
429,1747679592820,3.0135192578947367,-0.13273503052631577,-0.49230519473684214,0.5057409242105264,2.6362962000000003,-7.0945577
430,1747679592830,2.631582589473684,-0.3000555357894737,-0.26795238157894735,0.4952004094736842,2.671562115789474,-6.734105957894737
431,1747679592840,2.3413342631578944,-0.4821993,-0.11047122263157894,0.6722584315789474,2.6370251052631577,-6.317363657894737
432,1747679592850,2.0421971736842104,-0.6696609421052632,-0.057883312631578955,0.9042616631578947,2.514575852631579,-5.9359992473684215
433,1747679592860,1.7745819947368422,-0.8365960831578947,-0.09053560289473685,1.1455158842105264,2.2974862157894735,-5.537815110526315
434,1747679592870,1.4684315,-0.98464894,-0.11586617999999999,1.292298,2.1535635,-5.2642665
435,1747679592880,1.1389542,-1.0622592,-0.13441454,1.3476917,2.0832562,-5.019256
436,1747679592890,0.9647743578947369,-1.1065748052631579,-0.11514685526315789,1.3418047526315788,2.1572639105263156,-4.692107894736843
437,1747679592900,0.82409464,-1.1845703,-0.06289291200000001,1.3394498684210525,2.3614582894736844,-4.348196084210526
438,1747679592910,0.8353469410526316,-1.3197523631578947,-0.014826478368421053,1.3869382157894736,2.5396936368421055,-4.015665547368421
439,1747679592920,1.164952652631579,-1.6017541368421053,-0.020144357578947367,1.5695469210526316,2.5682875052631577,-3.5331010684210526
440,1747679592930,1.6329517578947368,-1.8542633789473684,-0.16657871631578947,1.7347747789473682,2.2288047947368423,-3.4098669263157895
441,1747679592940,1.9450880789473686,-2.085989347368421,-0.39542735,1.7833844,1.7636770999999998,-3.5928679000000003
442,1747679592950,1.85453,-2.2146974,-0.5395496,1.665909661111111,1.1229210133333334,-4.019092
443,1747679592960,1.37455075,-2.1337519,-0.5899881,1.4254559,0.64301974,-4.202199
444,1747679592970,1.2785549,-2.1175628,-0.6000758,1.4254559,0.64301974,-4.202199
445,1747679592980,0.29795857931578945,-1.7154334315789475,-0.6082709684210527,0.7330345221052631,0.24163963694736842,-3.443002194736842
446,1747679592990,-0.046187833,-1.474716,-0.6386368,0.16844481,0.113583736,-2.6703496
447,1747679593000,-0.033702379315789475,-1.3734449684210528,-0.5836082894736843,-0.5107448415789474,0.2982668282105263,-1.867028642105263
448,1747679593010,-0.019341536263157894,-1.3530726736842105,-0.49459162894736847,-0.941223547368421,0.5372783421052632,-1.441427805263158
449,1747679593020,-0.13032335863157893,-1.2767726473684209,-0.3145030894736842,-1.3851580631578948,0.7866621473684211,-0.9470894605263157
450,1747679593030,-0.33322485526315787,-1.1938959631578947,-0.15239769473684212,-1.5556002736842105,0.7840830736842106,-0.5954403342105262
451,1747679593040,-0.4902093333333333,-1.1367780222222221,-0.023666773555555555,-1.5100555833333333,0.5144779216666667,-0.23551204666666667
452,1747679593050,-0.5650792473684211,-1.075643789473684,0.07411312452631579,-1.2812108421052633,-0.027872062105263155,0.24852880157894738
453,1747679593060,-0.5257731968421053,-1.020358410526316,0.11629649,-1.045955694736842,-0.48223504421052626,0.6247350742105263
454,1747679593070,-0.4679187622222222,-0.9661548555555556,0.13713982777777778,-0.7409352411111111,-0.9352274777777778,1.0565344333333333
455,1747679593080,-0.4513485605263158,-0.8873600136842105,0.14943688421052634,-0.47390917,-1.2041473,1.4532859
456,1747679593090,-0.43423885,-0.79672486,0.13648902,-0.27509730368421054,-1.3353430473684211,1.820633689473684
457,1747679593100,-0.361175817368421,-0.6797315294736842,0.10134477789473684,-0.06524039052631579,-1.440523752631579,2.324447152631579
458,1747679593110,-0.23688647052631578,-0.5747355210526316,0.03557776505263158,0.1279648,-1.550358,2.9308066
459,1747679593120,-0.17302053210526316,-0.5394114473684212,-0.02587328,0.18918941578947368,-1.5872498421052632,3.298939252631579
460,1747679593130,-0.10972885452941177,-0.5112065905882353,-0.09611190235294118,0.20798488823529412,-1.6132713235294118,3.7845839647058823
461,1747679593140,0.011358295631578945,-0.48168551473684207,-0.1883383310526316,0.13065598936842104,-1.5809703842105263,4.733400905263157
462,1747679593150,0.10058048526315788,-0.45270694210526313,-0.2003099852631579,0.039996445368421056,-1.4528023789473685,5.442530089473684
463,1747679593160,0.26376486,-0.3959829,-0.23154932,-0.07123951,-1.307478,6.1745343
464,1747679593170,0.6517388210526316,-0.34280411684210527,-0.29443898947368424,-0.27005132894736844,-1.179309947368421,6.998039131578946
465,1747679593180,1.3492772666666666,-0.33079247333333334,-0.33882601333333334,-0.5238581972222223,-1.1131264722222223,7.689812549999999
466,1747679593190,1.7330151684210526,-0.3211986163157895,-0.3513171768421053,-0.6533219989473684,-1.1304198736842104,7.948030210526316
467,1747679593200,2.3221438,-0.25784647,-0.38091236,-0.8147935,-1.3181306,8.155925
468,1747679593210,2.6882296,-0.2519891,-0.38823408,-0.8662626105263157,-1.6088354315789473,8.244565684210526
469,1747679593220,2.90199315,-0.161047280625,-0.39494563375,-0.877444370625,-1.96088409375,8.478366875
470,1747679593230,3.4628671285714283,-0.004793985142857144,-0.4479932428571428,-0.9322768857142857,-2.166993535714286,8.978384357142858
471,1747679593240,4.1141950000000005,0.050580863749999996,-0.54552897875,-1.0784462375000001,-2.062483575,9.42598525
472,1747679593250,4.439898321428571,0.084635565,-0.6261898828571428,-1.2593128285714286,-1.9231242999999998,9.555757357142857
473,1747679593260,4.7470965,0.20390983,-0.7094134,-1.5221286,-1.836914,9.665403
474,1747679593270,5.216890666666667,0.3387595813333333,-0.7074283973333333,-2.0781251933333333,-1.7860654066666666,9.357896866666666
475,1747679593280,5.39336,0.41428718,-0.67378104,-2.4148195,-1.7165391,8.975113
476,1747679593290,5.30989244375,0.46929158375,-0.61712925375,-2.6161543375000003,-1.62585856875,8.72723940625
477,1747679593300,4.918750141666666,0.7079694083333333,-0.3489815316666667,-3.517189875,-1.217907125,7.608912041666667
478,1747679593310,4.594805,0.7115489000000002,-0.0997584,-3.8316202,-1.0528799,7.122619
479,1747679593320,4.0637362,0.6976647222222223,0.22651902222222223,-4.0437258,-0.9458801044444445,6.606558022222222
480,1747679593330,3.52056242,0.67718562,0.547286164,-4.0357246,-0.9829985920000001,6.26465558
481,1747679593340,2.474826,0.5862987040000001,1.1363427799999999,-3.40167976,-1.23567922,5.8764736
482,1747679593350,2.1935444384615383,0.5443133630769231,1.2516429384615386,-2.9831786,-1.326898546153846,5.834059907692308
483,1747679593360,1.88801466,0.48076834,1.26022626,-2.1891967,-1.3837508399999998,5.78422178
484,1747679593370,1.7544665,0.4284425,1.1864233,-1.6446339,-1.343697,5.7186017
485,1747679593380,1.7544665,0.4284425,1.1864233,-1.6446339,-1.343697,5.7186017
486,1747679593390,2.1246743111111113,0.47264400222222225,0.8125818333333333,-1.6446339,-1.343697,5.7186017
487,1747679593400,2.3304417,0.50556463,0.60703135,-1.6446339,-1.343697,5.7186017
488,1747679593410,2.1259217,0.579758,0.44058433,-0.15219954,-1.731453,3.0969877
489,1747679593420,1.6675822,0.6602969,0.41861922,0.0075900033,-2.2321267,2.0711389
490,1747679593430,1.2250250666666667,0.7227755666666668,0.47263720666666664,0.07843003664999999,-2.4036342,1.77659345
491,1747679593440,0.5032281205882354,0.807420345882353,0.5785197470588235,0.2658224388235294,-2.6460130470588235,1.4199494705882352
492,1747679593450,-0.21103106714285716,0.9457044,0.6641408,0.521351425,-2.556423457142857,1.6604036071428572
493,1747679593460,-0.35711676,1.0185729,0.6128888,0.5966808,-2.3940468,1.966743
494,1747679593470,-0.21302536,1.15134008,0.24328845699999996,0.25856612,-2.03569222,2.2558555799999995
495,1747679593480,-0.04216089374999999,1.20661905,-0.027883540000000002,-0.36471963999999996,-1.69869605,2.21734625
496,1747679593490,0.087067425,1.2597015,-0.16077271,-1.0534126,-1.3543496,2.0615516
497,1747679593500,0.11715825205882353,1.2977744529411763,-0.09654258294117646,-1.7876925411764706,-0.9659669941176472,1.819172717647059
498,1747679593510,0.08758425117647059,1.300731905882353,0.17901240588235295,-2.6918506882352946,-0.4409173177647059,1.493891217647059
499,1747679593520,0.03337483,1.2465224,0.7344293,-3.3405337,0.044341598,1.1720563
500,1747679593530,0.06634966999999999,1.2664808,1.2498781,-3.3632591222222223,0.274438542,1.0101362466666666
501,1747679593540,0.2947872616666667,1.3747338000000002,1.830408977777778,-2.671192955555556,0.3377033705555556,0.8070851622222223
502,1747679593550,0.9061235515789473,1.5511829,2.5175884684210525,-1.5599174531578948,0.32187082842105263,0.4945486648421053
503,1747679593560,1.4203792888888889,1.5964733666666668,2.5970198611111113,0.275089555,0.28195458,-0.3299654215555556
504,1747679593570,1.672514763157895,1.5414462894736842,2.338938684210526,1.5690422789473684,0.3427836052631579,-1.1544795
505,1747679593580,1.7287763157894738,1.4413828157894735,1.8445301578947368,2.6617784631578947,0.4652889421052631,-2.0540666315789475
506,1747679593590,1.7012363210526316,1.3441965999999999,1.3494021631578945,3.315850336842105,0.5784311789473684,-2.748394294736842
507,1747679593600,1.6743130052631578,1.282129094736842,0.9093284157894735,3.5862030736842105,0.672959294736842,-3.1813397684210525
508,1747679593610,1.7115639,1.248705989473684,0.4381180557894737,3.471378831578947,0.8197414000000001,-3.4738946894736844
509,1747679593620,1.8945553,1.2133306,-0.12221167,2.986067,1.0179926,-3.6972637
510,1747679593630,2.1308542789473686,1.183273063157895,-0.37931954894736836,2.4046574263157896,1.1952748631578947,-3.8526241052631582
511,1747679593640,2.3947644,1.1278021333333335,-0.5090153022222221,1.5219213666666667,1.5020956888888888,-4.102892466666667
512,1747679593650,2.6726912333333335,1.1009016333333332,-0.3891289416666667,0.472755115,1.901628833333333,-4.364651383333333
513,1747679593660,3.0188886578947365,1.1258553842105261,-0.08452408526315788,-0.25693178263157895,2.227403315789474,-4.507368936842106
514,1747679593670,3.440773521052632,1.1822967736842105,0.17538403157894739,-0.4939249236842105,2.3745218210526318,-4.551941615789473
515,1747679593680,3.8435967000000004,1.2416413,0.3512594,-0.5090629,2.4720774,-4.5771713
516,1747679593690,4.452147178947368,1.3712228473684211,0.5190936994736842,-0.29410389389473685,2.557410710526316,-4.616081610526315
517,1747679593700,5.370419,1.4935083,0.58799493,0.10755658884210527,2.5925643684210526,-4.673549668421052
518,1747679593710,5.957077855555556,1.448547611111111,0.5124998577777777,0.34575202222222223,2.5335076333333335,-4.8714211222222215
519,1747679593720,7.1866927,1.1122909,0.166264,0.8949546,2.1983047,-5.7681365
520,1747679593730,7.382760352631578,0.8052411684210526,-0.07697115957894737,1.0110123473684212,2.0227043736842107,-6.267688700000001
521,1747679593740,6.957124768421052,0.04414224724210527,-0.6227345381052632,0.9054390842105263,1.681932210526316,-7.585195978947369
522,1747679593750,5.660024684210526,-0.33573928784210527,-0.7809093368421053,0.5844582978947369,1.8487860526315791,-8.378200473684212
523,1747679593760,4.242566,-0.43580272684210525,-0.7567605105263159,0.03388519105263159,2.194155736842105,-8.625733894736841
524,1747679593770,3.6356598526315795,-0.40235407736842105,-0.5878471994736842,-0.33654622526315786,2.4517252631578947,-8.282046342105263
525,1747679593780,3.223074589473684,-0.4256808078947369,-0.3637769584210526,-0.4364567315789473,2.5595972631578947,-7.871639447368421
526,1747679593790,3.0596848,-0.4565091,-0.22081079,-0.4078628,2.652107,-7.586541
527,1747679593800,2.8888447,-0.45016359999999994,-0.062173583,-0.1613944542105263,2.7487095999999998,-7.196374584210527
528,1747679593810,2.8551390789473685,-0.48130016842105267,-0.00041425394736842097,0.16536115105263158,2.7622777263157894,-6.8471921947368415
529,1747679593820,2.719186263157895,-0.6254223994736843,0.23380363368421053,0.6026799094736842,2.699034536842105,-6.414583147368421
530,1747679593830,2.668217,-0.77134293,0.24777912,1.0153294,2.608431,-6.004625
531,1747679593840,2.5725465,-0.8870261,0.24289796999999996,1.393498,2.5572984,-5.766006
532,1747679593850,2.3089647315789477,-0.9258697684210526,0.21006585631578947,1.7702649894736842,2.4918129263157893,-5.635931642105263
533,1747679593860,2.0205660578947366,-0.9366596342105263,0.15799174894736842,2.1046455578947367,2.4021625684210526,-5.487747731578947
534,1747679593870,1.6593129117647059,-0.9706946352941176,0.0968081811764706,2.393216588235294,2.293739764705882,-5.273916764705882
535,1747679593880,1.2568723368421053,-1.0846610421052632,-0.025359476684210527,2.648042052631579,1.9730855,-4.846739210526316
536,1747679593890,1.1720431421052633,-1.1807682210526316,-0.14407406284210528,2.6439494210526315,1.794121210526316,-4.6830813052631575
537,1747679593900,1.1064945000000002,-1.3105466833333332,-0.25221282833333336,2.5251631666666667,1.7377556666666667,-4.638957066666666
538,1747679593910,0.9963476515789473,-1.4792887631578948,-0.30137537736842107,2.324930894736842,1.7247670052631578,-4.672652784210526
539,1747679593920,0.91002846,-1.6807003,-0.25985995,2.1840919315789473,1.6768861421052632,-4.713413157894737
540,1747679593930,0.8194189610526316,-2.177934715789474,-0.22291738684210524,2.1674961736842104,1.2830749210526315,-4.749632052631579
541,1747679593940,0.5161201,-2.5895693,-0.2715747,2.1658142,0.918923,-4.677306
542,1747679593950,0.25061148,-2.5975846210526314,-0.29628871263157897,2.144789252631579,0.6615777894736843,-4.425847815789474
543,1747679593960,-0.2580038410526316,-2.4091211,-0.45662146105263157,2.0105098684210527,0.11066827842105263,-3.718288668421053
544,1747679593970,-0.3565772852631579,-2.157356847368421,-0.8638374089473684,1.1697926421052631,-0.487168892631579,-2.3905776894736843
545,1747679593980,-0.2645548595263158,-2.061506536842105,-1.011350752631579,0.3315422657894737,-0.5361149747368422,-1.558550807368421
546,1747679593990,-0.0032080697894736844,-1.9624708684210526,-0.9503108057894737,-0.9731253605263158,0.07601917894736843,-0.7767594157894737
547,1747679594000,0.14245556736842105,-1.8696520157894738,-0.6422591305263158,-1.9425152842105262,0.6616338526315788,-0.3335536697368421
548,1747679594010,0.11848657842105263,-1.763962384210526,-0.27648152881578947,-2.4539539263157892,0.9419663578947369,-0.059500580789473685
549,1747679594020,0.03905237352631579,-1.6433980789473683,0.047986153368421054,-2.5600316947368422,0.9482458,0.21881356578947367
550,1747679594030,-0.037401773,-1.4991217,0.32831803,-2.3775353,0.7825693,0.4551339
551,1747679594040,-0.10902614736842106,-1.2567856578947367,0.5960102947368421,-1.5903615210526316,0.3411016184210527,0.8744552810526315
552,1747679594050,-0.12233370000000002,-1.1413337,0.66902196,-1.0118673,0.07736477,1.1358373
553,1747679594060,-0.047112683578947365,-1.0097996789473684,0.6497028778947369,-0.44312864736842106,-0.17291612263157896,1.3618975105263158
554,1747679594070,0.08496082536842105,-0.9034678210526316,0.4851055336842105,0.3636684,-0.575641854736842,1.619579194736842
555,1747679594080,0.19347638,-0.7933081,0.20580128,1.1139503894736842,-0.9507828578947368,1.8407616
556,1747679594090,0.10294398947368422,-0.687464352631579,-0.012154695052631581,1.4306701315789474,-1.0226041131578947,2.0757362842105263
557,1747679594100,0.023124425,-0.6014791,-0.15979649,1.5266559,-0.9804420499999998,2.3331938
558,1747679594110,-0.053740766578947365,-0.5246139210526316,-0.28845318894736843,1.4761960263157896,-0.758418662631579,2.7318265368421053
559,1747679594120,-0.08641874315789475,-0.46768434210526316,-0.37176662368421054,1.3709031210526317,-0.5528788436842106,3.109210252631579
560,1747679594130,-0.008012144210526316,-0.34714574210526317,-0.5106223831578948,1.0957287368421054,-0.15256397884210526,4.005096947368421
561,1747679594140,0.19298826,-0.2715137,-0.601052,0.8427566833333333,-0.149181295,4.712105083333333
562,1747679594150,0.5669382261111111,-0.09655175738888888,-0.7451813544444446,0.5977461,-0.2752375,5.282909
563,1747679594160,0.8499903700000001,0.023307467,-0.8221678,0.28668907,-0.47657232999999993,5.739907
564,1747679594170,1.3076120341176471,0.18343772223529412,-0.8628536323529412,-0.033453977058823525,-0.5792136235294117,6.035611423529411
565,1747679594180,1.7800539684210528,0.35360683894736844,-0.8566698315789473,-0.5185941994736842,-0.49328014105263157,6.364319168421052
566,1747679594190,2.4443621555555555,0.6024281955555555,-0.7228094311111112,-1.0828848777777778,-0.1709600188888889,6.503227466666667
567,1747679594200,2.82566431875,0.7151488,-0.489609338125,-1.4068137250000001,-0.043675809999999995,6.3842580625
568,1747679594210,2.9158918705882355,0.7614227470588236,-0.30499620235294117,-1.4466828470588236,-0.17059100352941176,6.285509735294118
569,1747679594220,2.986589475,0.8306488125,-0.10775126787500001,-1.327584825,-0.478836,6.3284648125
570,1747679594230,3.2170827846153847,0.9614635461538461,0.0528712486923077,-1.0505445692307693,-0.7356772030769231,6.591380538461538
571,1747679594240,3.3955073,1.0405381,0.04814029,-0.9074715000000001,-0.82491356,6.755103000000001
572,1747679594250,3.9529343,1.1625667,-0.14808173,-0.80627143,-0.8898946000000001,6.925545
573,1747679594260,4.211147,1.1698884,-0.2481452,-0.8781767229999999,-0.9081106,6.8488461
574,1747679594270,4.400310107692308,1.2099514153846154,-0.31794558153846153,-1.1590375846153846,-0.9134123692307692,6.487967846153846
575,1747679594280,4.2438502555555555,1.2624131944444446,-0.24258612722222223,-1.554264,-0.8140833666666667,5.95704325
576,1747679594290,3.9391042800000005,1.27372664,-0.07850914866666667,-1.8061278333333335,-0.741751952,5.607672306666667
577,1747679594300,3.3892480235294116,1.2538727294117646,0.2672175694117647,-2.056577594117647,-0.8632003647058824,5.143233905882353
578,1747679594310,3.1314662176470587,1.2141058117647057,0.46392770352941176,-2.022113188235294,-1.0944252235294116,4.933126405882353
579,1747679594320,2.97417309375,1.1960635375,0.5811308093750001,-1.92939220625,-1.21240313125,4.7984803375
580,1747679594330,2.7512251058823525,1.1770092470588234,0.6958394970588234,-1.6251457705882353,-1.3274046411764704,4.536848117647059
581,1747679594340,2.5361819666666667,1.1617531166666666,0.7342665500000001,-1.3316239388888889,-1.3826382777777777,4.335238427777778
582,1747679594350,2.3324454421052634,1.1449945157894736,0.7166259168421053,-1.1022464378947368,-1.415966705263158,4.195106468421052
583,1747679594360,2.1254334,1.1201007,0.63583016,-0.82011986,-1.4598106,4.0216365
584,1747679594370,1.9521529,1.1030167833333333,0.4967175433333333,-0.5786601144444444,-1.5151452222222224,3.78218895
585,1747679594380,1.8459752842105264,1.0765814736842105,0.34845918000000004,-0.49717676842105263,-1.497767694736842,3.5474260736842105
586,1747679594390,1.6792969111111111,1.0237252522222222,0.1956593328888889,-0.5424411194444444,-1.4121105055555556,3.108528088888889
587,1747679594400,1.3599929631578949,0.9632875194736842,0.0705164894736842,-0.6867936842105263,-1.323400894736842,2.684842821052632
588,1747679594410,1.167830029473684,0.9202050110526315,0.03637416342105263,-0.8786532894736842,-1.2445714210526315,2.431478389473684
589,1747679594420,0.7899779494736843,0.8334747605263157,0.07182668657894736,-1.1181694157894737,-1.1471277189473685,2.2147251789473685
590,1747679594430,0.5262677021052632,0.7760570736842105,0.17664284578947367,-1.3894752368421053,-0.9732654978947368,2.03957332631579
591,1747679594440,0.34772055947368424,0.7391401894736842,0.28058554368421057,-1.4944317,-0.84408826,1.9848524
592,1747679594450,0.1697214788888889,0.7392087333333334,0.4464417233333334,-1.517512522222222,-0.5737480444444444,1.8922929333333331
593,1747679594460,0.10024651,0.7540149,0.52844495,-1.4305159,-0.47018075,1.8218671000000002
594,1747679594470,0.05603361760000001,0.7517027789473685,0.6130685868421053,-1.2973579,-0.43609232000000003,1.744103
595,1747679594480,-0.0012813006,0.7681702,0.6758555,-1.015791952631579,-0.41086238315789475,1.5584106421052633
596,1747679594490,-0.08667564969473684,0.7977653578947369,0.6804797505263158,-0.7400008,-0.42291667263157895,1.335602347368421
597,1747679594500,-0.2636556857894737,0.8381760563157894,0.6689448542105263,-0.2577167136842105,-0.48492623105263155,0.9214390368421054
598,1747679594510,-0.49481642894736844,0.8780986605263157,0.6251429894736842,0.18840449315789473,-0.6147201578947369,0.557006752631579
599,1747679594520,-0.6594908605263158,0.8955680789473685,0.542163547368421,0.4474878268421052,-0.6877187894736841,0.38482650842105265
600,1747679594530,-0.7427529,0.9028384315789473,0.4601089515789473,0.6552703,-0.7077345,0.25806013
601,1747679594540,-0.7617123221052632,0.9269358442105263,0.3912590947368421,0.7421172947368421,-0.6924844484210526,0.2175240394736842
602,1747679594550,-0.6634214552631579,0.9971730105263158,0.31791348,0.78646592,-0.6345116705263157,0.22604614526315792
603,1747679594560,-0.5021638257894737,1.0359395894736843,0.2619858284210526,0.7406035284210526,-0.5565792178947367,0.2269432
604,1747679594570,-0.27462542,1.0673844,0.19603899,0.63289976,-0.41265652,0.18881798
605,1747679594580,0.07219278210526314,1.1510831684210525,0.1405480689473684,0.39977522315789477,-0.22999182842105265,0.05560395894736842
606,1747679594590,0.3478233231578947,1.1950391578947368,0.1470733894736842,0.21907286157894737,-0.12453072210526317,-0.11096963631578947
607,1747679594600,0.644340072631579,1.2259701789473683,0.23657817684210528,0.08428898284210526,-0.04267362052631579,-0.35911999105263154
608,1747679594610,0.8023350463157894,1.2367086578947368,0.34239626157894737,-0.012762138210526314,0.08117729421052633,-0.8295180063157894
609,1747679594620,0.8853915605263157,1.1973255631578947,0.5195304394736843,0.04055711042105263,0.23575266526315788,-1.4857764789473684
610,1747679594630,0.8961814473684211,1.151776752631579,0.5902813894736841,0.1551570542105263,0.2894643852631579,-1.7378514789473682
611,1747679594640,0.9437083578947368,1.1046608894736842,0.6857462842105263,0.359127,0.32663646,-1.997103
612,1747679594650,0.9956026789473684,1.1248534,0.7150074605263158,0.806313442631579,0.26883188736842106,-2.2924613210526315
613,1747679594660,1.1248245578947367,1.1941657157894736,0.6404544026315788,1.0535667,0.19600149894736843,-2.4147425263157896
614,1747679594670,1.3976549,1.3016794,0.46743065,1.2699274,0.08162583,-2.5691495
615,1747679594680,1.626940252631579,1.3671894368421054,0.3285492215789474,1.2584898,0.044453732,-2.690197105263158
616,1747679594690,2.1259217,1.509128,0.068641104,1.0217210063157893,0.029596108052631576,-2.9865646315789474
617,1747679594700,2.356671421052632,1.5606882894736842,0.015693524210526312,0.99402416,0.028362645,-3.019756
618,1747679594710,2.8141116368421053,1.6473671473684213,0.036014502105263156,0.99402416,0.028362645,-3.019756
619,1747679594720,3.2260031947368417,1.7147012368421053,0.31958333842105263,-0.38868808000000005,0.976783712368421,-3.84584
620,1747679594730,3.5905219999999995,1.7256194894736843,0.5477640063157895,-0.7802566026315789,1.5142933263157894,-4.10419452631579
621,1747679594740,4.0250724315789475,1.7329672,0.7668246731578947,-0.7408978578947368,1.8460388315789473,-4.2345491052631585
622,1747679594750,4.526854157894737,1.7045023578947371,0.9292896815789474,-0.3603744856578947,2.1344450105263157,-4.538485657894737
623,1747679594760,4.923305657894737,1.5418830789473685,0.9732200110526316,0.09937087168421052,2.2173112263157893,-4.924167063157895
624,1747679594770,5.1654105,1.3260851,0.89306647,0.69681555,2.1652815,-5.411273
625,1747679594780,5.255429447368421,1.1123422789473685,0.6776795478947368,1.0799741210526315,1.9594053263157893,-5.801103578947369
626,1747679594790,4.963870868421052,0.7996663889473684,0.24842137368421052,1.4148032631578946,1.5575205157894736,-6.41570452631579
627,1747679594800,4.4737525,0.5978182,-0.07974571,1.4568220111111112,1.4005405888888889,-6.727820333333333
628,1747679594810,3.80137475,0.4444689333333333,-0.3738346766666667,1.126708722222222,1.5336984888888887,-6.810319222222223
629,1747679594820,3.5100603263157897,0.3909861442105263,-0.4668204852631579,0.9182783552631578,1.6593373105263158,-6.73528352631579
630,1747679594830,2.863436936842105,0.29428807263157897,-0.5012454063157895,0.08120532947368421,2.220394852631579,-6.210444989473683
631,1747679594840,2.7140996,0.23764397,-0.36344869555555553,-0.3975652633333333,2.4724325333333335,-5.853712533333333
632,1747679594850,2.6533167157894737,0.19263181578947366,-0.2614270552631579,-0.4918504547368421,2.552196452631579,-5.695810657894737
633,1747679594860,2.5367856578947365,0.08347400421052631,-0.010690348947368419,-0.5188744594736843,2.6687027368421052,-5.243634063157895
634,1747679594870,2.4202547,0.03306976,0.10769027,-0.36951333,2.6222796,-5.0064726
635,1747679594880,2.2272181789473686,-0.018901591368421053,0.16883301578947368,-0.15505892947368421,2.577482452631579,-4.826331115789475
636,1747679594890,2.0058183277777775,-0.09462642155555556,0.19861514333333333,-0.129829,2.5722122,-4.805138
637,1747679594900,1.7800494764705883,-0.19197973882352942,0.21877937294117647,0.2912634364705882,2.5011529764705887,-4.484932058823529
638,1747679594910,1.425862705263158,-0.3568823578947368,0.29533173210526315,0.6775286642105263,2.4110770263157892,-4.224569210526315
639,1747679594920,1.406929,-0.3657198,0.29951924,1.2426790578947369,2.1991456789473687,-3.9249498631578947
640,1747679594930,1.0318401444444445,-0.5327634444444445,0.3143253755555555,1.7331987222222223,2.0015859444444444,-3.688623288888889
641,1747679594940,0.8761173315789472,-0.7819016105263158,0.16821645131578947,2.2370185526315787,1.8213695473684213,-3.395569905263158
642,1747679594950,0.88513464,-0.9861133,0.028615711000000002,2.6106209,1.7221318222222224,-3.170431688888889
643,1747679594960,0.883639785,-1.01848139375,0.007626786562499998,2.7282734,1.6980302437500001,-3.127281125
644,1747679594970,0.86121696,-1.5040028,-0.30720708,2.7100455333333335,1.6803498,-3.122968388888889
645,1747679594980,0.7577110642105263,-1.6782596,-0.38538245684210526,2.6256155368421052,1.7089001736842107,-3.0934276526315787
646,1747679594990,0.5552719547368422,-1.887506557894737,-0.4653561536842105,2.5412354842105263,1.6918559736842105,-3.017345163157895
647,1747679595000,0.370814473125,-2.0320511187499997,-0.582930709375,2.4024358,1.38510904375,-2.8447865625
648,1747679595010,0.20470302,-2.1038954,-0.7284499,2.2126858,0.9317061999999999,-2.6330655
649,1747679595020,0.040542404210526316,-2.1325658,-0.9060207526315789,1.7666206000000002,0.3685742105263158,-2.2596624157894736
650,1747679595030,-0.10997669526315788,-2.1049746,-1.0054933789473686,1.0268791157894739,-0.03947783052631579,-1.7293854210526316
651,1747679595040,-0.289621375,-1.9589525500000002,-0.9689005194444444,-0.14533450466666664,-0.2599687288888889,-0.8370309055555556
652,1747679595050,-0.31010364210526314,-1.8119516578947368,-0.8245313836842105,-1.0576736263157893,-0.21732080315789473,-0.061126516842105266
653,1747679595060,-0.23647113999999997,-1.6989232,-0.6497821166666666,-1.615220811111111,-0.1282902956111111,0.43909574444444444
654,1747679595070,-0.10879494178947369,-1.5849270105263158,-0.39958912842105265,-2.1795083631578946,0.0018431866842105263,1.0055387831578948
655,1747679595080,0.04786412094736842,-1.4306058052631578,-0.12072163799999999,-2.4605138631578947,0.026736716684210526,1.4106192842105265
656,1747679595090,0.2266167831578947,-1.244711247368421,0.15400975915789472,-2.4646627,-0.07978964947368421,1.6801871157894737
657,1747679595100,0.2920755,-1.1569535,0.2741373,-2.2475731,-0.2986733,1.8165408
658,1747679595110,0.29014874210526315,-1.0617710789473684,0.3758706552631579,-2.055825652631579,-0.41809496315789474,1.861113694736842
659,1747679595120,0.23645615684210528,-0.9096848263157895,0.48114925000000003,-1.5202784210526317,-0.700221607368421,2.004195452631579
660,1747679595130,0.18294338842105262,-0.8039952242105264,0.478092112631579,-0.9048923947368421,-1.0119513631578947,2.2554854473684207
661,1747679595140,0.15208940789473685,-0.7468601463157895,0.4269685368421053,-0.29757998421052634,-1.2938537263157894,2.610722857894737
662,1747679595150,0.1940187322222222,-0.6930276555555556,0.3248469677777778,0.10512081666666667,-1.437440111111111,2.9445367
663,1747679595160,0.3931152,-0.5814664,0.07791527,0.6559430989473685,-1.6532401,3.6199760631578948
664,1747679595170,0.6728818499999999,-0.4544538605263158,-0.17834482789473685,0.9835396821052631,-1.8632652526315787,4.238053168421053
665,1747679595180,1.09844065,-0.2525585777777778,-0.5243637888888889,0.7834570066666667,-1.8292203555555555,4.735363188888889
666,1747679595190,1.428406,-0.14997318,-0.7196638,0.43049967000000006,-1.7165391,4.9739823
667,1747679595200,1.9280298421052633,-0.09363448784210526,-0.8520199368421052,-0.29914986473684213,-1.5348836684210527,5.046644226315789
668,1747679595210,2.1171358,-0.058695767,-0.7948335,-0.9767135999999998,-1.3671328,5.155077
669,1747679595220,2.0644192,0.006968477421052632,-0.5973782936842106,-1.2784635157894737,-1.2530935157894738,5.417468210526316
670,1747679595230,2.171984236842105,0.08093066968421052,-0.3156334547368421,-1.6339812,-1.0081389,6.2725387
671,1747679595240,2.5638144555555553,0.10143290872222223,-0.10420566383333334,-1.665228961111111,-0.9912130472222223,6.918325294444445
672,1747679595250,3.4086093999999996,0.15861794631578946,0.0988271287368421,-1.3551625263157894,-1.466034005263158,7.8241794
673,1747679595260,4.1086426,0.26590037,0.16040663,-1.1056105,-1.8102823,8.037681
674,1747679595270,4.5779264263157895,0.45706141578947374,0.09623241588421054,-0.686737627368421,-2.1166858789473686,7.8628651578947375
675,1747679595280,4.7143927,0.6461415,0.0012813006,-0.3375554,-2.2438447,7.5924
676,1747679595290,4.7368464,0.9438914000000002,-0.18761902,-0.13078214315789474,-2.350202794736842,7.343745199999999
677,1747679595300,4.716808,1.0294912736842106,-0.28246737368421054,-0.25951083578947365,-2.3745358052631578,7.124973894736843
678,1747679595310,4.61784914736842,1.3649030210526316,-0.6629654736842105,-0.5686615536842105,-2.279390989473684,6.9100710526315785
679,1747679595320,4.4908366,1.4417682,-0.7953216,-1.051282,-2.071272,6.62301
680,1747679595330,4.2531247,1.4959489,-0.85340714,-1.637625557894737,-1.8331014947368423,6.347499536842105
681,1747679595340,3.8658870333333337,1.5236087333333332,-0.7683938816666667,-2.449559011111111,-1.5529028833333334,6.0398378444444445
682,1747679595350,3.4409020789473685,1.4344464052631578,-0.3233919005263158,-3.580722547368421,-1.0549544157894737,5.514631452631579
683,1747679595360,3.1831777,1.3641579,0.03935423,-4.1469383,-0.7609977,5.14762
684,1747679595370,2.727381505263158,1.3226168263157894,0.7951095957894737,-4.145592642105264,-0.6272790789473685,4.6186327315789475
685,1747679595380,2.323325484210526,1.2760661736842105,1.4830941368421053,-3.6760916315789474,-0.6512194621052632,4.1031574105263156
686,1747679595390,1.9338100315789475,1.1902094263157896,1.998003605263158,-2.472343763157895,-0.8639918673684212,3.6041652789473684
687,1747679595400,1.6910117,1.121077,2.1626523,-1.204680008888889,-1.115375411111111,3.2031590666666663
688,1747679595410,1.6478135630000001,1.10838602,2.13014387,0.506346456,-1.55802796,2.73479804
689,1747679595420,0.80451435,0.8600983833333333,1.4756310666666665,1.7562202999999998,-1.8644333000000002,2.4010155500000003
690,1747679595430,0.6918413,0.8243033,1.2913679,2.4193468,-1.9860508,2.2021663
691,1747679595440,0.28182513,0.74327636,0.6446162,2.9636967,-1.9924425000000001,1.9624820000000003
692,1747679595450,0.002752067052631577,0.7083376378947369,0.24325764368421052,3.043759631578947,-1.877113605263158,1.8519188315789474
693,1747679595460,-0.29140115231578945,0.7157363989473684,-0.16665576999999998,2.7815925789473686,-1.680656647368421,1.830277157894737
694,1747679595470,-0.45612265666666674,0.746611773888889,-0.3160744655555556,2.175874911111111,-1.4429439888888889,1.8240568833333333
695,1747679595480,-0.5658574705882353,0.7879818764705881,-0.30697735294117645,1.4834187705882353,-1.2322202588235294,1.7660347411764707
696,1747679595490,-0.6845131494736842,0.8774050557894737,-0.2377406694736842,0.9505725342105263,-1.078053855263158,1.7387206052631579
697,1747679595500,-0.6877501147368421,0.9585604968421052,-0.1155835867368421,0.46638224789473687,-0.9540347078947368,1.683551110526316
698,1747679595510,-0.6315455755555556,1.0760619555555557,0.14831222533333333,0.18395032111111112,-0.9229178,1.545017
699,1747679595520,-0.591997445,1.219944575,0.41447020100000004,0.139576172,-0.9178045300000001,1.38692001
700,1747679595530,-0.5206351,1.3597649,0.6426637,0.2920154,-0.8717851,1.2018837
701,1747679595540,-0.36435714111111106,1.4736312777777778,0.79248776,0.5606393888888889,-0.8214810611111111,1.0288375833333334
702,1747679595550,-0.06892369210526315,1.5880741736842106,0.8549421905263159,1.0206558,-0.7343661,0.68949187
703,1747679595560,0.1919092907894737,1.6480094421052631,0.739593007368421,1.3139956736842104,-0.653630352631579,0.31474334578947366
704,1747679595570,0.3124735668421053,1.6661467210526315,0.5793629978947369,1.490717252631579,-0.5811924368421052,-0.02911253263157894
705,1747679595580,0.4329607505263158,1.6575404631578947,0.1120576094736842,1.4360524315789476,-0.3422369657894737,-1.2213107157894736
706,1747679595590,0.4060374084210526,1.613173447368421,-0.10931516736842105,1.061752452631579,-0.24838163,-1.6386698315789474
707,1747679595600,0.47247233999999994,1.5208426789473684,-0.17759981210526316,0.4412644339473685,-0.02546120052631579,-2.0512072210526315
708,1747679595610,0.5651627378947368,1.4546646368421052,-0.11450459442105264,-0.08004194868421052,0.23872417842105262,-2.3745988842105263
709,1747679595620,0.68500763,1.4041834,0.038866114,-0.43662494,0.45233756,-2.6277392
710,1747679595630,0.8492197294736842,1.406367094736842,0.24762498305263156,-0.5839116289473684,0.5817951473684211,-2.843034463157895
711,1747679595640,1.2507323,1.4637333,0.6241154,-0.51225865,0.7069356,-3.3052468
712,1747679595650,1.5406723,1.5164497,0.76713294,-0.24487747,0.7325019,-3.6429353
713,1747679595660,1.8284029526315788,1.6106814157894735,0.7786421852631579,0.04554703315789474,0.7623292978947368,-3.9647569842105264
714,1747679595670,2.4394453736842103,1.769344352631579,0.6642949157894736,0.468849167368421,0.8493445242105263,-4.57403167368421
715,1747679595680,3.216369466666667,1.966491233333333,0.48760602666666675,0.7323243466666667,0.9079153000000001,-5.158450433333333
716,1747679595690,3.6595774,2.0816863,0.39030856,0.79055876,0.9263799,-5.4006205
717,1747679595700,4.0585466631578955,2.1297269842105266,0.26982134421052634,0.782316992631579,0.9460592368421054,-5.463527105263157
718,1747679595710,5.182699873684211,2.1107419052631577,-0.06397190210526317,0.5199257642105263,1.2727588,-6.260175894736842
719,1747679595720,5.816426536842105,1.9947506000000004,-0.11555789500000001,0.31993650947368424,1.6745874210526317,-6.644175421052632
720,1747679595730,6.287071842105263,1.8629082842105262,-0.18892921710526317,0.3666959778947369,1.7807773368421052,-6.8485939368421045
721,1747679595740,6.5936341,1.4490898333333333,-0.5265331833333333,0.4010273666666666,1.2608727083333333,-7.389112416666666
722,1747679595750,6.3422546,0.8462685,-0.9544468499999998,0.21105535,0.71758825,-8.069106
723,1747679595760,5.628734031578947,0.36673457368421053,-1.2208032236842106,-0.24454108894736842,0.7728697894736843,-8.518030368421053
724,1747679595770,4.570373294736842,0.08159861368421052,-1.3317850315789475,-1.148893835263158,1.3031467842105264,-8.730298473684211
725,1747679595780,3.731355942105264,0.15371110684210526,-0.8086291010526315,-2.072365310526316,2.1838955315789472,-8.261806568421052
726,1747679595790,3.4500991789473687,0.2216617794736842,-0.33867759894736843,-2.388916873684211,2.6514901578947367,-7.885095263157895
727,1747679595800,3.66497719375,0.15003419375,0.19237812625,-2.09317655,2.91662514375,-7.32375410625
728,1747679595810,3.984173584210526,-0.019055732105263158,0.5001086052631579,-1.2967972294736843,3.0339198473684212,-6.851285121052633
729,1747679595820,4.059934131578948,-0.17127038105263157,0.6809936131578948,-0.4233371921052632,3.0305559157894737,-6.738087115789474
730,1747679595830,3.7617475157894735,-0.3058872210526316,0.7507939368421053,0.6959185273684211,2.9957946842105265,-6.728667921052631
731,1747679595840,3.346208,-0.38955605,0.7144979166666666,1.5396758777777777,2.958429466666667,-6.694915633333333
732,1747679595850,2.899583,-0.4770099,0.6319252,2.3682141,2.8353324,-6.5756063
733,1747679595860,2.6935987,-0.5248451,0.5801851,2.68712057368421,2.7374402526315786,-6.489824647368421
734,1747679595870,2.1485548105263157,-0.6501878,0.3854017215789474,3.616983694736842,2.2401864315789473,-6.161947426315789
735,1747679595880,1.8359559526315787,-0.6602583584210526,0.2195455494736842,4.191328842105262,1.688604105263158,-5.866589105263158
736,1747679595890,1.4041545,-0.5714215173684211,-0.15116456210526316,4.48175347368421,1.1393765684210524,-5.5419640947368425
737,1747679595900,1.1471436777777777,-0.49412098388888887,-0.5082017744444445,4.3257545777777775,0.518147205,-5.036596222222222
738,1747679595910,1.0233224189473684,-0.4815056526315789,-0.6763243842105263,4.000646468421053,0.21786743736842104,-4.768750789473684
739,1747679595920,0.9027067400000001,-0.46724759999999993,-0.7938572,3.400734994736842,-0.2107049394736842,-4.473392684210526
740,1747679595930,0.728912265263158,-0.4466697110526316,-0.9268812263157894,2.797964005263158,-0.6032826315789473,-4.248565705263158
741,1747679595940,0.6293626,-0.4662713700000001,-1.0261997,1.9239993,-1.0241178,-3.9710363999999996
742,1747679595950,0.5371631944444445,-0.5483288872222222,-1.0782923277777776,0.8454790288888889,-1.1649693166666666,-3.6541206055555557
743,1747679595960,0.4677967,-0.60733646,-1.0418193,0.05659213,-1.1082736,-3.4064467
744,1747679595970,0.38481728421052636,-0.7352995668421053,-0.8151544526315789,-1.2079318668421053,-0.8145973189473684,-2.941206857894737
745,1747679595980,0.35275584421052636,-0.8388312131578948,-0.5601017484210526,-1.8857199789473684,-0.5926299942105263,-2.6327850842105263
746,1747679595990,0.40507399388888893,-0.9864116500000001,-0.23634910111111107,-2.487967733333333,-0.38158631000000004,-2.2398055666666665
747,1747679596000,0.6110968531578947,-1.3474464736842107,0.044646424210526316,-2.655344894736842,-0.38047432315789476,-1.8819424052631577
748,1747679596010,0.8654815957894738,-1.9279686947368422,0.3319917210526315,-2.5137207684210527,-0.5566353063157895,-1.5221075105263158
749,1747679596020,0.8335571666666666,-2.086919955555556,0.4933549444444444,-2.2614214,-0.68110293,-1.4506228
750,1747679596030,0.5805254747368421,-2.0653858421052633,0.6326188789473685,-1.7554213,-0.84195775,-1.3100079
751,1747679596040,0.19065045842105266,-1.923832689473684,0.6255026789473684,-1.1871312157894736,-0.9751717657894737,-0.9721512263157895
752,1747679596050,-0.08885478588235293,-1.7968427823529411,0.5677238276470588,-0.6989931029411764,-1.0264363305882351,-0.3914373952941177
753,1747679596060,-0.27950656,-1.6870457000000003,0.47768107,-0.44195125,-0.95274514,0.17177376
754,1747679596070,-0.33027047,-1.6265196,0.41422617,-0.2911884147368421,-0.7983940657894737,0.6444704789473684
755,1747679596080,-0.31031202555555554,-1.5527600444444445,0.3769125255555556,-0.07017424,-0.49361655,1.4255891
756,1747679596090,-0.2428722852631579,-1.460509194736842,0.3397758652631579,0.10727625736842106,-0.32121203684210525,1.9150496789473685
757,1747679596100,-0.04654749673684211,-1.3345242263157895,0.26571091368421057,0.3573889505263158,-0.24030806368421054,2.524716852631579
758,1747679596110,0.42353244736842105,-1.104596694736842,0.09530756084210527,0.7457055663157895,-0.3590569078947368,3.246797447368421
759,1747679596120,0.6717001421052632,-0.9486569842105264,-0.07745927652631579,1.0406153821052633,-0.5701473210526317,3.582635736842106
760,1747679596130,0.8534328257894735,-0.7510990000000001,-0.21808763684210525,1.1870611315789474,-0.7124441178947368,3.7318848842105266
761,1747679596140,0.9111402494444444,-0.5343091333333333,-0.37079752777777775,1.2273168833333332,-0.77963985,3.8398316333333335
762,1747679596150,0.9051473,-0.44088940000000004,-0.4536414,1.1847063,-0.7876293,3.9800913
763,1747679596160,0.9051473,-0.44088940000000004,-0.4536414,1.0083772,-0.7647541626315789,4.18120192631579
764,1747679596170,0.7718921,-0.37548208,-0.59568274,0.9876326,-0.76206297,4.204862
765,1747679596180,0.7558613852631579,-0.3574475389473684,-0.5739487915789474,0.8298614315789473,-0.6894007784210526,4.453460852631579
766,1747679596190,0.7556558205263159,-0.3162147210526316,-0.48801493,0.3285707547368421,-0.4034616110526315,5.426046626315789
767,1747679596200,0.9280887,-0.29041998599999996,-0.4082467326666667,0.058296551999999995,-0.188738084,6.302152840000001
768,1747679596210,1.3561394736842107,-0.19400624368421054,-0.404290462631579,-0.14093018236842103,-0.13445449136842105,7.17122872631579
769,1747679596220,2.172292542105263,-0.033956072631578946,-0.3988184431578948,-0.32152041263157893,-0.22360023842105264,8.05136092105263
770,1747679596230,2.907766305882353,0.12024125882352943,-0.33950875588235296,-0.27940455764705885,-0.439852075882353,8.60891255882353
771,1747679596240,3.4929762631578942,0.34780085684210527,-0.3439698052631579,-0.048252243684210536,-0.620214755263158,8.751575210526315
772,1747679596250,4.03059587368421,0.6191411547368421,-0.4601410384210526,0.2983509163157894,-0.9028459852631578,8.70717105263158
773,1747679596260,4.3546524,0.8018501,-0.64644665,0.50400287,-1.1359705,8.556464
774,1747679596270,4.336078342105263,0.8463969736842106,-0.7297601,0.4644199152631579,-1.2324609684210526,8.403402263157895
775,1747679596280,4.2370167,1.0839803,-1.1740985,0.1279648,-1.2733896,8.071769
776,1747679596290,4.2370167,1.0839803,-1.1740985,0.1279648,-1.2733896,8.071769
777,1747679596300,4.133228121052632,1.0859070631578946,-1.2023577631578946,-0.24067251578947368,-1.1096753894736842,8.000003815789473
778,1747679596310,3.8426200999999995,1.091302,-1.2814837,-1.272857,-0.6512756,7.799061299999999
779,1747679596320,3.6475799684210526,1.0654833105263157,-0.9440167092105263,-1.8390165736842106,-0.46995650263157895,7.829449357894737
780,1747679596330,3.369046710526316,1.0465752631578946,-0.006862508947368419,-3.2535184736842107,-0.25791295315789475,8.014749210526317
781,1747679596340,3.814472583333333,1.0812142333333332,0.3283993416666667,-3.230278733333334,-0.5504306166666667,7.769411666666667
782,1747679596350,4.220061157894737,1.1739474736842106,0.7005181710526316,-2.907027389473684,-0.7970484578947369,6.999441052631579
783,1747679596360,4.042541578947368,1.3835798157894736,1.027554894736842,-2.131739747368421,-0.974050452631579,5.631193736842104
784,1747679596370,3.6005156,1.5691661,1.1922807,-1.5061496,-1.09336,4.8078012
785,1747679596380,3.094178177777778,1.672429388888889,1.2486850555555555,-0.89095985,-1.1865705,4.301800699999999
786,1747679596390,3.030886,1.6853373,1.2557356,-0.7679219,-1.2052126,4.2006006
787,1747679596400,3.030886,1.6853373,1.2557356,-0.7679219,-1.2052126,4.2006006
788,1747679596410,1.855018142105263,1.5949077315789473,0.6071855363157894,1.175623505263158,-1.2400859894736844,3.2815025684210526
789,1747679596420,1.5204155666666668,1.4542964388888888,-0.05105541611111111,1.0998994866666667,-0.8569897988888889,2.8726313777777777
790,1747679596430,1.2703854263157894,1.3479731052631578,-0.30605098000000003,0.6434402747368421,-0.3428537047368421,2.368683936842105
791,1747679596440,0.9642092000000001,1.3051775166666666,-0.36643163666666667,0.18832973333333333,-0.024012821666666663,2.02515505
792,1747679596450,0.5883610455555556,1.282426,-0.31311865111111115,-0.287488,0.24141537000000002,1.6993618
793,1747679596460,0.21495342,1.3036318,-0.13978378,-0.65393872,0.36498595400000006,1.461595
794,1747679596470,-0.08279642,1.2963101,0.115011975,-0.99269253,0.45553336,1.1486205
795,1747679596480,-0.36346227,1.2650707,0.38347495,-0.9990841,0.5599292,0.875913
796,1747679596490,-0.48793146,1.2655588,0.48841956,-0.8542083,0.6302366,0.7235803
797,1747679596500,-0.48793146,1.2655588,0.48841956,-0.618785,0.69734824,0.58935714
798,1747679596510,-0.6714625399999999,1.2621421,0.70026124,-0.10532794,0.73995876,0.3965444
799,1747679596520,-0.67146254,1.2621421,0.70026124,-0.10532794,0.73995876,0.3965444
800,1747679596530,-0.5925832,1.16344526,0.5800874759999999,0.658679148,0.5522593,0.1225585852
801,1747679596540,-0.567006,1.1474351,0.53479046,0.9916273,0.3340933025,-0.0908137235
802,1747679596550,-0.25517056628571433,1.150852,0.17832739428571429,1.4361085714285715,-0.10266478142857142,-0.53358294
803,1747679596560,-0.109154604,1.150852,0.03691366,1.4233254,-0.19214693,-0.7837677
804,1747679596570,0.00018304294,1.1406015,-0.10463954,1.2102727,-0.10266478,-1.0660626
805,1747679596580,,,,,,
806,1747679596590,0.2715747,1.1962466,-0.2808489,0.3154512,0.3585944,-1.4815154
807,1747679596600,0.45705822,1.1918536,-0.24521652,0.032091066,0.5002744,-1.6178691
808,1747679596610,0.45705822,1.1918536,-0.24521652,-0.3673828,0.69521767,-1.9182734
809,1747679596620,0.86463382,1.1703764888888888,0.047272528888888894,-0.618785,0.81559247,-2.3560967
810,1747679596630,1.0411918142857144,1.1918535714285714,0.2502196914285714,-0.6294376,0.8102661400000001,-2.7023075
811,1747679596640,1.3544295666666666,1.2496680777777778,0.4585903555555555,-0.44319405999999995,0.8122191433333333,-3.05970355
812,1747679596650,1.6098218999999998,1.2930560333333334,0.5290144666666666,-0.15042409555555555,0.7577131800000001,-3.3954391222222227
813,1747679596660,2.018373811111111,1.3765235111111112,0.6013367333333333,0.18998680777777777,0.6514235333333332,-3.7485149333333334
814,1747679596670,2.410980547368421,1.4382743157894737,0.5959332105263158,0.5605739499999999,0.5394649157894736,-4.172203221052632
815,1747679596680,2.6566647999999997,1.4704042666666668,0.5301262311111111,0.7974829999999999,0.4578414283333333,-4.46141275
816,1747679596690,2.9023319210526317,1.542242694736842,0.42951186315789475,0.9812409999999999,0.37350807,-4.69222
817,1747679596700,3.1704867,1.6785036,0.32294875,1.0792452,0.34261543,-4.780637
818,1747679596710,3.5502398,1.8415339000000002,0.21263488,1.0483526,0.34687647,-4.7103295
819,1747679596720,4.169528505263157,2.0114236684210525,0.06894938310526316,0.93756515,0.34155014,-4.650675
820,1747679596730,5.01540547368421,2.1277488315789475,-0.1283002564210526,0.6953578605263158,0.37098508210526315,-4.771778684210526
821,1747679596740,5.805148931578947,1.9245904578947368,-0.3145544763157895,0.25030191736842106,0.5112074073684211,-5.379483026315789
822,1747679596750,5.9330712352941175,1.5149565705882353,-0.3452800058823529,-0.28773866941176474,0.9424841294117646,-6.459868317647058
823,1747679596760,5.492601736842105,0.9971985684210527,-0.2405665905263158,-0.49768137263157897,1.3698098368421052,-7.1349255578947375
824,1747679596770,4.623449415789474,0.6027764631578947,-0.025719137894736843,-0.5444408436842105,1.682268505263158,-7.629936831578948
825,1747679596780,3.793346384210526,0.4805936715789474,0.10509555263157894,-0.43342915,1.6550202,-7.739939
826,1747679596790,3.3193617,0.46016994,0.1594304,-0.43342915,1.6550202,-7.739939
827,1747679596800,3.006659942105263,0.39771696842105264,0.1454549057894737,-0.10852372823157894,1.3240035421052632,-7.006028568421053
828,1747679596810,2.8161156,0.33423638,0.10134477,-0.0041278964,1.3652685,-6.5617576
829,1747679596820,2.762834021052632,0.31764049684210527,0.12012433894736842,0.025419152589473682,1.4996599421052632,-6.3806632210526315
830,1747679596830,2.697375157894737,0.2671335136842105,0.1921597642105263,0.13923415936842104,1.7487073315789472,-6.091135684210526
831,1747679596840,2.6020643578947364,0.14882995999999998,0.1867904952631579,0.34140998,1.8893782157894738,-5.802505078947369
832,1747679596850,2.4732281052631575,0.0690360872631579,0.1129053794736842,0.535063687368421,1.9176357736842107,-5.531591657894737
833,1747679596860,2.161348552631579,-0.09062873221052632,0.0032080686842105265,0.5375866742105263,1.9938862736842105,-5.333396552631579
834,1747679596870,1.8401691947368422,-0.2530937915789474,-0.03820459457894737,0.4393581721052632,2.204247842105263,-5.222945542105263
835,1747679596880,1.4232937421052632,-0.5303171373684211,0.06221854236842105,0.37269510789473687,2.575408052631579,-5.077621005263158
836,1747679596890,1.0757818157894736,-0.8326398263157895,0.2048764315789474,0.4977794894736842,2.9216746842105263,-4.929661578947368
837,1747679596900,0.7674990131578948,-1.1135112,0.24757359684210523,0.7610678026315789,3.0177167,-4.834909410526316
838,1747679596910,0.5478475,-1.3185192,0.17358571,1.041961,3.0025787,-4.7508097
839,1747679596920,0.4165703947368421,-1.439777147368421,0.08341298347368421,1.181005947368421,2.8994163842105265,-4.671755857894737
840,1747679596930,0.16385553894736843,-1.7042839736842108,-0.13092066160000002,1.3852562578947367,2.584490710526316,-4.425231194736842
841,1747679596940,0.0725267505263158,-1.8819318684210529,-0.2544906947368421,1.337038994736842,2.249549352631579,-4.033214457894736
842,1747679596950,0.10900688736842104,-1.9470308736842106,-0.2726536942105263,1.2589383631578948,2.044626347368421,-3.7661135263157894
843,1747679596960,0.31780999777777774,-1.9651353055555556,-0.27683548833333327,1.1135703666666668,1.5930574000000002,-3.319686933333333
844,1747679596970,0.47332013157894737,-1.943768247368421,-0.31761158947368423,1.0240197105263158,1.2912607578947368,-3.1435509473684213
845,1747679596980,0.5352079136842105,-1.8485601263157896,-0.44336529947368425,0.7313525589473684,0.7585728894736842,-2.8653490157894734
846,1747679596990,0.44506087315789467,-1.7478031368421052,-0.5393183357894736,0.4474878310526316,0.49371470684210533,-2.601275768421053
847,1747679597000,0.33454147,-1.5850298,-0.5878729,-0.09041425,0.22224063,-2.086585
848,1747679597010,0.3255241894736842,-1.3438241631578947,-0.49189419526315786,-0.9684718210526315,0.29484674052631576,-1.2049953684210528
849,1747679597020,0.41800904,-1.2418853,-0.40434185,-1.4699306,0.53436285,-0.7017424
850,1747679597030,0.5316883557894737,-1.1879358263157895,-0.31994941052631576,-1.6536045894736842,0.6554665184210527,-0.5271513052631579
851,1747679597040,0.7756428789473685,-1.0699662157894736,-0.06345809610526315,-1.978678152631579,0.9649536473684212,-0.21772025263157896
852,1747679597050,0.8154969233333333,-0.9922961,0.11777795433333334,-1.9282307666666665,0.9817735999999999,-0.15218474666666668
853,1747679597060,0.6526122947368421,-0.9071671894736842,0.3775404936842105,-1.5648512210526315,0.7210643631578947,-0.11971600868421052
854,1747679597070,0.35283291052631577,-0.8419397110526315,0.5326324757894737,-0.9360092957894737,0.16039927631578949,0.020898790263157895
855,1747679597080,0.10574423021052633,-0.7454472121052632,0.5489714557894737,0.09281109,-0.8558062,0.38056543
856,1747679597090,-0.012507933888888888,-0.6231730544444445,0.39746756111111115,0.9994688111111112,-1.740093311111111,0.9270457
857,1747679597100,-0.012867596894736842,-0.5422887631578948,0.15102969368421051,1.5789099263157895,-2.1790878631578945,1.424131352631579
858,1747679597110,-0.033008743,-0.45309229999999995,-0.11244937999999999,1.8569438157894738,-2.2051588736842107,2.0355366263157895
859,1747679597120,-0.03619584458823529,-0.2785195574117647,-0.4534691635294118,1.8004287,-2.0158782,2.5728781
860,1747679597130,0.08483236473684211,-0.10239486089473684,-0.7079747105263158,1.4391922105263157,-1.7042045842105267,3.189553547368421
861,1747679597140,0.22910875000000003,0.024771811,-0.8402281,1.3966938,-1.6675371,3.2621036
862,1747679597150,0.4597042926315789,0.20994703010526317,-0.9218973526315789,0.3704524442105263,-1.0189597021052632,4.265021242105263
863,1747679597160,0.840741912631579,0.3661436763157895,-0.8677936684210527,0.17803219,-0.89735144,4.4530683
864,1747679597170,1.1616900789473685,0.4511526621052632,-0.6703642368421052,-1.1287098431578948,-0.7029128305263158,5.2641824999999995
865,1747679597180,1.3067029166666666,0.5830934833333333,-0.37887857166666666,-1.3554147833333332,-0.7803500166666666,5.497559316666666
866,1747679597190,1.3882265,0.8034942868421053,-0.010972943157894736,-1.6913934368421053,-1.3043382315789473,6.346265978947369
867,1747679597200,1.5025995,0.97757137,0.13648902,-1.6105455,-1.3671328,6.791322000000001
868,1747679597210,2.3304158684210527,1.3440425405263159,0.3232313384210526,-1.3597600263157894,-1.298675547368421,7.513570736842105
869,1747679597220,3.3611082105263157,1.581625889473684,0.5116949336842105,-0.9748073263157895,-1.052711752631579,7.644430157894736
870,1747679597230,4.063736105263158,1.8369869157894736,0.7033441178947368,-0.5529629410526316,-0.7918903526315789,7.286164957894737
871,1747679597240,4.357581,2.0265296,0.80081284,-0.15433007,-0.6321008,6.8168883
872,1747679597250,4.376540684210527,2.2045627684210523,0.8308703389473684,0.2574223647368421,-0.6462295684210527,6.278986436842105
873,1747679597260,4.1247506,2.2359304,0.72173834,0.76392716,-0.859002,5.563073
874,1747679597270,3.527735115789474,2.0219308210526314,0.4950733673684211,1.063210227368421,-0.8828302736842105,5.049335684210527
875,1747679597280,2.9732610777777775,1.7924784611111109,0.3213217255555556,1.1169436999999998,-0.6302070333333334,4.850411733333333
876,1747679597290,2.402914010526316,1.5009842315789474,0.1326611659473684,0.9065043194736842,-0.11640108105263157,4.9295776315789475
877,1747679597300,2.037598484210526,1.3115443368421051,0.05913571205263158,0.4962096305263158,0.28598825052631577,5.336620578947368
878,1747679597310,2.027485177777778,1.3069943333333331,0.09152824555555555,0.22596905333333328,0.4660676377777777,5.6414288444444445
879,1747679597320,2.2906603800000003,1.42151147,0.130826887,-0.134090065,0.685790045,5.97660825
880,1747679597330,2.6523802722222225,1.62288585,0.20534028000000001,-0.5859985755555556,1.0809022555555556,6.0491292111111115
881,1747679597340,2.8561409,1.7409824,0.29170942,-0.8137283,1.31094,5.911414
882,1747679597350,2.9151214833333334,1.8101319833333334,0.3698077533333334,-0.8989493833333333,1.4361085,5.689484
883,1747679597360,2.75528112631579,1.9182964210526314,0.5002884389473684,-0.8854933989473684,1.5164237842105264,4.980766631578947
884,1747679597370,2.345829989473684,1.938848494736842,0.49201620315789474,-0.6982312452631579,1.3079684684210526,4.322321263157895
885,1747679597380,1.7375881052631577,1.8643212315789472,0.3422678178947368,-0.4929157136842105,0.9428073657894738,3.872948236842105
886,1747679597390,1.2351383894736843,1.7540074,0.10738197894736841,-0.38661361684210527,0.5603777342105264,3.565479421052632
887,1747679597400,0.8004852499999999,1.608369394736842,-0.21032918631578945,-0.47065731368421054,0.1588294039473684,3.2963601894736843
888,1747679597410,0.67280483,1.5281645,-0.35455418,-0.6315682,0.008122635,3.1566424
889,1747679597420,0.4753353961111111,1.4012547055555555,-0.4801351838888889,-1.0139978111111112,-0.13698994444444446,2.8829880666666665
890,1747679597430,0.22088786610526315,1.281229952631579,-0.5254199094736842,-1.4224423263157895,-0.26037986105263156,2.620366489473684
891,1747679597440,-0.048371505157894734,1.1959126368421054,-0.47714798789473684,-1.785585052631579,-0.4496043178947368,2.4199847578947367
892,1747679597450,-0.23704061,1.1420659,-0.39946067,-2.05333995,-0.6793274627777778,2.2975074499999995
893,1747679597460,-0.28292337,1.095695,-0.30720708,-2.2283983,-0.8483493299999999,2.1979053
894,1747679597470,-0.2847673316666667,1.046368272222222,-0.17582291055555554,-2.3642195166666666,-0.9509697072222223,1.9705305833333335
895,1747679597480,-0.311617515,1.0928708785714287,-0.07381860642857144,-2.43749435,-0.9589845214285714,1.6208365928571429
896,1747679597490,-0.4156043535294117,1.1221106235294118,0.06746388117647059,-2.488009370588235,-0.9925358705882352,1.092474876470588
897,1747679597500,-0.5211519764705883,1.127077894117647,0.27192642411764706,-2.4525422882352945,-1.0008073647058824,0.5117181894117647
898,1747679597510,-0.6214529863636364,1.1402464545454545,0.49725000272727277,-2.2379857636363636,-0.8866988509090908,0.036775812727272726
899,1747679597520,-0.7109997657894738,1.1419887789473684,0.70979231,-1.8398014210526314,-0.6718519589473684,-0.45975937999999994
900,1747679597530,-0.7197344368421054,1.0812314631578948,0.8117825389473685,-1.2159493263157894,-0.45038925842105265,-1.0060714526315788
901,1747679597540,-0.7031899,1.0092988,0.81789684,-0.7029408,-0.35619754,-1.3962944
902,1747679597550,-0.6961611,0.9565823520000001,0.773380808,-0.38591837599999995,-0.358754172,-1.62213024
903,1747679597560,-0.6588257666666667,0.8227848044444445,0.5995469555555556,0.3201856922222222,-0.4502958188888889,-2.1075353333333333
904,1747679597570,-0.6414578000000001,0.7090795882352942,0.39745797941176475,0.7773369705882353,-0.5866704564705882,-2.4130571588235297
905,1747679597580,-0.6196966663157895,0.6527696210526316,0.2198538247368421,1.0069754473684212,-0.6874384342105264,-2.5526099842105263
906,1747679597590,-0.5257217789473684,0.6655376631578948,0.044081232894736845,1.0735824999999999,-0.77983607,-2.5961175210526313
907,1747679597600,-0.2895257517894737,0.7503668473684211,-0.1180498422105263,0.8746024684210527,-0.7333008484210527,-2.569822352631579
908,1747679597610,-0.021293996,0.8535902000000001,-0.24619274000000002,0.5817671,-0.5958818,-2.562758
909,1747679597620,0.30454956077777773,0.9636871277777779,-0.31024422166666665,-0.0066135123333333394,-0.24085314666666668,-2.6940220833333335
910,1747679597630,0.67668408,1.0693367421052633,-0.20241657563157897,-0.5150059042105264,0.11683558631578948,-2.9198456368421053
911,1747679597640,0.9150531352941176,1.1866278352941175,0.13301479129411767,-0.8585946647058824,0.41311079411764706,-3.2246626529411766
912,1747679597650,1.0856683166666667,1.3166481833333332,0.5084322666666667,-0.9025002555555555,0.4820466244444444,-3.5288338222222224
913,1747679597660,1.2809684,1.5096161888888888,1.0037328833333334,-0.51640133,0.2929031166666667,-3.7964517111111116
914,1747679597670,1.5979715777777779,1.7378096722222223,1.511751622222222,0.30894124888888885,0.07132827777777778,-4.065489688888889
915,1747679597680,1.9165206,1.8083422,1.7233493,1.1090726,-0.01957422,-4.301268
916,1747679597690,2.1635065333333334,1.7989052666666667,1.6543623666666667,1.1090726,-0.01957422,-4.301268
917,1747679597700,2.495475657894737,1.8022793,1.1462694789473684,2.7495785263157893,-0.18283988421052633,-4.891536294736842
918,1747679597710,2.5922336833333333,1.8321784444444447,0.5713448077777777,3.485853216666667,-0.34075120833333333,-5.1804659555555554
919,1747679597720,2.758929078947369,1.9247190263157892,-0.5053815315789474,3.0250333789473687,-0.5229393157894736,-5.156674894736843
920,1747679597730,2.845479457894737,2.1271066947368418,-0.8022321868421053,2.0333850210526316,-0.29329090657894735,-4.912729631578947
921,1747679597740,3.083756463157895,2.430431236842105,-0.8404336221052632,1.0935982168421052,0.08235469078947369,-4.5948325789473685
922,1747679597750,3.5618004052631576,2.5918943315789478,-0.7115970789473685,0.20886876421052633,0.41426841842105266,-4.345336447368421
923,1747679597760,4.026742152631579,2.5866022368421056,-0.5508275863157895,-0.27150908,0.56419027,-4.3225737
924,1747679597770,4.454715915789474,2.410007505263158,-0.40578050052631576,-0.6750757768421053,0.6068008089473684,-4.716440710526316
925,1747679597780,4.5250044,2.187119,-0.32624355,-0.8584693,0.5950829,-5.1417613
926,1747679597790,3.9578154,1.6428715,-0.082186274,-1.0370972263157896,0.8453638052631579,-5.962238531578947
927,1747679597800,3.2577050210526313,1.3728155105263158,0.1351531287368421,-1.0355834894736842,1.165223205263158,-6.326166536842106
928,1747679597810,2.6887948,1.2609602105263158,0.3706555226315789,-0.8192228057894737,1.2945125368421053,-6.295105578947369
929,1747679597820,2.284396172222222,1.1864571222222222,0.5900558594444445,-0.3932450377777778,1.2504567388888888,-5.988527638888889
930,1747679597830,2.1178548631578944,1.08942664,0.7634335578947369,0.6534761831578947,0.9843527042105263,-5.113728315789474
931,1747679597840,2.2199737105263155,0.93790555,0.6434344447368421,1.2237847368421053,0.8617912605263158,-4.665252
932,1747679597850,2.2148870526315787,0.7934750894736842,0.4207001205263158,1.7300652631578948,0.765076552631579,-4.248117263157894
933,1747679597860,2.076005557894737,0.6449855168421053,0.14689355989473685,1.9713755263157897,0.7225781684210526,-3.97653112631579
934,1747679597870,1.9296998,0.51483876,-0.084138736,1.9951477999999998,0.7182049394736842,-3.737743794736842
935,1747679597880,1.6490339,0.30250895,-0.38335294,1.7548466894736843,0.8731727894736842,-3.454215494736842
936,1747679597890,1.4337753,0.09994144,-0.4834163799999999,1.3753885,1.1234536,-3.2402656
937,1747679597900,1.23828549,-0.027895742600000002,-0.45749752299999996,1.07722129,1.34204569,-3.09262006
938,1747679597910,0.9664699289473685,-0.22437211031578946,-0.3590499578947368,0.7253534421052632,1.5193953578947368,-2.8323258157894733
939,1747679597920,0.7183079155555556,-0.4191412133333333,-0.25573810444444445,0.49110133944444445,1.5979102833333334,-2.6149559277777774
940,1747679597930,0.3982275542105263,-0.5883770715789475,-0.17857604157894738,0.3294117478947369,1.5599314263157893,-2.357218084210526
941,1747679597940,0.1128861062105263,-0.6852292757894737,-0.12007937210526316,0.2228853947368421,1.3893771263157895,-2.0151003157894736
942,1747679597950,0.021334671722222222,-0.7393985377777779,-0.04994360316666666,0.1899868088888889,1.2140011333333331,-1.7203711555555556
943,1747679597960,0.03334913647368421,-0.8290689073684211,0.07159547589473685,0.27474691315789473,1.0371672894736843,-1.4928969684210527
944,1747679597970,0.059167822526315784,-0.9166983005263158,0.15465200684210528,0.447824217368421,0.8822555789473684,-1.336695652631579
945,1747679597980,0.05875678,-0.9812321699999998,0.15259679,0.6784818289473684,0.6962268715789474,-1.2362244947368424
946,1747679597990,0.06060647894736842,-1.0427345984210528,0.07490951947368421,0.8395609,0.48749128,-1.152349
947,1747679598000,0.025770517894736843,-1.1269472105263159,-0.09230823315789473,0.9081863210526316,0.14722363736842106,-1.0494108684210526
948,1747679598010,-0.040304768421052635,-1.1530998526315788,-0.32095135210526315,0.7732902894736843,-0.1434251342105263,-0.835461052631579
949,1747679598020,-0.02486493710526316,-1.1131772526315789,-0.4501218221052632,0.2827083521052631,-0.2926741626315789,-0.40655225263157896
950,1747679598030,0.12118405578947368,-1.1137423473684211,-0.4416954473684211,-0.5588499157894736,-0.08051851263157896,0.14323591105263156
951,1747679598040,0.16452348263157895,-1.1423870684210526,-0.32978877631578946,-1.0448343473684212,0.12866562,0.41336434684210527
952,1747679598050,0.14048884388888888,-1.1283716166666666,-0.14349888194444446,-1.4579760222222222,0.29586216666666665,0.7161234977777777
953,1747679598060,0.10350061444444443,-1.0889969444444445,-0.014067189999999999,-1.6107821777777778,0.3369931944444444,0.9162155277777777
954,1747679598070,0.06700335,-1.0278600157894735,0.15853124052631581,-1.6872444,0.3319628,1.2753869
955,1747679598080,0.0694439252631579,-0.9733195378947369,0.29029645894736844,-1.5618798105263156,0.29069783157894735,1.6086461631578945
956,1747679598090,0.1049649488888889,-0.9061167533333333,0.38732562666666664,-1.3314464,0.22117536,1.9017619
957,1747679598100,0.19869920400000002,-0.8376777149999999,0.43021192599999997,-0.96606094,0.07416898,2.1702085
958,1747679598110,0.29793286,-0.7903794,0.43716756,-0.6390810778947368,-0.060054234736842106,2.312505131578947
959,1747679598120,0.4272290111111111,-0.7443881466666666,0.42284955111111105,-0.18912867666666666,-0.22469665333333333,2.4103661444444446
960,1747679598130,0.4994984763157895,-0.7163401357894736,0.34553046315789476,0.32873896842105266,-0.39583655842105264,2.4553626842105265
961,1747679598140,0.5468712973684211,-0.6835594015789473,0.21497267684210528,0.4944155,-0.44994073999999995,2.467417
962,1747679598150,0.5300169964705882,-0.6740071576470588,0.12121389764705881,1.378083005882353,-0.9229177605882353,2.609285023529412
963,1747679598160,0.39591544052631583,-0.6633411421052632,-0.1923717,1.683530047368421,-1.0269772105263157,2.864031336842105
964,1747679598170,0.3665943233333333,-0.6229561166666667,-0.3896984133333333,1.7322519,-0.9282441233333333,3.240088066666667
965,1747679598180,0.36334023,-0.58390695,-0.51172704,1.6789887,-0.79828197,3.5071141999999997
966,1747679598190,0.45356821150000004,-0.465514793,-0.6955753785000001,1.4030854,-0.5447492,3.9864829
967,1747679598200,0.554193,-0.36767226,-0.8128937,1.1596134777777776,-0.42804363333333334,4.259131261111111
968,1747679598210,0.8412043,-0.24515550999999997,-0.89977807,0.35380068,-0.24647536999999997,4.9388285
969,1747679598220,0.9931877,-0.17003725210526316,-0.8517372599999999,-0.08559254000000001,-0.20644388631578947,5.3381902631578955
970,1747679598230,1.3608921315789473,-0.03411021147368421,-0.6753224578947369,-0.5750531610526316,-0.22595503263157893,5.927897621052632
971,1747679598240,2.103739588888889,0.15992528866666667,-0.42809674666666664,-0.9354642077777778,-0.33992266444444447,6.681185605555556
972,1747679598250,3.2406722789473683,0.4687761578947368,-0.16886514263157892,-1.0164086415789473,-0.3990323489473684,7.1006971052631584
973,1747679598260,3.8565699210526314,0.6587297452631579,-0.07273226957894736,-0.92064709,-0.3088774015789474,7.1150497999999995
974,1747679598270,4.206856389473684,0.8127170399999999,-0.017472572684210527,-0.7409539294736842,-0.14852719,6.89835285263158
975,1747679598280,4.276194605263158,0.9813734526315789,-0.05842280842105262,-0.5848648157894737,-0.07519219505263158,6.7728762105263165
976,1747679598290,4.341744833333333,1.1365882,-0.15383063777777775,-0.5235031299999999,-0.141724448,6.810260033333334
977,1747679598300,4.60143295263158,1.2168501684210526,-0.25500449157894733,-0.5902471784210527,-0.2916089094736842,6.764634542105263
978,1747679598310,4.9979873,1.2758093,-0.392139,-0.75513875,-0.35832804,6.4653516
979,1747679598320,5.039477,1.3456097,-0.45705822,-0.9190772210526316,-0.3202028378947368,6.148912168421053
980,1747679598330,4.651040710526315,1.4095783842105263,-0.46360920947368417,-1.337837942105263,-0.03566530789473684,5.512052684210526
981,1747679598340,3.9408941444444445,1.424033411111111,-0.3586217933333333,-1.7639434333333333,0.307461714,5.092937
982,1747679598350,3.3046638666666666,1.4156269444444445,-0.11299172822222221,-2.2719558666666666,0.6459788066666667,4.810286844444445
983,1747679598360,2.8571172,1.3597649,0.16382343,-2.4635413368421055,0.6581016052631579,4.680025747368421
984,1747679598370,2.6132226666666667,1.2978557333333334,0.282435265,-2.3649887555555558,0.5025233277777779,4.515504611111111
985,1747679598380,2.309606736842105,1.2533045842105264,0.31429114526315793,-2.2114661473684207,0.3325795184210526,4.318060105263157
986,1747679598390,2.161066,1.2299265,0.3009836,-2.0730379052631576,0.19869269684210528,4.126424910526316
987,1747679598400,2.161066,1.2299265,0.3009836,-1.9281622210526315,0.06317994768421052,3.8537733894736843
988,1747679598410,1.6314617,1.1225413,0.16040663,-1.8779266,0.010253162,3.6914048
989,1747679598420,1.4106711499999998,1.0373923744444447,0.10183288288888889,-1.8680433611111111,-0.055970726888888885,3.43958835
990,1747679598430,1.1506689,0.92583114,0.07693905,-1.8811224999999998,-0.11331742,3.2695603
991,1747679598440,0.8488857052631579,0.8039823515789474,0.09178800421052631,-1.888747447368421,-0.23341188000000002,3.080840615789474
992,1747679598450,0.8133818,0.7896472,0.09353494,-1.8896445,-0.24754064,3.0586383
993,1747679598460,0.8133818,0.7896472,0.09353494,-1.8896445000000002,-0.24754064000000003,3.0586383
994,1747679598470,0.8133818,0.7896472,0.09353494,-1.8896445,-0.24754064,3.0586383
995,1747679598480,0.29071392631578946,0.6396162078947368,0.26257668736842105,-1.6487828210526316,-0.46132224421052637,2.8490616789473684
996,1747679598490,0.12465223999999998,0.62661695,0.3317348,-1.4473358789473685,-0.4884584257894737,2.623730389473684
997,1747679598500,0.12465223999999998,0.62661695,0.3317348,-1.2759966789473685,-0.4310463184210526,2.3685156105263157
998,1747679598510,0.08467823157894737,0.6617611921052632,0.3740723157894737,-1.0837446157894737,-0.4056481952631579,2.0862769368421055
999,1747679598520,-0.0652243,0.7935521,0.532838,-0.8478167,-0.41372177,1.7920398
1000,1747679598530,-0.11913383555555557,0.8094971977777777,0.5776360555555555,-0.5722685222222222,-0.44307570777777777,1.5354296666666665
