id,timestamp,acc_x,acc_y,acc_z,gyro_x,gyro_y,gyro_z
0,1747679564720,-0.135122296,0.7907211000000001,-0.289537312,-0.11065426,-0.200029888,-0.285650446
1,1747679564730,-0.24680288,0.8145410999999999,-0.3008616,-0.27257434,-0.26138908,-0.30866015
2,1747679564740,,,,,,
3,1747679564750,,,,,,
4,1747679564760,,,,,,
5,1747679564770,-0.04130669,0.9287598999999999,0.3312467,-0.66778713,-0.021704746,-0.16804534
6,1747679564780,-0.0754747088888889,0.9048422533333333,0.3885730444444444,-0.3846637433333333,0.31917960599999995,-0.3148149933333333
7,1747679564790,-0.2866888085714286,0.8948707642857142,0.42628955999999996,-0.13355743007142856,0.14675908421428568,-0.29755096428571426
8,1747679564800,-0.46065125888888886,0.916692586111111,0.40741968444444443,0.24538052094444446,-0.37176222072222226,-0.09614004666666667
9,1747679564810,-0.359166828,0.9578514699999999,0.25197691200000005,0.602007132,-0.802969128,0.25465126800000004
10,1747679564820,-0.18131846999999998,0.9764152500000001,0.13350894726315787,0.6540929210526315,-0.7419351094736842,0.36643665999999997
11,1747679564830,-0.010683927368421052,1.0070380184210526,-0.058756782,0.5977461,-0.58416396,0.38056543
12,1747679564840,-0.007843728333333334,1.0168374222222223,-0.16077271777777777,0.3641574066666666,-0.3900492483333333,0.3517441461111111
13,1747679564850,0.009945333,1.014668,-0.17639238,0.19401114,-0.25606275,0.3432812
14,1747679564860,0.04207953883333334,0.9996178333333334,-0.10317519666666666,0.03688475358333333,-0.0030626333333333353,0.28202853333333333
15,1747679564870,0.03191048533333333,0.9933536933333333,-0.06542768,-0.012294917755555555,0.08363799222222222,0.25379905555555554
16,1747679564880,-0.0923018097894737,0.9892603831578948,0.02874416210526316,-0.018424855736842105,0.1259744285263158,0.2042362705263158
17,1747679564890,-0.2170279,0.9653684,0.09060626,0.11518163,-0.047271073,0.23142852000000003
18,1747679564900,-0.2449788894736842,0.9448162315789475,0.08649581789473684,0.2542265731578947,-0.17734536942105264,0.27897292421052633
19,1747679564910,-0.24528716947368423,0.9286314115789475,0.025918237999999996,0.3867117163157895,-0.2410929905263158,0.3250596042105263
20,1747679564920,-0.2284086784210526,0.9073599242105262,-0.07126792494736842,0.4572994463157895,-0.2541564815789474,0.3525321884210526
21,1747679564930,-0.19311029,0.8882464,-0.16174895,0.44541335000000004,-0.25606275,0.36245596
22,1747679564940,-0.09153109536842105,0.890096074736842,-0.22856925578947368,0.33877485526315787,-0.26155727105263155,0.31524795263157895
23,1747679564950,-0.0546322154,0.871552804,-0.24326405700000003,0.18096165975,-0.2665556,0.2394712605
24,1747679564960,-0.09988043,0.8618881,-0.23008497,0.003328949166666668,-0.2885532883333333,0.20550711
25,1747679564970,-0.14814953777777778,0.8317877744444444,-0.17780248444444446,-0.11207461499999999,-0.32441717166666667,0.24137098333333334
26,1747679564980,-0.14833221842105263,0.8070652263157894,-0.12031058884210526,-0.20972379,-0.38389438,0.2964096
27,1747679564990,-0.13697714,0.78086114,-0.054363754,-0.2607442947368421,-0.41815102210526317,0.3437858147368421
28,1747679565000,-0.12711207894736842,0.7553764747368422,-0.010382067263157895,-0.30615817789473687,-0.4280748010526316,0.40770160736842104
29,1747679565010,-0.12559635684210524,0.7202065631578948,0.03259770126315789,-0.3113162789473684,-0.41977695684210525,0.45995560736842106
30,1747679565020,-0.14447867578947368,0.6719602647368421,0.06573810631578947,-0.29073987894736836,-0.43351325105263155,0.5303190715789473
31,1747679565030,-0.17781603666666668,0.6082313266666667,0.08767756666666666,-0.23582274999999997,-0.46325653499999997,0.6522076450000001
32,1747679565040,-0.2094621275,0.5176454374999999,0.09426710949999999,-0.15070817549999999,-0.429860517,0.8520511505
33,1747679565050,-0.21263488,0.44015723,0.09011813,-0.10065261694444444,-0.40443031,0.9614892077777779
34,1747679565060,-0.21070810631578948,0.3973829852631579,0.06314338842105263,-0.054980217368421055,-0.3938181505263158,1.075173436842105
35,1747679565070,-0.16664934736842107,0.34744118842105265,0.036297093210526314,-0.019994717631578948,-0.38462325421052634,1.2140501578947367
36,1747679565080,-0.06024039274210526,0.29390273157894736,0.011223422157894737,0.015439314894736843,-0.36982169315789476,1.326856
37,1747679565090,0.0031117299,0.2536975,-0.013850249000000002,0.024634222,-0.36152384,1.3456943
38,1747679565100,0.011589508136842105,0.22710811315789473,-0.040439644526315786,0.014430117894736843,-0.34818002000000003,1.3590380684210528
39,1747679565110,0.009328766894736842,0.1801463594736842,-0.07507008263157894,-0.032385417,-0.2986732952631579,1.4038352263157896
40,1747679565120,0.05403833983333333,0.11531704666666667,-0.10057192,-0.13645730933333333,-0.23463910666666665,1.4960148222222223
41,1747679565130,0.104639546,0.046273253199999996,-0.0965124375,-0.237101051,-0.214197888,1.56673654
42,1747679565140,0.125411525,-0.075617065,-0.06195664555555555,-0.34400618833333335,-0.21593781388888889,1.6652142444444447
43,1747679565150,0.1300215,-0.1641285,-0.04997072,-0.46361160999999995,-0.2347574722222222,1.8570208
44,1747679565160,0.12725551499999999,-0.2222141188888889,-0.029686852666666666,-0.5511407727777777,-0.23102905166666668,2.0165735999999996
45,1747679565170,0.13012996555555556,-0.27596094666666665,0.0001423669333333337,-0.707912045,-0.17226201333333335,2.345799283333333
46,1747679565180,0.17707030555555553,-0.34079883055555554,0.03921864462777778,-0.84675145,-0.119709,2.7145581
47,1747679565190,0.2513821878947368,-0.37805109210526316,0.07799234894736842,-0.9108915410526317,-0.1320997036842105,2.9579988368421053
48,1747679565200,0.3897845682352941,-0.4026154705882353,0.12554950235294118,-0.9545937247058823,-0.18199559882352942,3.189728305882353
49,1747679565210,0.5273210284210526,-0.40304767999999996,0.15603928421052632,-0.9584919684210527,-0.2988975831578948,3.3257390842105266
50,1747679565220,0.7055627222222222,-0.38345461000000003,0.19012737777777777,-0.9528043355555555,-0.49894285,3.426864333333333
51,1747679565230,0.8303030544444445,-0.3606488205555556,0.24043028555555557,-0.9711505333333333,-0.7512919811111112,3.592335233333333
52,1747679565240,0.9303122777777778,-0.35717776944444446,0.2942855827777777,-1.0157733,-0.9342806233333333,3.8465782666666666
53,1747679565250,1.0702384555555555,-0.3619233333333334,0.36031662444444446,-1.0419314666666666,-0.9856500111111112,3.9952417888888885
54,1747679565260,1.4793952076923076,-0.3662454546153846,0.5012231853846154,-1.1082327076923078,-0.7491978846153846,4.7744500692307685
55,1747679565270,1.9887614,-0.3535169,0.60361457,-1.0406294,-0.3956123,5.1082053
56,1747679565280,2.362143242105263,-0.2817897778947368,0.5441160142105264,-0.9013602263157895,-0.09285314315789474,5.04462617368421
57,1747679565290,2.5906067,-0.1914629,0.41764298,-0.77963984,-0.01957422,4.629902
58,1747679565300,2.4097172882352944,-0.15657708235294115,0.2944658476470588,-0.7285071905882353,-0.12986033764705884,4.188757529411765
59,1747679565310,1.9282352999999999,-0.20561823,0.13014352,-0.7514695361111111,-0.22629455277777774,4.026370994444445
60,1747679565320,1.8013254666666667,-0.28371655500000004,0.09394170333333335,-0.8107691833333334,-0.3111013611111111,4.163316522222222
61,1747679565330,1.67719184375,-0.48375195312499997,0.077183105625,-0.87218458125,-0.474108909375,4.5029360625
62,1747679565340,1.7302486153846153,-0.7185514838461539,0.09038096692307693,-0.9049312130769231,-0.8187678076923077,5.2184192846153845
63,1747679565350,1.96191526,-0.84377914,0.085236992,-0.890640299,-1.20052549,5.98449149
64,1747679565360,2.4053977625,-0.87128436,-0.016961978875000006,-0.9048748875,-1.34842401875,6.27320464375
65,1747679565370,3.256883016666667,-0.9080962583333333,-0.24879602666666667,-1.2334422,-1.8986993,7.3058443
66,1747679565380,3.6010036000000003,-0.8914190500000001,-0.36431646,-1.5795345277777777,-1.962082477777778,7.3913615722222215
67,1747679565390,3.9173789421052625,-0.8524984315789472,-0.40824675473684213,-2.0433788578947367,-1.9995629105263155,7.4034561052631584
68,1747679565400,4.290169752631578,-0.7823640315789474,-0.40231231947368423,-2.912017452631579,-2.084952210526316,7.498713252631579
69,1747679565410,4.6943803,-0.6829942,-0.33454147,-3.4758221999999996,-2.1266656,7.582812999999999
70,1747679565420,4.904012168421053,-0.6078502789473684,-0.28521620421052635,-3.865204042105263,-2.153577652631579,7.5424448421052634
71,1747679565430,5.241297776470588,-0.41898170000000007,-0.12333146117647059,-4.498224905882353,-2.134435905882353,7.299515294117647
72,1747679565440,5.345165415789474,-0.2562023010526316,0.16996338842105266,-4.886567657894737,-2.0777197157894736,6.978472115789473
73,1747679565450,5.353335,-0.23246452,0.21898035999999999,-5.042488473684211,-2.057087242105263,6.8125153421052635
74,1747679565460,5.041481010526315,0.24827687378947366,0.9179089421052632,-4.9849642473684215,-2.1754995526315795,5.6763273578947375
75,1747679565470,4.8324138526315785,0.36614368684210524,1.008646874736842,-4.618345157894737,-2.2347058315789474,5.037617605263158
76,1747679565480,4.043132421052632,0.5902653105263158,1.029558710526316,-4.2070976315789474,-2.344932510526316,4.416232468421053
77,1747679565490,3.4901502210526316,0.64144022,0.9953392894736842,-3.819117315789474,-2.631544552631579,3.8354396684210523
78,1747679565500,3.0030634,0.69446486,1.1190635,-3.5365422000000004,-2.9266787,3.4751563
79,1747679565510,2.435115222222222,0.8172528066666667,1.353358522222222,-3.0477044333333336,-3.2945497777777777,3.1213703888888893
80,1747679565520,1.79119715,1.015644275,1.6747817999999999,-2.29524367,-3.7465589799999997,2.78625035
81,1747679565530,1.6002223,1.0766586,1.7721606,-1.9652782999999998,-3.933353,2.6602297
82,1747679565540,1.5613087316666665,1.0894580444444444,1.7894615444444446,-1.8240125016666668,-3.978981777777778,2.6398713277777777
83,1747679565550,0.7511343752631578,1.2954623578947368,1.9504765578947367,0.57750607,-4.754671,2.293779
84,1747679565560,0.31213959736842106,1.235963705263158,1.2494414000000003,2.5335544815789475,-4.439913642105263,1.9735270842105264
85,1747679565570,0.14724109666666668,1.226699488888889,0.9576060111111112,3.2035585833333333,-4.143091344444445,1.8712835444444442
86,1747679565580,-0.6593880768421053,1.3957827157894735,-0.38119495789473684,2.380212468421053,-2.8642206736842106,2.1836642052631574
87,1747679565590,-0.6516450600000001,1.4967298599999999,-0.601540128,0.9900294367499999,-2.187385725,2.643984275
88,1747679565600,-0.3576049,1.5486653,-0.49805984,-0.031824753,-1.7527581,2.8892612
89,1747679565610,-0.3576049,1.5486653,-0.49805984,-0.031824753,-1.7527581,2.8892612
90,1747679565620,0.2943105526315789,1.6773219736842104,0.270592067368421,-1.5245394873157894,-0.5892659736842105,2.5717006105263156
91,1747679565630,0.56623315,1.7640864333333335,0.734022525,-1.8940831666666667,-0.03999176833333333,2.2289754999999998
92,1747679565640,0.7575569073684211,1.9708329,1.410133924736842,-1.4074164578947368,0.3511936041052632,1.3912202842105263
93,1747679565650,0.8784294915789475,2.0449750315789474,1.6642616526315788,-0.5451136084210526,0.11806905789473683,0.7216740631578947
94,1747679565660,0.9150894010526316,1.9567804157894737,1.4279372,0.6146220794736842,-0.5219301442105263,-0.18458496315789472
95,1747679565670,0.787871347368421,1.8888297210526315,1.0136821484210525,1.070947394736842,-0.8845122684210525,-0.6696724052631579
96,1747679565680,0.40840944,1.778784111111111,0.1082326111111111,1.2744252299999999,-1.218824411111111,-1.2154362777777779
97,1747679565690,0.2285435536842105,1.6643998,-0.37122714210526314,0.31332067,-1.0890989,-1.8138776999999997
98,1747679565700,0.23077860315789475,1.544786057894737,-0.44228633842105264,-0.36536442736842106,-0.6282322157894736,-1.7777147789473684
99,1747679565710,0.3881056115789474,1.461986394736842,-0.19255152421052632,-2.3526978894736845,0.7616564789473684,-1.6809439263157895
100,1747679565720,0.7202033105263158,1.3837083000000001,0.33204310526315794,-3.092327,1.6070833,-1.7190692000000003
101,1747679565730,1.0462123,1.3314543,0.7768952,-3.309641,2.1535635,-1.9225346000000003
102,1747679565740,1.4455157157894738,1.2930216894736843,1.1564170842105264,-3.0456797894736845,2.329948789473684,-2.3073750421052632
103,1747679565750,2.0383322444444447,1.214306788888889,1.7435245555555554,-2.1530013333333335,2.4373971777777776,-3.200851
104,1747679565760,2.2022629599999997,1.1431397,1.9128351600000002,-1.012080336,2.40070472,-3.9712494400000002
105,1747679565770,2.251752631578947,1.094410472631579,1.8460970842105264,-0.4371855852631579,2.3946495578947364,-4.279402147368422
106,1747679565780,2.3637147333333335,0.9200280655555555,1.28556482,1.9774400333333335,2.4949215944444445,-5.1946692500000005
107,1747679565790,2.6603042842105267,0.9081049294736842,0.7231769642105262,2.6614981157894735,2.7350852736842106,-5.2803578894736845
108,1747679565800,2.9248110052631575,0.9540647152631578,0.2936618810526315,2.8166902,2.814027,-5.2866373
109,1747679565810,3.7255812333333336,1.0812142333333332,-0.45613619333333333,2.5226774,2.6968482,-5.2120686
110,1747679565820,4.558928242857143,1.14063645,-0.67528025,1.87020345,2.5919195,-5.359987914285715
111,1747679565830,5.3299055,1.1347442,-0.6249696,1.337039,2.695783,-5.7457657
112,1747679565840,5.66065198,1.02423508,-0.46252508,1.12654292,2.91991428,-6.2212995399999995
113,1747679565850,5.812325266666667,0.9050592311111111,-0.28437413666666667,1.1016158,3.076082,-6.65124
114,1747679565860,5.9004222,0.7849879509090908,-0.047530146781818175,1.479009609090909,3.0141998,-7.032120245454546
115,1747679565870,5.918083,0.76084846,0.0012813006,1.5628749,3.0004481999999997,-7.1167603
116,1747679565880,6.138710833333334,0.50117157,-0.15361369500000002,2.6854852166666667,2.4671062916666666,-7.775536983333333
117,1747679565890,6.110400429411764,0.13861733882352942,-0.6000470352941176,3.1388383529411765,2.037575217647059,-8.326962823529412
118,1747679565900,5.732208886666666,-0.12940728986666666,-0.9306594066666667,3.006236133333333,1.8647350933333333,-8.6265228
119,1747679565910,5.183958666666666,-0.30047514166666667,-1.12317175,2.6366607444444443,1.8876027666666668,-8.746495000000001
120,1747679565920,4.749536999999999,-0.3696247,-1.163848,2.1764667,1.9671425,-8.694415
121,1747679565930,4.372468666666667,-0.3773531666666667,-1.0247353666666668,1.76101395,1.9813459166666665,-8.509769166666667
122,1747679565940,3.9215513529411767,-0.37884145823529414,-0.7559852817647059,1.344245194117647,1.9322394823529412,-8.11867205882353
123,1747679565950,3.6024679999999996,-0.35595748,-0.5327159,1.1665969,1.8201361000000003,-7.66111
124,1747679565960,3.439512923076923,-0.3383102646153846,-0.4358439923076923,1.1305417461538463,1.6693603307692308,-7.174366153846153
125,1747679565970,3.2978845,-0.33838537,-0.44290292,1.0707232,1.5112096,-6.7705493
126,1747679565980,3.19948066,-0.35166209000000004,-0.48859043199999996,0.975701656,1.48436496,-6.63589998
127,1747679565990,2.7480379529411767,-0.46704661588235297,-0.5410713111764707,0.5361487517647059,1.5681698823529413,-6.243431882352941
128,1747679566000,2.259665211764706,-0.6179601623529412,-0.4099982147058823,-0.06259207035294118,2.0095650882352944,-5.935758664705882
129,1747679566010,1.7322717647058823,-0.7114484117647057,-0.1948833002352941,-0.24869988588235295,2.149929288235294,-5.720951229411765
130,1747679566020,1.3498195,-0.8406552,-0.011409677,-0.22720662788235294,2.040019117647059,-5.4334555
131,1747679566030,0.8903240915789473,-1.1327017789473683,0.20587834015789475,-0.030759487,1.779656,-5.152414
132,1747679566040,0.50831026,-1.2950897,0.30488852,-0.030759487,1.7796560000000001,-5.152414
133,1747679566050,0.3049206347368421,-1.3084486368421053,0.3219211542105263,0.5501456135789474,1.1200335847368421,-4.655328415789474
134,1747679566060,0.2110485,-1.3146143,0.32978237,1.1811554466666667,0.5488031033333334,-4.003349533333333
135,1747679566070,-0.2353450494736842,-1.2883075210526316,0.03588605168421053,1.6069432052631578,0.051237777894736845,-3.1845916
136,1747679566080,-0.3535458410526316,-1.2899259947368422,-0.3319210529473684,1.6680557526315791,-0.27366763684210527,-2.4160879736842102
137,1747679566090,-0.3932914833333333,-1.1927484222222224,-0.5930794355555555,1.2873267333333334,-0.35335683333333334,-1.760141
138,1747679566100,-0.3731988631578947,-1.0899018478947369,-0.6715203042105263,0.7407156600000001,-0.32894921368421054,-1.1695613578947368
139,1747679566110,-0.2902451,-0.9651243700000001,-0.6386368,-0.009454215,-0.26991117,-0.48229810000000006
140,1747679566120,-0.029266533333333327,-0.7911115833333333,-0.40962977,-0.4923145466666667,-0.3255416122222222,-0.09679104
141,1747679566130,0.27899919578947374,-0.6764174842105263,-0.2346835394736842,-0.8012254578947369,-0.3606267810526316,0.053305227894736844
142,1747679566140,0.52051306,-0.64540935,-0.07876948,-0.9213199,-0.31678277,-0.03914844
143,1747679566150,0.4741165010526316,-0.6474646236842105,0.08513423242105263,-0.8818490789473683,-0.22528223947368423,-0.1961346631578947
144,1747679566160,0.34283942,-0.6205156,0.22434962,-0.7205457342105263,-0.15430203736842107,-0.2524814905263158
145,1747679566170,0.11347698736842106,-0.48456283157894736,0.35799022210526316,-0.2909641457894737,-0.2751814278947369,-0.10121406105263157
146,1747679566180,-0.07368495000000001,-0.43600828,0.42105975333333334,0.0750567,-0.44035335333333336,0.18455692666666665
147,1747679566190,-0.18139555499999999,-0.3697467225,0.43899797000000007,0.6427534300000001,-0.59268607,0.7201182375
148,1747679566200,-0.08626460736842105,-0.3044742531578947,0.34612134157894736,1.1568973157894735,-0.851993664736842,1.2114150657894736
149,1747679566210,0.1436887,-0.28469276,0.18334801,1.7149272263157895,-1.3160561,1.7204989526315788
150,1747679566220,0.3477205666666667,-0.27536435555555555,0.09288412333333335,1.8573611,-1.512363622222222,1.7596084
151,1747679566230,1.0560517947368422,-0.21358221,-0.22319998368421054,1.8151181368421054,-1.6070413210526315,1.5048110821052632
152,1747679566240,1.0252235,-0.05820765,-0.22032267000000003,1.6001592,-1.2659327,0.97498256
153,1747679566250,0.9720447168421052,-0.05312098547368421,-0.25731663,1.3599702315789473,-0.9702379368421054,0.6591038189473684
154,1747679566260,0.7459192252631578,-0.06157307978947369,-0.20740048789473683,1.077170757894737,-0.7378422342105263,0.46393633368421056
155,1747679566270,0.63082695,-0.027456441999999998,-0.12123544,0.9451341157894736,-0.6541910210526316,0.44094906473684214
156,1747679566280,0.6065754131578948,-0.043487146842105265,-0.03409415494736842,0.8318798315789473,-0.7506814578947368,0.46623506315789476
157,1747679566290,0.6725222289473685,-0.12885580736842106,0.044466586315789466,0.8118641,-0.7695198,0.4711128500000001
158,1747679566300,0.7217446884210525,-0.19467418842105264,0.10943718999999999,0.7910073421052631,-0.8226708694736842,0.3944138710526316
159,1747679566310,0.6061386463157895,-0.2536332815789473,0.13409982052631578,0.7700945126315789,-0.7090240684210526,0.3106505031578947
160,1747679566320,0.3857164405263158,-0.3395157468421053,0.1149349094736842,0.7259701873684211,-0.4387274263157895,0.3360486410526316
161,1747679566330,0.26610269736842107,-0.37702349736842106,0.05368939052631578,0.63716084,-0.2752375,0.47430864
162,1747679566340,0.18224975,-0.42331728,-0.06510227,0.401560015,-0.1925020216666667,0.6985466316666666
163,1747679566350,0.1279714165,-0.5080539949999999,-0.240994341,0.12370374000000002,-0.09840373,0.88763094
164,1747679566360,0.14466494,-0.597086,-0.37407872,-0.16687651555555552,0.032978786666666676,1.014870751111111
165,1747679566370,0.19982187,-0.6761606,-0.38872218,-0.9559690178947369,0.4421334684210526,1.2682103526315789
166,1747679566380,0.21600671210526318,-0.7089156657894736,-0.3428651115789474,-1.3805607,0.7251571894736842,1.3592062631578947
167,1747679566390,0.17818212555555554,-0.7920607,-0.20952993333333333,-1.807737611111111,1.0429671111111112,1.467371077777778
168,1747679566400,0.0389753,-0.8838404578947369,-0.13408056105263158,-2.082457242105263,1.206039705263158,1.7055291736842106
169,1747679566410,-0.06301493394736842,-1.024623005263158,-0.15324547315789475,-2.3659855789473685,1.0432786,2.3522002
170,1747679566420,-0.057414465,-1.1418219,-0.16858254,-2.7442101631578946,0.5740579510526316,3.4878835210526318
171,1747679566430,0.24038676710526313,-1.2088733210526315,-0.09320738842105263,-2.959841921052632,0.20267341400000002,4.582750184210526
172,1747679566440,0.6405892726315789,-1.274434810526316,0.1136247034736842,-2.9159419578947365,-0.018340756631578945,5.465629373684211
173,1747679566450,0.8751410884210526,-1.2850449263157895,0.2102970710526316,-2.625069031578947,-0.22847802947368423,6.386353626315789
174,1747679566460,1.4420732,-1.3502468,0.11550009,-2.2571604,-0.5735113,7.2813435
175,1747679566470,2.107501747368421,-1.4848121473684213,-0.18091385842105265,-1.9927508210526317,-1.2688481736842103,8.081637236842106
176,1747679566480,2.5108897894736844,-1.5543042684210526,-0.3720749105263158,-1.9474491473684212,-1.7203517789473683,8.42044652631579
177,1747679566490,3.406708210526316,-1.6286518157894736,-0.7486937494736842,-2.3645838947368425,-2.9785963473684207,9.36253247368421
178,1747679566500,3.9506478684210524,-1.5380423789473685,-0.8348588163157895,-2.8153586,-3.3953948,9.842237
179,1747679566510,4.7034747368421055,-1.4070991736842107,-0.7798560315789473,-3.4013658263157898,-3.3647823999999997,10.207398789473686
180,1747679566520,5.471304210526315,-1.333419542105263,-0.6206793284210527,-4.375129026315789,-2.7219237684210524,10.444223315789474
181,1747679566530,6.0608955263157895,-1.1021047263157895,-0.20634718631578947,-5.8609476,-0.9506146300000001,10.205492
182,1747679566540,5.979328778947369,-0.8015289094736842,0.33597367789473687,-6.717531542105263,0.014177819999999999,9.701341736842105
183,1747679566550,5.596904,-0.48384347999999994,1.0975864,-7.212878836842106,0.2630570468421053,8.921905631578948
184,1747679566560,5.533551842105263,-0.3951094052631579,1.2523957789473685,-6.980539300000001,-0.12716585,8.439285
185,1747679566570,4.932173083333334,0.42185294166666665,2.6472686999999997,-5.868581916666667,-0.6638812,7.786810966666668
186,1747679566580,4.583475263157895,0.7659865,3.036891110526316,-4.176316968421052,-1.149370447368421,6.988059468421054
187,1747679566590,4.292174,1.0254065,2.9914706,-2.7493124,-1.4672675,6.3684125
188,1747679566600,3.8821575263157895,1.2909150263157896,2.7598732842105265,-1.7124183894736842,-1.6164044157894735,5.91550697368421
189,1747679566610,3.043037268421053,1.660443536842105,2.0665965684210525,-0.014444152631578938,-1.7073442315789473,5.240634494736842
190,1747679566620,2.5147690105263156,1.8209304105263158,1.4009623789473684,0.23449115,-1.7144086000000003,5.1444244
191,1747679566630,2.184495389473684,1.9539800210526317,0.7703185394736842,0.7148689868421052,-1.3282225052631578,4.677390368421052
192,1747679566640,1.8617489052631577,2.0903437052631575,0.34589014315789474,0.47395119526315793,-0.8929782589473685,4.133433094736842
193,1747679566650,1.4211614,2.1750703157894735,0.46904911578947367,-0.12685747684210527,-0.6451082389473684,3.539632768421053
194,1747679566660,0.9573498947368421,2.1646400789473685,0.8684294789473683,-0.3972101694736842,-0.6473508852631579,2.998142421052632
195,1747679566670,0.6376606,2.102187,1.1776372,-0.2704438,-0.70453876,2.7646255
196,1747679566680,0.3210284063157895,2.0895218210526316,1.4772367,0.2413312842105263,-0.762623632631579,2.6264776263157894
197,1747679566690,0.20632149947368422,2.0630609210526316,1.5769919578947367,0.6597556210526316,-0.8136441684210526,2.562505763157895
198,1747679566700,0.12603951263157895,2.0208005263157895,1.626959536842105,1.317191457894737,-0.8877080315789473,2.5121019736842105
199,1747679566710,0.24000141473684208,2.010113278947369,1.4014248842105264,2.406731894736842,-0.9045840384210526,2.300002305263158
200,1747679566720,0.4259730547368421,2.0489314263157894,0.94925101,3.0452173421052633,-0.5290505605263158,1.7679872526315787
201,1747679566730,0.4427744652631579,2.0644995105263155,0.7058617373684211,3.1769736789473684,-0.24524191315789476,1.2781901789473684
202,1747679566740,0.34545982210526316,2.1336062157894737,0.5229986273684211,3.276043089473684,0.18254553684210525,0.38353695094736845
203,1747679566750,0.3360058,2.1641777,0.4357032,3.3216252631578946,0.521243305263158,-0.144104936
204,1747679566760,0.43820154947368417,2.1207097842105265,0.26229409157894734,3.359301852631579,0.7072719947368421,-0.5699861221052632
205,1747679566770,0.5375971,2.0870557,0.13941771,3.389802,0.71013135,-0.8807067
206,1747679566780,0.8082180684210526,2.0092655578947367,-0.05693277631578947,3.432973205263158,0.26967288368421055,-1.420458952631579
207,1747679566790,1.0432837,1.9225608999999997,-0.20567925,3.4356084,-0.2049301,-1.7446356
208,1747679566800,1.3736395399999999,1.8741399399999998,-0.39506768999999997,3.31629896,-0.8662457800000001,-2.10938184
209,1747679566810,1.7537986368421052,1.8824071368421051,-0.5937045921052632,3.0554215052631584,-1.435365647368421,-2.4738926473684213
210,1747679566820,2.4875631210526317,1.9242565736842105,-0.9250058868421052,2.1991737052631577,-1.8784031631578946,-3.1118172368421053
211,1747679566830,3.133878,1.8547131,-1.1516451,1.1094276833333334,-1.8120578166666665,-3.7420048333333336
212,1747679566840,3.455134436842105,1.6359093315789472,-0.986199985263158,0.8024448736842106,-1.7226504315789473,-3.9046537894736844
213,1747679566850,3.9407314999999996,1.2206523,-0.48195204,-1.7639434,-0.6821682,-5.221656
214,1747679566860,3.9941668684210523,0.9353879631578947,0.17407382105263156,-2.378544494736842,-0.39858381789473685,-5.7393743684210525
215,1747679566870,4.030137666666667,0.7047966166666666,0.8740300333333333,-2.4468957388888892,-0.37176219611111105,-5.896914805555555
216,1747679566880,4.250196,0.7320497,1.3279765,-2.0536952,-0.4872249699999999,-5.751092
217,1747679566890,4.676448094736842,0.8582658063157894,1.4952455842105263,-1.6838805105263157,-0.4443340684210526,-5.624325684210526
218,1747679566900,5.063665733333334,0.9276208933333332,1.5257712999999997,-1.2329094833333334,-0.08508793083333334,-5.617401583333334
219,1747679566910,5.7549796,0.97884042,1.481781415,-0.9492830550000001,0.37483964975000006,-5.7436353250000005
220,1747679566920,6.380327647058824,0.9833999882352942,1.4373427529411764,-0.6723615164705883,1.1261482058823529,-6.036833494117648
221,1747679566930,6.774723999999999,0.89703244,1.5110195,-0.4110025410526316,1.790701263157895,-6.311925410526316
222,1747679566940,6.965345421052632,0.6778947084210527,1.4753100789473683,-0.26601455263157897,2.017546342105263,-6.513036026315789
223,1747679566950,6.9120467111111115,0.1390448383333333,1.3966922,0.18051779333333334,2.5253406666666667,-7.167182666666666
224,1747679566960,5.860691152631579,-0.63122838,1.2726654157894737,1.3219571210526317,2.6411740631578944,-8.27756105263158
225,1747679566970,4.886209288888889,-0.8056736466666666,1.1148332111111112,1.9879152000000002,2.3996396,-8.451535
226,1747679566980,4.062786,-0.8097498263157895,0.7200941210526316,2.6967640210526316,1.8827062631578948,-8.158812105263157
227,1747679566990,3.845061,-0.8201543,0.4357032,3.0265472,1.5090791,-7.7442
228,1747679567000,3.776318155555556,-0.8645727722222223,0.18117860861111112,3.054243988888889,1.4413756777777778,-7.54108995
229,1747679567010,3.6524610842105267,-0.9486569684210526,-0.06921271552631579,3.0648966,1.4153359,-7.4629707
230,1747679567020,3.4407479578947364,-1.0132422631578948,-0.16023322631578946,2.7873674105263158,1.6108398263157895,-7.365527084210527
231,1747679567030,3.009768484210526,-1.0398573157894737,-0.17934674842105264,2.3651866842105265,1.9573868684210527,-7.216446236842105
232,1747679567040,2.520703536842105,-1.0275002263157893,-0.15103611210526316,2.1256144999999997,2.1371921578947366,-7.013934131578947
233,1747679567050,2.0793883,-1.0515206166666666,-0.07893218666666667,2.0101081333333335,2.1496576,-6.759896766666667
234,1747679567060,1.7491486578947366,-1.2252380736842106,-0.014389744,1.987859057894737,2.102935442105263,-6.491506236842105
235,1747679567070,1.4404547842105262,-1.4671887210526315,-0.03787061889473684,2.070949594736842,2.008295231578947,-6.385876910526315
236,1747679567080,0.9329698,-1.6811883,-0.113425605,2.1519656,1.7604814,-6.2581577
237,1747679567090,0.5789241111111111,-1.7193697222222224,-0.12600811611111112,2.169009866666667,1.4120218444444443,-5.9333704111111105
238,1747679567100,0.2303932452631579,-1.7615987894736842,-0.09659849631578947,2.1378369894736844,1.0273556842105263,-5.334686168421053
239,1747679567110,0.09726644263157895,-1.7803784052631577,-0.042109506947368425,2.1359868,1.0084052,-5.3036814
240,1747679567120,-0.015821975999999998,-1.7613676263157896,0.013972276789473681,2.126119047368421,0.907261224736842,-4.561753168421053
241,1747679567130,-0.0667657127368421,-1.6735068789473684,0.03054247994736842,2.124661210526316,0.7822328863157895,-3.4684002631578945
242,1747679567140,0.315505,-1.6421392,-0.014338363,2.0667446,0.64301974,-2.445579
243,1747679567150,0.6599596863157895,-2.006323957894737,-0.2058847604736842,1.964479252631579,0.5676663589473684,-2.2257982842105264
244,1747679567160,0.7980704494736842,-2.3654734421052632,-0.5830688531578948,1.514377394736842,0.3890384894736842,-2.098807652631579
245,1747679567170,0.7072040631578947,-2.3964302421052635,-0.697595902631579,0.9925664105263158,0.33751337,-2.0099422736842105
246,1747679567180,0.4105150511764706,-2.4097135882352942,-0.5292704541176471,-0.10789710617647058,0.2689869048235294,-1.6574093176470588
247,1747679567190,0.22618006,-2.429956,-0.28377756,-0.535161817,0.056166027400000006,-1.2631363869999999
248,1747679567200,0.098782174,-2.3645484,-0.02605311,-0.6837661,-0.26884592,-0.87005407
249,1747679567210,0.024588768666666667,-2.263888488888889,0.14099051666666665,-0.6203237355555555,-0.6267745244444445,-0.4695149588888889
250,1747679567220,-0.0025829390000000002,-2.072168033333333,0.23096628111111114,-0.43082515777777775,-0.9129753444444444,0.1180371311111111
251,1747679567230,0.031910483,-1.8793628,0.22337338,-0.3354249,-0.8984167,0.5030708
252,1747679567240,0.12115837384210526,-1.7128899894736842,0.19331581473684212,-0.32494044526315785,-0.6220088684210526,0.8700260894736842
253,1747679567250,0.3235317588888889,-1.5358387277777779,0.20715715277777777,-0.3352473472222222,-0.3463734361111111,1.0863026277777776
254,1747679567260,0.5419387521052631,-1.3397137421052632,0.24718824736842104,-0.27588225289473683,-0.06992194157894736,1.1602823684210526
255,1747679567270,0.6688999,-1.1769661,0.28585204,-0.12024163500000001,0.11038794,1.0932268
256,1747679567280,0.632419767368421,-1.1226055421052632,0.2686909663157894,0.17971418315789472,0.13769233315789475,0.9807574442105262
257,1747679567290,0.49561926999999995,-0.91875345,0.20433694,0.46565335999999996,0.10719215,0.93024147
258,1747679567300,0.3008073411111111,-0.85844425,0.07373918444444444,0.7479482,-0.0046605286,1.0282457
259,1747679567310,0.07304055926315789,-0.7588061052631578,-0.13233361252631579,0.90454197,-0.1463406,1.324389
260,1747679567320,-0.037889887,-0.6937327,-0.25985995,0.9396957,-0.30293435,1.784583
261,1747679567330,-0.03455015689473684,-0.6356214000000001,-0.35904997052631576,0.888675147368421,-0.35031055789473686,2.1905604789473685
262,1747679567340,0.024408938315789476,-0.5671826289473684,-0.47920320894736845,0.6355348631578948,-0.3158296315789474,2.985135015789474
263,1747679567350,0.03972032,-0.55608445,-0.49903607000000005,0.35699646333333335,-0.23742063166666666,3.459946616666667
264,1747679567360,0.528518138,-0.404378458,-0.641077352,0.014549724000000005,-0.15791645133333335,3.7330210666666668
265,1747679567370,1.1027892818181817,-0.18143437727272727,-0.7445576754545455,-0.57598078,0.03436685909090909,3.9572365545454544
266,1747679567380,1.1984065400000001,-0.0454190545,-0.65689229,-1.06491742,0.25675516600000003,4.14243738
267,1747679567390,1.260725847368421,-0.03870876421052632,-0.43894661105263155,-1.5313794947368422,0.40815716315789474,4.536663578947368
268,1747679567400,1.2841461090909092,-0.15179251545454545,-0.09709595363636363,-1.7160064999999998,0.38842174,5.1454897
269,1747679567410,1.3816826722222222,-0.21256030888888888,0.27283566277777777,-1.5450317388888888,0.19164389055555556,5.950059555555556
270,1747679567420,1.6534919266666668,-0.177209978,0.353179284,-1.0655566373333332,-0.3346792066666667,7.571876246666666
271,1747679567430,2.5222707,-0.08700641,0.17505006,-0.72850716,-1.0028125,9.2084055
272,1747679567440,4.055546316666667,-0.004487941668888889,-0.070200355,-0.7003368755555556,-1.374056988888889,9.889522305555555
273,1747679567450,4.738689944444444,0.02187024107777778,-0.1410311922222222,-0.7650812388888889,-1.4505784055555555,10.070203444444445
274,1747679567460,5.728895741176471,0.10869878764705881,-0.1713389605882353,-0.9900606999999999,-1.291373705882353,9.901766470588235
275,1747679567470,6.288995916666667,0.31240683055555557,-0.08891141233333334,-1.3008496,-0.8304765972222222,9.144193833333333
276,1747679567480,6.140961572222222,0.4771997,0.022622753444444445,-1.4900522722222223,-0.5248051055555556,8.459938999999999
277,1747679567490,5.582260411111111,0.5535082833333334,0.08963002333333334,-1.6060476666666668,-0.42597229611111115,7.981399000000001
278,1747679567500,4.614359749999999,0.52990930625,-0.07638992087499999,-1.8172066,-0.5095955,7.889609
279,1747679567510,4.2511725,0.48115885,-0.3116001,-2.266748,-0.5767071,8.194274
280,1747679567520,4.181397605263158,0.3808128110526316,-0.4072705442105263,-2.842999505263158,-0.5958818368421053,8.348457052631579
281,1747679567530,4.019806,0.17559919,-0.40727055,-3.7080494999999996,-0.5671197,8.406261
282,1747679567540,3.674452121052632,-0.0013551614736842111,-0.1661676594736842,-3.8609989315789477,-0.5426747105263159,8.388095526315789
283,1747679567550,3.4648197,-0.13288918,0.14088205,-4.882443477777778,-0.47089092444444447,8.228126111111111
284,1747679567560,3.437536626315789,-0.17173280105263156,0.5098965921052632,-5.010418578947369,-0.6045721547368421,8.101596578947369
285,1747679567570,3.381026783333333,-0.13722797055555558,0.8885648777777777,-4.798879422222222,-0.9818623399999998,7.689812777777778
286,1747679567580,3.1249293333333332,-0.061299049999999994,1.2154931555555555,-4.263406866666667,-1.3793240444444443,7.342300022222222
287,1747679567590,2.5278453684210525,0.1015342394736842,1.483299652631579,-2.9944911263157894,-2.2140173315789475,6.919994531578947
288,1747679567600,2.0213624473684213,0.3401194715789474,1.2715607484210527,-1.8212994894736843,-2.9250527684210526,6.87239412631579
289,1747679567610,1.9521014684210527,0.5774972526315789,0.6781163021052631,-0.5266116894736842,-3.346504789473684,6.854508789473685
290,1747679567620,2.094112866666667,0.6476058666666666,0.23923711416666663,-0.4057323,-2.8904598,6.679469
291,1747679567630,2.1238663210526316,0.7544258789473685,-0.06266170157894736,-0.832903,-1.6238613,6.261886
292,1747679567640,1.9199375,0.9639041,-0.11537806,-1.5690002,-0.6534061,5.9369807
293,1747679567650,1.8911129263157895,1.3211524789473683,0.43447006526315785,-2.0643478052631576,-0.7375058578947368,5.761212278947369
294,1747679567660,2.0805525789473687,1.5652611631578948,1.0101368884210524,-2.178274805263158,-1.0435169084210525,5.446903142105263
295,1747679567670,2.309067389473684,1.7387988210526315,1.4473076315789473,-1.8422121789473684,-1.0804646105263158,4.92643762631579
296,1747679567680,2.3150533157894735,1.9220729,1.801935642105263,-1.1278128842105264,-0.8376406152631579,4.040530894736842
297,1747679567690,1.917907894736842,2.1352761210526316,1.9371689947368422,-1.0459558,-0.80893457,3.9396112000000003
298,1747679567700,1.4524521705263158,2.2847162736842104,1.8238237,-0.03496448947368423,-0.616177922631579,3.1615202210526316
299,1747679567710,0.8697462221052632,2.4756975789473685,1.1914329342105265,2.013369294736842,-0.24955903928947373,1.6364551736842106
300,1747679567720,0.8030800468421052,2.6361585789473683,0.5471217362631579,2.297794842105263,0.036043755052631576,1.1074677473684211
301,1747679567730,0.8488856421052632,2.7361708421052633,0.02560995336842105,2.1630108736842106,0.21910089684210526,0.609933560168421
302,1747679567740,0.8823601147368421,2.8043526684210525,-0.44184958526315793,1.6907066000000002,0.22011009999999998,0.0023968432
303,1747679567750,0.8939207,2.7914047,-0.76554656,0.9013461999999999,0.05925529,-0.6442182
304,1747679567760,0.8791231421052632,2.7392021736842107,-0.8769394357894736,0.084288985,-0.06431529,-1.1214563
305,1747679567770,0.8393545736842105,2.582209094736842,-0.8612169947368421,-0.4461002063157895,-0.07048260789473684,-1.3428629684210527
306,1747679567780,0.9751531578947368,2.3568287157894736,-0.3813233894736842,-1.7729141157894737,0.05875069105263157,-1.922702894736842
307,1747679567790,1.143475705263158,2.069611873684211,0.37253091368421054,-2.4225005368421053,0.36184624,-2.411995110526316
308,1747679567800,1.2923248157894736,1.739184052631579,1.0901876989473684,-2.3939627684210527,0.8172744968421053,-2.8989887842105264
309,1747679567810,1.3958307368421052,1.529243452631579,1.495425494736842,-1.6786662815789475,1.1934247052631577,-3.4149128263157893
310,1747679567820,1.7042678315789475,1.0620922210526316,2.1444635789473687,0.11030384473684211,1.4013192789473685,-4.144282
311,1747679567830,1.8408628000000002,0.9512131,2.0669818,1.2145337,1.2608727,-4.498342
312,1747679567840,1.9883761157894737,0.8744506789473684,1.8954223789473685,1.8433757210526316,1.0760774157894737,-4.713637494736841
313,1747679567850,2.5440047105263157,0.7793197421052632,1.1912530421052632,3.1918311421052636,0.45087986052631585,-5.2717234315789465
314,1747679567860,3.0934158052631577,0.8609119831578947,0.6626507263157895,3.495151005263158,0.22941713210526316,-5.486794536842105
315,1747679567870,3.6762244736842105,1.003544174736842,0.27239036905263153,3.3400709736842105,0.18405933684210524,-5.533946442105264
316,1747679567880,4.4400725,1.1371847,-0.032886714,2.9264123,0.1764343,-5.5444307
317,1747679567890,5.406487710526316,1.177467047368421,-0.21307803631578948,2.9264123,0.1764343,-5.5444307
318,1747679567900,6.995557263157895,1.0473459684210524,-0.33754723263157893,1.2614613610526315,0.7308199,-6.1248312894736845
319,1747679567910,7.908049242105263,0.6801554315789473,-0.2729619705263158,0.38003980989473685,1.1962840631578948,-6.78467802631579
320,1747679567920,8.315131833333334,0.008419975000000008,0.035612025000000005,-0.192797929,1.7213624555555556,-7.531976
321,1747679567930,8.050064831578949,-0.39567460631578943,0.3581444057894737,-0.48831826736842104,2.4942237421052633,-8.590748526315789
322,1747679567940,7.591217810000001,-0.6878021344999999,0.5154367155,-0.15246586950000002,2.716608595,-8.9094385
323,1747679567950,7.184089222222222,-0.9924045877777777,0.3914474777777778,0.38658712111111115,2.636838377777778,-8.85846611111111
324,1747679567960,6.941496888888889,-1.2174253222222222,0.10053125555555556,0.7633945333333334,2.3985743,-8.758331416666667
325,1747679567970,6.4677,-1.4473815,-0.27694398,0.8992157,2.2387848,-8.816921
326,1747679567980,5.572446599999999,-1.5981317842105263,-0.5312773105263158,0.8105745326315791,2.344582242105263,-8.873155210526315
327,1747679567990,5.5227103,-1.6065068,-0.54540694,0.7611799336842106,2.396555894736842,-8.855662315789473
328,1747679568000,4.299855294736842,-1.5855435631578947,-0.41220304631578947,0.4395263631578948,2.926608584210526,-8.477438263157895
329,1747679568010,3.677277905263158,-1.6316319526315788,-0.11239799305263158,0.536185047368421,3.4084442368421053,-8.167726789473685
330,1747679568020,3.015754333333333,-1.6135032,0.30716637933333335,1.1444630833333334,3.7018651166666663,-7.7858641111111115
331,1747679568030,2.5544863,-1.5752676,0.58555436,2.171476847368421,3.5754663157894733,-7.336709105263157
332,1747679568040,2.368283268421053,-1.6447338736842105,0.6509103178947369,3.1341388,3.1751513,-6.879206
333,1747679568050,2.3845966,-1.9475959999999999,0.5081496736842105,4.219025894736842,2.667525152631579,-6.346350105263158
334,1747679568060,2.439727905263158,-2.2091225789473685,-0.11214110894736842,5.3145092,1.713777894736842,-5.961958152631579
335,1747679568070,2.4573514,-2.341119,-0.69623435,5.574658,0.7942872,-5.9332523
336,1747679568080,2.2103653,-2.5309956,-1.3649513,5.0208888157894735,0.04893905236842105,-6.105768926315789
337,1747679568090,1.9765843105263157,-2.505099947368421,-1.4588232894736841,4.294042836842105,-0.06072703078947368,-6.158247094736843
338,1747679568100,1.3184518578947368,-2.2755319210526315,-1.4158948526315789,3.1216921263157893,0.18204094421052633,-6.052000963157894
339,1747679568110,0.8679478736842104,-2.1381918736842103,-1.2785548894736842,1.9812993263157894,0.3663876052631579,-5.738925636842105
340,1747679568120,0.6507369,-2.2189877157894733,-1.1652609684210526,1.1794921676842105,0.19712282315789476,-5.439418578947369
341,1747679568130,0.3174574473684211,-2.5480796,-1.054330552631579,-0.12747421257894737,-0.36141171,-4.911720578947369
342,1747679568140,0.024537388421052634,-2.600539152631579,-0.9612548473684212,-0.90427566,-0.7407577,-4.450405
343,1747679568150,-0.13453656,-2.5695567,-0.8026433,-1.866040487368421,-0.9551560031578947,-3.631161484210526
344,1747679568160,-0.07010544,-2.4948752,-0.5141676,-2.703506,-0.86858934,-2.829074
345,1747679568170,0.18371409,-2.4016454,-0.05875678,-3.3479905,-0.5245092,-2.126
346,1747679568180,0.44621120111111107,-2.357823444444444,0.41894460666666666,-3.529085333333333,-0.24221431666666668,-1.7753506666666667
347,1747679568190,0.5777253042105263,-2.283341805263158,0.8424567163157896,-3.3408140789473686,-0.035048574,-1.5427400421052633
348,1747679568200,0.58006305,-2.1463616,1.2308416,-2.8430555,0.0677774,-1.3877722
349,1747679568210,0.3798847342105263,-2.002085221052632,1.4630814315789475,-1.7764462368421055,0.0677774,-1.1661973789473683
350,1747679568220,0.07352866842105264,-1.7933518842105263,1.4577122105263156,-0.5428709473684211,-0.11219608947368419,-0.7823660736842105
351,1747679568230,0.019270889315789474,-1.659480047368421,1.2404241815789474,0.6255550315789474,-0.5194631968421053,-0.25578942825263157
352,1747679568240,0.22862063,-1.4608689263157895,0.4535322215789474,2.0035016105263157,-1.149482547368421,0.46915052631578946
353,1747679568250,0.4176836322222222,-1.3824622666666668,-0.025510761111111106,2.2964865999999997,-1.2839237388888889,0.6494852944444445
354,1747679568260,0.5327159,-1.3209598,-0.30379027,2.3447785,-1.2819116,0.7843003
355,1747679568270,0.6892208947368421,-1.2443002,-0.5118555021052632,2.2756483157894736,-1.2953114736842104,0.9121320047368421
356,1747679568280,0.8015314411111112,-1.1100672000000003,-0.7843660611111112,2.1860542,-1.4907033,0.9483509700000001
357,1747679568290,0.75773674,-0.9436474,-1.1789796,1.833844410526316,-1.829793552631579,0.9715624721052631
358,1747679568300,0.698289532631579,-0.8668336157894737,-1.3553172789473684,1.4986787315789474,-1.9630635789473685,0.9990911315789474
359,1747679568310,0.5493660844444445,-0.7012171533333333,-1.655379188888889,0.45322528444444443,-1.995993377777778,1.1255398111111112
360,1747679568320,0.4173411,-0.7154666642105263,-1.595161347368421,-0.9343272905263158,-1.6324394473684212,1.3236601315789476
361,1747679568330,0.1725645260526316,-0.8044833284210526,-1.2784521684210526,-2.1443546894736842,-1.1872713578947367,1.5702406368421054
362,1747679568340,-0.22874267315789473,-0.8953496652631578,-0.5188432389473684,-3.166783505263158,-0.721246552631579,2.1714418210526314
363,1747679568350,-0.5904355163157895,-0.9053688789473684,0.5048869957894737,-3.2421929263157896,-0.5412169889473685,3.2840815578947367
364,1747679568360,-0.501264682631579,-0.8456904815789474,1.0699694157894737,-2.5074975,-0.60120815,4.629902
365,1747679568370,-0.12721483,-0.72936505,1.3392031,-1.1301116,-0.8653936,6.020071
366,1747679568380,0.6382000810526316,-0.5158792131578946,1.2123703710526315,0.4983962263157895,-1.1649008210526315,7.304722947368421
367,1747679568390,1.6856424,-0.32813495,0.74126285,1.9410435,-1.3586106,8.316779
368,1747679568400,2.3272560315789472,-0.25183495526315786,0.35282648157894736,2.610141252631579,-1.6093400263157893,8.67100710526316
369,1747679568410,3.6405408,0.11507299,-0.4531532999999999,3.457979,-2.342914,9.082705
370,1747679568420,4.272829063157895,0.3546087457894737,-0.7887191894736842,3.5403405684210525,-2.654868157894737,9.126436315789475
371,1747679568430,4.4986463,0.44015723,-0.90856415,3.5075136,-2.7834006749999998,9.0443545
372,1747679568440,4.4986463,0.44015722999999995,-0.9085641499999999,3.2949936,-2.7370617,8.737558
373,1747679568450,4.75319795,0.8138088649999999,-1.521147875,1.7548590966666666,-1.6099536327777777,8.331574888888888
374,1747679568460,4.7025697555555555,1.263986,-1.864509211111111,-0.45899545999999997,-0.19640799,8.386022
375,1747679568470,4.8578987,1.3656223,-1.3932618,-1.572196,0.099735305,8.934632
376,1747679568480,5.404641083333334,1.3647003333333334,-0.982052388888889,-2.33853485,0.05848593333333333,8.997186666666666
377,1747679568490,5.6353621947368415,1.2615255263157894,-0.5162227633684211,-2.8387945,-0.029161592999999996,8.441416
378,1747679568500,5.3352747,1.2269979,-0.024100652,-2.9851742647058823,-0.11638788664705882,7.583188799999999
379,1747679568510,4.959786236842105,1.2621421736842104,0.20341208610526315,-2.923006305263158,-0.1830641552631579,7.129234905263158
380,1747679568520,4.318044033333333,1.3070486,0.49395155,-2.7010203,-0.32175400666666665,6.603835533333334
381,1747679568530,3.4908525666666663,1.2716603166666667,0.7014002333333332,-2.126014666666667,-0.6317457411111111,6.1226913666666665
382,1747679568540,3.2898949578947367,1.2411788578947367,0.7194005157894736,-1.9703242210526313,-0.689176527368421,6.029434157894737
383,1747679568550,2.814831052631579,1.0984438578947369,0.6140191289473684,-1.3668243736842105,-0.7921146005263158,5.585892021052632
384,1747679568560,2.380446311111111,0.983320238888889,0.4102670177777778,-1.0304502527777777,-0.7612344694444444,4.9182334
385,1747679568570,2.1049328,0.93168855,0.30830532,-0.97777885,-0.7290398,4.608597
386,1747679568580,2.1049328,0.93168855,0.30830532,-0.97777885,-0.7290398,4.608597
387,1747679568590,1.595341242105263,0.8962360342105263,0.2910414757894737,-0.9986355763157895,-0.6691607473684211,4.0192257157894735
388,1747679568600,1.1050944642105265,0.8758637115789474,0.2960767652631579,-1.006092505263158,-0.6597976473684211,3.508571989473684
389,1747679568610,0.7381607594736842,0.8490944105263157,0.3198659252631579,-0.9788441000000001,-0.6970819,3.1822088
390,1747679568620,0.56346714,0.839923,0.34344956,-0.9466495,-0.6980880166666666,3.029284261111111
391,1747679568630,0.40881194,0.8704944315789473,0.37330162736842104,-0.8882406263157894,-0.7042023621052632,2.903222005263158
392,1747679568640,0.35357794,0.8814128,0.38396308,-0.8851008999999999,-0.70453876,2.8967183
393,1747679568650,0.26623113578947366,0.8941551578947369,0.4057483936842105,-0.8299314684210526,-0.73503892,2.8518651210526316
394,1747679568660,-0.0522507352631579,0.9713029052631578,0.591129147368421,-0.4523796249473684,-0.9769098452631579,2.683104821052632
395,1747679568670,-0.25558895,1.1215651,0.71636903,0.11764855957894736,-1.3331003157894736,2.5446766
396,1747679568680,-0.20672326888888887,1.2146051111111111,0.6789198005555556,0.2994722355555556,-1.386899277777778,2.5037541777777776
397,1747679568690,-0.10666264842105262,1.3318140210526315,0.6655280857894738,0.42730388,-1.3064127,2.428002
398,1747679568700,0.06345809157894737,1.4441573947368422,0.7060158689473685,0.47473615368421057,-1.095490405263158,2.3442388105263157
399,1747679568710,0.4204496,1.6101677,0.82717097,0.5648350089473685,-0.7599885000000001,2.048600063157895
400,1747679568720,0.5082331710526315,1.6503472000000001,0.8804525757894738,0.6445055226315789,-0.5676803921052632,1.8053275
401,1747679568730,0.5592025615789474,1.7140590736842107,0.9144150631578946,0.8687154789473684,-0.3222212236842105,1.2400089157894736
402,1747679568740,0.481540982631579,1.747456363157895,0.8817628000000001,1.1792118315789473,-0.13989294263157895,0.5729296105263157
403,1747679568750,0.3819142536842105,1.732684389473684,0.739413155263158,1.4688513842105264,-0.0653244902631579,0.002284706842105259
404,1747679568760,0.35550468947368424,1.723949736842105,0.5888683763157895,1.5813768263157895,-0.037291235947368426,-0.36242791789473683
405,1747679568770,0.37920394166666666,1.7217018333333334,0.21141459833333331,1.4522650166666666,0.0015535095599999997,-0.8002793083333333
406,1747679568780,0.49908745263157894,1.7233843894736842,-0.0697265152631579,1.0909631,0.058190025,-1.1704584
407,1747679568790,0.6669474,1.70535,-0.19689319,0.5823277494736842,0.15305455815789476,-1.5398245578947367
408,1747679568800,0.8150002747368421,1.6603663894736842,-0.2078115294736842,0.17057533526315788,0.2844744389473684,-1.840397110526316
409,1747679568810,1.0385568063157895,1.5458907157894737,-0.01081880010526316,-0.4759275494736842,0.6459913089473684,-2.4669403789473687
410,1747679568820,1.1247732105263157,1.4530461157894736,0.29689883547368423,-0.7246385789473685,0.8975056668421053,-2.9890316736842104
411,1747679568830,1.175101788888889,1.4221623,0.42444945,-0.6871986083333333,0.9554971111111112,-3.2067690611111113
412,1747679568840,1.3420869157894735,1.4096554210526318,0.6050275831578947,-0.5737636126315789,0.9454425147368422,-3.3534078894736843
413,1747679568850,1.6220077894736842,1.4274587157894736,0.7263368336842104,-0.27537766421052634,0.7964177505263158,-3.526204815789474
414,1747679568860,2.603169136842105,1.487984947368421,0.7199656715789473,0.37387249894736846,0.2734854263157895,-3.8617628052631576
415,1747679568870,3.167891868421053,1.5424482368421053,0.6430491094736842,0.6735479736842106,-0.009257977894736844,-4.174109436842104
416,1747679568880,4.4574384894736845,1.6521968263157893,0.3526466652631579,0.8205543810526316,-0.1800926357894737,-4.945136010526315
417,1747679568890,5.111853377777778,1.629204138888889,-0.004142193277777779,0.57750607,0.13062796,-5.528452
418,1747679568900,5.535812757894736,1.574895094736842,-0.28704024157894736,0.16709921631578947,0.6117346578947369,-5.842817052631579
419,1747679568910,5.9825144,1.4232198,-0.4687729500000001,-0.4011908889473684,1.2217382684210527,-6.1747308
420,1747679568920,6.260739900000001,1.2084494666666667,-0.47975552500000007,-0.87551355,1.6294539,-6.59052
421,1747679568930,6.373931105263158,0.8942064736842106,-0.3791910968421053,-1.1446328342105263,1.738895752631579,-7.063272505263158
422,1747679568940,6.202166,0.56413835,-0.20372678,-1.2760527,1.8425066,-7.468297
423,1747679568950,5.921356329411765,0.32054049588235295,-0.07072994211764706,-1.2128887941176472,2.0876426,-7.71192925882353
424,1747679568960,5.449056536842105,-0.047623281052631576,0.1253394462105263,-0.9090413210526315,2.410964942105263,-7.834467410526317
425,1747679568970,5.211344842105263,-0.18185476842105264,0.22452945105263156,-0.6844949663157894,2.5184444263157895,-7.830542684210527
426,1747679568980,4.6864890500000005,-0.30755280166666665,0.3685874566666667,-0.19735488444444443,2.664239144444444,-7.791486111111112
427,1747679568990,4.320766831578948,-0.28078785789473687,0.34576168736842106,0.9809606263157895,2.8298939210526313,-7.548416063157895
428,1747679569000,4.231159,-0.24954854,0.2878045,1.3146685,2.8065703,-7.3734884
429,1747679569010,4.2379932,-0.336921,0.15113245,1.7152076,2.785265,-7.114629700000001
430,1747679569020,4.214564,-0.48286727,0.065712415,2.003053031578947,2.7890774736842103,-6.957362968421053
431,1747679569030,3.9285288000000005,-0.72106713,-0.051923178,2.3846977736842105,2.7302637,-6.83048447368421
432,1747679569040,3.6154640375,-0.7842779787499999,-0.16937572475,2.6281385,2.6009743,-6.788659
433,1747679569050,3.3451803421052633,-0.8110343842105263,-0.25808731263157897,2.7482330789473686,2.4122544368421055,-6.745263557894737
434,1747679569060,2.566997394736842,-0.8859470463157895,-0.4730632336842105,2.7671274578947367,2.131080936842105,-6.6080688210526315
435,1747679569070,2.1005111529411766,-0.9329375823529411,-0.5661086905882353,2.6686187,1.7732645,-6.3423133
436,1747679569080,1.6841267473684212,-0.9803073168421053,-0.5999986894736843,2.498625010526316,1.5554460736842106,-6.110926768421053
437,1747679569090,1.2373477515789475,-1.0411160842105263,-0.6021052989473684,2.206462294736842,1.2866072368421053,-5.792357121052632
438,1747679569100,0.9437341084210525,-1.0996641,-0.592394392631579,1.959377257894737,1.139600794736842,-5.563269431578948
439,1747679569110,0.5488238,-1.1755017,-0.5771344,1.6550483105263156,0.9540206789473684,-5.2781151263157895
440,1747679569120,0.32254413894736844,-1.1870623526315789,-0.5289394768421053,1.3603066736842107,0.7983800531578947,-4.974234494736842
441,1747679569130,0.1558401852631579,-1.2389051999999998,-0.43989713052631585,0.9719339273684211,0.6889942852631579,-4.562538168421052
442,1747679569140,0.14612928,-1.4049156,-0.3418632,0.7144515822222223,0.6523112055555556,-4.3026296055555555
443,1747679569150,0.14612928,-1.5584403789473686,-0.2570854105263158,0.5615271,0.5929524,-4.1084557
444,1747679569160,0.14530719157894736,-1.8251564157894735,-0.15337392315789472,0.5103944494736842,0.4960694652631579,-3.9617855736842102
445,1747679569170,0.0962388405263158,-2.1025854052631576,-0.10795358578947367,0.46251363526315786,0.19308604842105265,-3.5842336842105267
446,1747679569180,-0.015382386666666668,-2.216758311111111,-0.11244937088888889,0.4275997861111111,-0.21960705055555554,-2.965250172222222
447,1747679569190,-0.05831363157894737,-2.1421481263157895,-0.200566882,0.29016520578947363,-0.4528001336842105,-2.288929289473684
448,1747679569200,-0.00924528189473684,-2.051590068421053,-0.3036874889473684,-0.018649117894736854,-0.4636209715789474,-1.6888494263157894
449,1747679569210,0.3650614954736842,-1.8576803105263158,-0.43776483000000005,-1.0818943421052634,-0.1064212412631579,-0.6168016631578948
450,1747679569220,0.5120867036842105,-1.7745466210526315,-0.35329534368421056,-1.5464614631578948,0.13595427042105265,-0.40554305263157897
451,1747679569230,0.5074424833333333,-1.6242416555555554,-0.041564305555555556,-2.0006686888888887,0.37658550444444444,-0.28226527777777777
452,1747679569240,0.41849715,-1.5279205,0.16235909,-2.1303942,0.4608596999999999,-0.22450430000000002
453,1747679569250,0.20177433,-1.3580565,0.4649900799999999,-1.8939056000000003,0.3777691,-0.060453713
454,1747679569260,0.07170466268421054,-1.2121873736842106,0.6328757610526317,-1.5191009263157895,0.27679332315789473,0.1300042124736842
455,1747679569270,0.020683851,-1.1257141,0.6924514,-1.0384989,0.1615206,0.3528686
456,1747679569280,0.030703044947368426,-1.0313023631578946,0.6608523999999999,-0.4018637052631579,0.010141029473684207,0.6371257842105263
457,1747679569290,0.10398873,-0.9514571988888889,0.5199300622222222,0.15069042666666668,-0.123970052,0.8812393333333334
458,1747679569300,0.19933375666666667,-0.8964629900000001,0.33401269333333333,0.6294080555555556,-0.23818999722222223,1.1111587638888887
459,1747679569310,0.3644962915789474,-0.8192038210526317,0.055590462105263146,0.8393366315789474,-0.2965427884210527,1.2494841894736841
460,1747679569320,0.46785096888888883,-0.7726988333333333,-0.15209512444444445,0.7460544722222222,-0.20978296222222223,1.306634688888889
461,1747679569330,0.48616523105263154,-0.7535395878947369,-0.21035487578947368,0.5720115163157894,-0.07210853842105264,1.3622899157894737
462,1747679569340,0.5075652131578948,-0.7189091389473684,-0.2100208936842105,0.3737603652631579,0.13090829,1.4546876157894737
463,1747679569350,0.47658277,-0.6712795,-0.21788209999999997,0.2536659,0.25100276,1.5566165
464,1747679569360,0.36097673578947365,-0.6408365263157895,-0.27337302105263156,0.15947417368421055,0.22072683105263155,1.7147239999999997
465,1747679569370,0.33014846,-0.6327184,-0.2881706,-0.00956634742105263,0.09065253526315789,2.0952473789473687
466,1747679569380,0.13408911833333334,-0.5521794833333334,-0.31216954999999996,-0.1300657328888889,-0.029753406666666666,2.4598416888888885
467,1747679569390,0.08295698894736843,-0.5397711189473684,-0.2775091294736842,-0.3211279184210526,-0.2233198905263158,3.202112357894737
468,1747679569400,0.13179412421052633,-0.5516143526315789,-0.22695075684210525,-0.46157454315789476,-0.3027100842105263,3.947068142105263
469,1747679569410,0.29733630055555554,-0.5259569527777778,-0.1731653988888889,-0.5893127305555556,-0.2860084944444445,5.003809638888889
470,1747679569420,0.6990859263157895,-0.43839745999999996,-0.08018243873684211,-0.6942505552631579,-0.23856999473684207,6.427338052631579
471,1747679569430,1.1257751,-0.36327922,-0.005064188,-0.6656566,-0.25286695,7.208904999999999
472,1747679569440,2.2156320263157894,-0.2278402815789474,-0.0021355002105263136,-0.4606214068421053,-0.4520151905263158,8.125704421052632
473,1747679569450,3.035279,-0.0933519,-0.075352676,-0.26298696,-0.74182296,8.655534
474,1747679569460,3.885317484210526,0.06407786842105263,-0.21264130252631577,-0.17372908042105265,-0.9611551452631578,8.654188315789474
475,1747679569470,4.674984194736842,0.15648564789473682,-0.3840465747368421,0.03780985231578947,-1.5190730052631578,8.196180105263158
476,1747679569480,4.830230526315789,0.12067346,-0.5257796210526315,0.02340075894736842,-1.534154847368421,7.888263263157895
477,1747679569490,4.694135833333333,0.10994779,-0.5759141,-0.09538548,-1.3541720166666666,7.7179236666666675
478,1747679569500,4.4447738947368425,0.09436666368421052,-0.605650547368421,-0.3502264376842105,-0.9960284947368421,7.938611084210527
479,1747679569510,4.2899385789473685,0.12650515157894737,-0.6425160578947369,-0.6804021284210527,-0.8479007842105263,8.439004894736842
480,1747679569520,4.533507715789473,0.1338525547368421,-0.7241596110526316,-1.1708719157894736,-0.8553576342105262,8.98598952631579
481,1747679569530,5.137045799999999,0.09451794777777778,-0.8448922377777778,-1.8904730444444446,-0.8416026777777778,9.39991611111111
482,1747679569540,5.464625,0.10579881,-0.8275371,-2.5277374,-0.6938861,9.099749
483,1747679569550,5.270277957894737,0.14859874368421053,-0.5969415484210526,-3.1662788578947367,-0.5093151605263158,8.48581987368421
484,1747679569560,4.7212267,0.2161127,-0.12416413,-3.5844790000000004,-0.5063997,7.9332848
485,1747679569570,4.05831255,0.2474604827777778,0.3944575427777777,-3.50902275,-0.7824805333333332,7.5941758
486,1747679569580,3.7182595777777774,0.24323017333333333,0.6299727666666666,-3.1710383444444443,-1.1558554555555556,7.41746031111111
487,1747679569590,3.445428090909091,0.24326961454545454,0.8345371636363637,-2.644529154545454,-1.5665306636363638,7.332185327272728
488,1747679569600,3.2931118444444447,0.27425255,0.9281023366666667,-1.8866855111111112,-2.0325674222222223,7.191506111111112
489,1747679569610,3.196431730769231,0.3742242530769231,0.9255824076923077,-1.0564445153846154,-2.3352934692307694,6.949472615384615
490,1747679569620,3.2486712235294117,0.46275408705882354,0.8417570470588235,-0.5413967652941176,-2.4245008529411765,6.695009529411765
491,1747679569630,3.3164332,0.515815,0.7705498,-0.12343743,-2.4451795,6.428067
492,1747679569640,2.9056033111111113,0.8721385377777777,-0.08305403622222222,0.2130083453611111,-2.088789694444445,4.475971288888889
493,1747679569650,2.4641309,0.9278378300000001,-0.20003881333333334,-0.10343413965555555,-1.8530113444444443,3.9877846
494,1747679569660,1.9853447263157897,0.9479761094736842,-0.2194492189473684,-0.5467395515789474,-1.5245113894736844,3.6439165157894737
495,1747679569670,1.5225145933333335,0.99745386,-0.12520543346666665,-1.0797601000000001,-1.1242526266666666,3.4910642800000002
496,1747679569680,1.2648877,1.0664082,0.007626788999999999,-1.5210633,-0.8334356499999999,3.4144363
497,1747679569690,1.0753451263157894,1.0707755,0.1478184083157895,-1.7698304736842105,-0.6780753521052632,3.3038731315789476
498,1747679569700,0.9651853749999999,1.0420024749999999,0.289146835,-1.7990972,-0.65979767,3.2908657
499,1747679569710,0.7840251928571428,1.0767283642857142,0.5367080642857143,-1.8501537,-0.604556165,2.9527205142857147
500,1747679569720,0.5167166622222221,1.152641688888889,0.7967452666666667,-1.675940861111111,-0.6239929855555555,2.6124702444444443
501,1747679569730,0.339422624375,1.19499574375,0.90218816875,-1.37958308125,-0.67857294125,2.3236728875
502,1747679569740,-0.038161062111111116,1.333786411111111,0.9927502822222222,-0.6351190555555556,-0.7828948,1.8957254444444445
503,1747679569750,-0.109154604,1.4017428,0.99312997,-0.3119891,-0.7961514,1.7664734
504,1747679569760,-0.076532285,1.4200470833333334,0.9740935083333334,0.06819167222222222,-0.7327090311111112,1.605026788888889
505,1747679569770,0.08657931,1.5115685,0.8789112000000001,0.42410809999999993,-0.62783974,1.4128059
506,1747679569780,0.23973876777777775,1.562332411111111,0.7830238222222223,0.6684085444444444,-0.51799926,1.1306293666666667
507,1747679569790,0.26819042,1.5763575666666665,0.7537261000000001,0.7250805666666668,-0.5002922133333333,1.0430883666666668
508,1747679569800,0.3434360011111111,1.6654601166666667,0.4609495522222222,0.9392222222222222,-0.4764539672222223,0.3592601677777778
509,1747679569810,0.37112434736842104,1.677013594736842,0.2723133,0.8308145157894737,-0.45033319,0.08571167368421054
510,1747679569820,0.41371877578947364,1.672183905263158,0.022784028631578954,0.4173800842105263,-0.32238943052631575,-0.23964228315789474
511,1747679569830,0.42142584999999994,1.671182,-0.022148196,-0.13622059368421052,-0.12206379589473683,-0.49816496
512,1747679569840,0.6388423336842104,1.5520563368421054,-0.10312381684210527,-1.0321074,0.27337328,-0.81785613
513,1747679569850,0.8170555126315789,1.5232832789473685,0.15388130894736843,-1.6510254157894737,0.6735760221052631,-1.1358654315789474
514,1747679569860,0.9769001599999999,1.4568998,0.43033394,-1.9229480421052632,1.0694055368421054,-1.5496923263157896
515,1747679569870,1.1396592222222222,1.340511511111111,0.7299820111111112,-1.8937872555555555,1.3438448555555556,-1.878977088888889
516,1747679569880,1.2780925210526315,1.268693010526316,0.9404135368421053,-1.6542213,1.5048181,-2.2463746
517,1747679569890,1.4273527789473683,1.1971714736842105,1.0796804,-1.2062499157894735,1.4809898263157895,-2.6238143263157894
518,1747679569900,1.5753286,1.108386,1.0560968,-0.44621232000000005,1.4856433,-3.1880677
519,1747679569910,1.654403,1.0356569,0.9301631499999999,-0.1585911252631579,1.5361031736842103,-3.4191737736842103
520,1747679569920,1.7696236842105264,1.0102236894736842,0.8322833736842106,0.17023893789473685,1.6297342631578946,-3.696086421052632
521,1747679569930,1.9908680210526315,1.0025166157894738,0.7883017210526316,0.5268219315789474,1.7071060315789475,-3.9797830105263157
522,1747679569940,2.3592660684210527,1.0331907,0.7905624347368421,0.9155870842105263,1.7220757526315789,-4.226924147368421
523,1747679569950,3.1398637947368417,1.1375701263157896,0.8039983905263158,1.5241890263157896,1.6882115999999998,-4.462515473684211
524,1747679569960,3.867026,1.2196761,0.7563944,1.9964372,1.6688687,-4.615521
525,1747679569970,4.614483263157895,1.2623989789473684,0.572118347368421,2.3193803315789476,1.5957018578947366,-4.819042578947368
526,1747679569980,5.638394,1.2865478,0.1867648,2.5710067,1.4732525842105264,-5.275984473684211
527,1747679569990,6.458426,1.1611023,-0.18371409,2.4747405,1.4142706,-5.921534
528,1747679570000,6.967709368421053,0.9107766578947368,-0.43856121421052635,2.2754240526315788,1.5000523631578946,-6.421086894736842
529,1747679570010,7.263789221052631,0.6431101578947369,-0.6511736057894737,2.0582784736842106,1.5675003947368422,-6.864628894736843
530,1747679570020,7.247809836842105,0.0758953947368421,-0.9741256210526316,1.6063824947368421,1.6139234684210526,-7.673444368421053
531,1747679570030,6.642059621052631,-0.4618526131578948,-1.156474905263158,1.040671457894737,1.7753950157894736,-8.501042210526316
532,1747679570040,5.578252694736842,-0.6245745794736842,-1.0818190315789473,0.45337481578947364,2.0130608736842106,-8.881117052631579
533,1747679570050,4.625273315789474,-0.5250249289473684,-0.8301061210526315,-0.025713493789473674,2.1471719631578945,-8.662625631578948
534,1747679570060,4.123619989473684,-0.4071581442105263,-0.5627992599999999,-0.31355894947368423,2.1441444315789475,-8.105212799999999
535,1747679570070,4.218211652631578,-0.44176286947368426,-0.38779733684210527,-0.32656637894736845,2.1284459263157895,-7.556938042105263
536,1747679570080,4.713313905263157,-0.5687754315789474,-0.29572355052631577,-0.1835967826105263,2.1535636210526317,-6.993806431578948
537,1747679570090,5.07755,-0.6932446,-0.25205013,0.0022636852,2.2984395,-6.8994465
538,1747679570100,5.049629899999999,-0.7925515025000001,-0.23586914050000002,0.16567512482,2.481238675,-7.07878358
539,1747679570110,4.550180905263158,-0.9897870142105263,-0.15625123642105263,0.5193090115789474,2.868747947368421,-7.438525921052633
540,1747679570120,3.8845982999999995,-1.14231,-0.023612538,0.83316934,3.1101704,-7.4970593
541,1747679570130,3.42696646,-1.23026817,0.057292436550000006,1.085956392,3.10047638,-7.42174518
542,1747679570140,2.8151393526315793,-1.3127903684210525,0.1578889807894737,1.6500022473684213,2.8307910210526317,-7.145466015789474
543,1747679570150,2.157315147368421,-1.3179026315789475,0.21163294210526315,2.4870752526315787,2.1177371789473685,-6.599714731578947
544,1747679570160,1.6848459684210526,-1.2718658157894736,0.11352194315789474,2.952539552631579,1.645881394736842,-6.267296336842105
545,1747679570170,1.3690102315789474,-1.2763358157894735,-0.15005988210526314,3.162452347368421,1.2184863789473683,-5.982702710526316
546,1747679570180,1.08282108,-1.2733557947368421,-0.3669882484210526,3.1032462,1.0435588,-5.8373785
547,1747679570190,0.6760931636842106,-1.2543193263157895,-0.4943861136842105,2.5924802263157893,0.7991089315789474,-5.504343315789473
548,1747679570200,0.5027782783333333,-1.3024928166666667,-0.5098559166666666,2.1517880999999996,0.60893129,-5.1856145
549,1747679570210,0.41330773526315795,-1.5351907789473684,-0.5167622710526316,1.7090402789473684,0.39307527842105267,-4.864512210526316
550,1747679570220,0.35699475,-1.8368968000000003,-0.48634505,1.2337085,0.15086797,-4.533496
551,1747679570230,0.23984727444444445,-2.0668531555555556,-0.4516347211111111,0.9240717888888889,-0.07260067,-4.231434222222222
552,1747679570240,-0.07498659,-2.1844344,-0.5131914,0.39215016,-0.47124600000000005,-3.524691
553,1747679570250,-0.25995630315789475,-1.9027410315789475,-0.5844817894736841,-0.15522712842105266,-0.6869899289473684,-2.766671947368421
554,1747679570260,-0.07004443625000001,-1.72258660625,-0.6174953325,-1.0775806875,-0.766057715625,-1.748497145625
555,1747679570270,0.3926271,-1.7334167,-0.52978724,-2.240452578947368,-0.2949729015789474,-0.9242143389473684
556,1747679570280,0.7538318,-1.8422662,-0.24912143,-2.840925,0.34687647,-0.8636625
557,1747679570290,0.7528556,-1.8728546666666666,-0.030771549999999998,-3.0054018,0.700544014,-1.04774002
558,1747679570300,0.41132960736842106,-1.8355866631578948,0.42794475263157894,-2.678556357894737,0.7291939647368421,-1.3563188842105263
559,1747679570310,0.05341320842105264,-1.7284583368421051,0.6285597894736842,-2.1348233052631578,0.41998718663157897,-1.4168707263157894
560,1747679570320,-0.28994679999999995,-1.5968801,0.6980647422222223,-1.2637430033333332,-0.12509450488888887,-1.2362088666666666
561,1747679570330,-0.5089204,-1.4913118,0.63583016,-0.74661666,-0.47018075,-0.9957552
562,1747679570340,-0.5694208947368422,-1.386110247368421,0.4801473231578947,-0.07864028947368422,-0.9050325763157895,-0.4353143842105263
563,1747679570350,-0.4016500452941177,-1.3020669705882353,0.18237177647058825,0.5076999323529412,-1.2050873294117646,0.39554177647058825
564,1747679570360,-0.010735312631578956,-1.2486675315789473,-0.09251375263157895,0.5023208605263157,-0.9690605157894736,1.0642964894736842
565,1747679570370,0.42795115263157896,-1.1541787842105264,-0.2825187447368421,0.25450690119999997,-0.5404881526315789,1.495391857894737
566,1747679570380,0.657698922631579,-1.0472303631578948,-0.29045702315789473,-0.05761534418421053,-0.14415400315789473,1.5300970368421052
567,1747679570390,0.7456880252631579,-0.9379184157894737,-0.19784371789473684,-0.2784613157894737,0.09368012947368422,1.411852794736842
568,1747679570400,0.6785337263157895,-0.8649582,-0.07797307526315789,-0.3209597289473684,0.10035203342105263,1.214330494736842
569,1747679570410,0.5234674842105264,-0.8243676315789473,-0.03388863421052632,-0.22945918263157894,-0.0865736997368421,1.1314641263157894
570,1747679570420,0.33456716947368426,-0.7926401184210526,-0.046194256842105264,-0.11222412421052633,-0.35053482631578947,1.2393922368421053
571,1747679570430,0.16809443,-0.77915275,-0.08511497,-0.05419529,-0.5330313,1.4958965
572,1747679570440,0.16809443,-0.77915275,-0.08511497,-0.09443857777777778,-0.6165361122222222,1.9576881833333333
573,1747679570450,0.10664338552631578,-0.7070145936842105,-0.1315372242105263,-0.20103346684210527,-0.6345677189473684,2.5526380736842107
574,1747679570460,0.30232591736842107,-0.6606180436842105,-0.13330984210526317,-0.46073353052631577,-0.6063101894736842,3.6505883684210523
575,1747679570470,0.5808594263157895,-0.6393464889473685,-0.061942368421052635,-0.6050487231578948,-0.5257426421052632,4.342673210526316
576,1747679570480,1.067906361111111,-0.58162907,0.06253966833333334,-0.43615149000000003,-0.4421287888888889,5.008366644444445
577,1747679570490,1.5475059666666668,-0.46773569888888894,0.15547125155555555,0.04700476,-0.4822537144444445,5.3018464666666665
578,1747679570500,1.6800162263157894,-0.2782445077894737,0.04950187600000001,0.8514470210526316,-0.9377753989473685,5.5449632736842105
579,1747679570510,1.7235868473684208,-0.08618432252631579,-0.2801552336842105,1.6263422105263157,-1.9072774631578948,5.9402324
580,1747679570520,1.7688530210526314,0.03897851057894737,-0.8045443157894737,2.050877915789474,-2.8597352105263156,6.667975894736842
581,1747679570530,2.1283079666666667,0.07662041844444445,-1.3372914,2.1082899444444445,-3.521569311111111,7.720350333333333
582,1747679570540,2.5105557,0.089202926,-1.5299338,1.8611487,-3.6020558,8.462721
583,1747679570550,2.5105557,0.089202926,-1.5299338,1.4520875,-3.4198956000000003,9.154077
584,1747679570560,4.540058915789474,0.555634855368421,-1.6806070368421053,0.8734811315789475,-2.974167047368421,9.668767263157894
585,1747679570570,5.566871894736842,0.8155172789473685,-1.8929368263157893,0.03881904473684211,-2.216988757894737,9.715189842105264
586,1747679570580,5.91687562631579,1.038970947368421,-1.9097639210526314,-1.3496119152631578,-1.6354669894736842,9.035888368421054
587,1747679570590,5.938149722222223,1.4040477555555555,-1.4636044777777777,-3.1631080277777777,-1.2723242499999998,7.919377611111112
588,1747679570600,5.541489647368421,1.3677032263157893,-0.8891422857894736,-3.848496336842105,-1.1640037,7.3993631578947365
589,1747679570610,4.852529284210526,1.2887572210526317,-0.07316899894736842,-4.210013115789474,-0.9703500052631577,6.850472315789474
590,1747679570620,4.145739466666666,1.2483120833333334,0.8571900666666666,-3.968920711111111,-1.0673201666666665,6.579571388888889
591,1747679570630,3.6869117999999994,1.2426175,1.4905186,-3.18394,-1.5066823,6.3769345
592,1747679570640,3.159671078947368,1.1639540894736842,1.8831938263157895,-1.5651876510526315,-2.1636695578947367,6.199147421052632
593,1747679570650,2.8937259,1.0854447,1.8688072999999998,-0.120241635,-2.5144217,6.073334
594,1747679570660,2.6291678,0.9741545,1.5983919,0.74475247,-2.6102953,5.982787
595,1747679570670,2.423508777777778,0.8717588911111112,1.0846784777777776,1.84505143,-2.536437077777778,5.764999711111112
596,1747679570680,2.440138915789474,0.8527937642105264,0.5596842831578948,2.3880618105263154,-2.2769238736842103,5.458789436842105
597,1747679570690,2.43441,0.9272954999999999,-0.13539076,2.464088,-2.2299962,5.4064794
598,1747679570700,2.3158752315789477,0.944019852631579,-0.17539045789473684,2.3665322631578944,-2.1186481210526313,5.182942215789474
599,1747679570710,1.6836898,1.0332164,-0.38872218,1.846235,-1.5247917,3.9907438999999996
600,1747679570720,1.404848010526316,1.0262800210526315,-0.25431086210526316,1.3254892936842106,-1.1752731063157895,3.7522369842105263
601,1747679570730,0.7094904631578948,1.0212704105263157,0.09779951263157895,0.1433830833157895,-0.35294567,3.249768947368421
602,1747679570740,0.42443160631578947,1.0659714631578947,0.2936618621052632,-0.023695106894736844,-0.15020917736842104,3.3025835578947365
603,1747679570750,0.31306443,1.1283987,0.38884422,-0.08508793,-0.072837405,3.3505204
604,1747679570760,0.30566564263157897,1.1678589105263157,0.4299485905263158,-0.08957325210526317,-0.06476382605263158,3.338858589473684
605,1747679570770,0.36105378,1.2403310157894738,0.4656066663157895,-0.08278920421052631,-0.07278133947368422,3.1860774999999997
606,1747679570780,0.37220764,1.3130686999999999,0.48679252833333336,-0.08899389833333333,-0.09076934083333334,2.8070585833333337
607,1747679570790,0.37310252,1.3260851,0.49037203,-0.09041425,-0.094142675,2.7347982
608,1747679570800,0.1673237252631579,1.4551014263157895,0.6512956015789474,-0.041972787368421055,-0.14964852184210525,2.1817580526315785
609,1747679570810,-0.2606327855555556,1.7165223333333333,0.8993034799999999,0.40008047611111114,-0.25263022888888886,1.4837051333333333
610,1747679570820,-0.30745752315789476,1.7608665315789473,0.9226359273684211,0.76818824,-0.18042903,1.1677953
611,1747679570830,-0.17612905784210525,1.9931577631578945,0.7580899315789473,0.8695564842105262,-0.1595722889473684,1.005650952631579
612,1747679570840,0.021171967,2.0260413,0.5094085,1.2496874,-0.08135951,0.39760965
613,1747679570850,0.021171967,2.0260413,0.5094085,1.2371285,-0.09089081631578948,0.3503455842105263
614,1747679570860,0.33713618736842105,2.0640627684210524,-0.1902394089473684,0.9800074578947369,-0.2775922878947369,-0.5287211842105263
615,1747679570870,0.4112296833333333,2.0331729833333334,-0.5942997216666668,0.36847765555555556,-0.5626219672222221,-1.06197905
616,1747679570880,0.4287475600000001,1.9718605,-0.83632314,-0.5229113,-0.7759114,-1.463406
617,1747679570890,0.46543322,1.8102688789473684,-0.842874152631579,-1.8631250789473686,-0.6003111210526316,-1.7429535789473685
618,1747679570900,0.6124955755555556,1.647372866666667,-0.5725786488888889,-2.926974566666667,-0.18587371544444445,-1.8969682333333333
619,1747679570910,0.7567091252631579,1.5373615684210526,-0.23149795684210525,-3.613016826315789,0.22812760694736842,-2.105479547368421
620,1747679570920,1.0679205684210527,1.3421414210526317,0.5848349789473685,-4.265406800000001,0.9230158999999999,-2.556646689473684
621,1747679570930,1.4310093666666666,1.3631817333333336,1.3091027666666666,-3.8752958333333334,1.3679317166666667,-2.9927692833333333
622,1747679570940,2.000579042105263,1.4939706421052632,1.6821677894736842,-3.0528002,1.702172210526316,-3.4561777052631575
623,1747679570950,2.6013453105263156,1.5734048947368422,1.7610366631578949,-2.2739244315789473,2.011378994736842,-3.966102621052632
624,1747679570960,3.3481605,1.5803927,1.6125473,-1.1578084,2.5594292,-4.8477483
625,1747679570970,3.6104319789473682,1.6702058631578947,1.3415666442105263,-0.6869619052631579,2.768164594736842,-5.231859900000001
626,1747679570980,3.842132,1.8595941999999999,0.96140254,-0.017976324526315788,3.1166740473684214,-5.683756184210526
627,1747679570990,4.442666989473684,2.067171294736842,0.38306391263157896,-0.06966964810526316,3.4025011210526315,-5.770211052631579
628,1747679571000,5.409416605263158,2.0686870315789476,0.07609126757894738,-0.45103404526315793,3.7354240157894734,-6.037536
629,1747679571010,5.923452433333334,1.8458186,0.13296374511111111,-0.8066856972222223,4.1862049388888884,-6.623779572222222
630,1747679571020,6.166424844444445,1.617435288888889,0.3263113222222222,-0.84686975,4.894250333333334,-7.694606322222222
631,1747679571030,5.867935736842106,1.1722261578947368,1.280475252631579,0.10806117894736843,4.865388589473684,-7.721605421052631
632,1747679571040,6.39175992631579,1.1457652736842103,1.3523052210526316,1.0645557578947369,4.490640115789473,-7.582560710526316
633,1747679571050,6.8318334,1.0205253,0.9731173,2.6025722,3.6065829999999997,-7.760179499999999
634,1747679571060,7.009378778947368,0.7347472210526317,0.2786331147368421,3.386606236842105,2.650985694736842,-8.493529105263157
635,1747679571070,6.6556244,0.387929,-0.5717651,3.4047158,2.3335931,-9.167393
636,1747679571080,6.0538558947368415,0.22310042736842103,-1.0440544473684212,3.0100076736842105,2.3874170157894734,-9.46880605263158
637,1747679571090,5.246874163157895,0.1047968942105263,-1.3595562157894736,2.3164648736842106,2.5052127684210523,-9.595853105263158
638,1747679571100,4.38034267368421,-0.054097218947368415,-1.316525057894737,1.4978938210526316,2.5649795789473684,-9.454228684210525
639,1747679571110,3.677457952631579,-0.1680334163157895,-0.9891543789473684,0.9066164221052632,2.6019835631578947,-9.196827105263157
640,1747679571120,3.1842353833333332,-0.21391617666666668,-0.5812019906666667,0.6935605800000001,2.557535272222222,-8.666245188888887
641,1747679571130,2.645095731578947,-0.26760876105263154,-0.07008617663157896,0.9723824684210527,2.3005699473684214,-7.535801184210525
642,1747679571140,2.5582283555555554,-0.30779687999999994,-0.05387563422222222,1.3159704888888888,2.1517882555555556,-6.9542485
643,1747679571150,2.429529,-0.37157717,-0.14954607,1.5999815333333334,2.1207179666666667,-6.492515666666666
644,1747679571160,2.1893521999999996,-0.42051063099999997,-0.2440938455,1.6896412,2.170661145,-6.232911055000001
645,1747679571170,1.7592933666666666,-0.4743252805555555,-0.33627697500000003,1.6788702111111111,2.3003333111111113,-5.8155996777777785
646,1747679571180,1.526029,-0.519964,-0.34088695,1.5927023,2.3580942,-5.5050163
647,1747679571190,1.3517721105263159,-0.5889678947368422,-0.30420129,1.5288425157894736,2.38478187368421,-5.328687021052632
648,1747679571200,1.1681325444444444,-0.7090269777777778,-0.19141544555555556,1.4569404444444443,2.3282668444444443,-5.043757155555556
649,1747679571210,1.060804452631579,-0.8280412842105264,-0.1188719297894737,1.470084905263158,2.2516799578947366,-4.855822068421053
650,1747679571220,0.8824114736842105,-1.0319189947368421,-0.02797987719473684,1.5185263368421054,2.1376406526315788,-4.613726710526316
651,1747679571230,0.5099030210526315,-1.419224947368421,-0.019245198784210528,1.7013591631578946,1.6744192368421054,-3.7736263736842104
652,1747679571240,0.48881134210526317,-1.535010842105263,-0.14363732842105265,1.6562817210526317,1.2729830357894736,-3.0479014315789477
653,1747679571250,0.6483220315789474,-1.5119667,-0.3371105063157895,1.343206352631579,0.9402282968421052,-2.2657736052631576
654,1747679571260,0.8373507263157896,-1.466546457894737,-0.45266521894736844,0.9779890831578948,0.8287680905263158,-1.9091907736842104
655,1747679571270,1.053534,-1.4717872,-0.54394263,0.40100869263157896,0.7447804463157894,-1.6670394736842105
656,1747679571280,1.3580904722222222,-1.5253170444444444,-0.5196724433333333,-0.38525556222222224,0.6405341744444444,-1.6432579555555555
657,1747679571290,1.4982065,-1.5996732,-0.38042423,-0.8158588,0.65260714,-1.8394439999999999
658,1747679571300,1.4120414736842104,-1.6524410210526317,-0.23113826473684207,-1.0843053,0.64834607,-2.1579578
659,1747679571310,0.9056868526315791,-1.7271995684210528,0.14481265315789474,-1.0772408684210526,0.5040308805263158,-2.406220336842105
660,1747679571320,0.29716218473684214,-1.7972569,0.4405072868421053,-0.6437346105263158,0.13354341078947368,-2.3090010947368422
661,1747679571330,-0.14223790277777779,-1.7667439555555555,0.5000800694444445,-0.01122965833333333,-0.3885697080555555,-1.8854870944444444
662,1747679571340,-0.5619193368421053,-1.5837709789473684,0.24682858642105265,0.8675381105263158,-1.1882245105263158,-0.6865484383157895
663,1747679571350,-0.4759855178947369,-1.4804191947368421,-0.066001428,1.1023446368421053,-1.461716952631579,0.15629940357894737
664,1747679571360,-0.21312300133333334,-1.411152611111111,-0.3849257311111111,0.9741392622222222,-1.5114167444444444,0.9094096466666666
665,1747679571370,-0.03760729442105263,-1.2961688736842107,-0.5660618794736841,0.6307692536842106,-1.4096871578947368,1.3967709105263157
666,1747679571380,0.04562907105263157,-1.1589315894736842,-0.6052651921052632,0.09432489157894737,-1.2789400631578947,1.841714742105263
667,1747679571390,0.09341291,-1.0583543,-0.5405258,-0.31944594,-1.2158653,2.1478379
668,1747679571400,0.11745897736842104,-0.9880657589473684,-0.3943997157894737,-0.6746832915789474,-1.1593502263157895,2.514176363157895
669,1747679571410,0.11756172810526316,-0.8801667852631578,-0.17911553684210527,-0.801169352631579,-1.1364750894736841,2.8009566263157892
670,1747679571420,0.14723394936842105,-0.7604759842105263,0.004621029473684204,-0.7497563926315789,-1.1563226263157895,3.2716348894736846
671,1747679571430,0.28244167263157893,-0.6206440221052631,0.1557310007894737,-0.5479730242105263,-1.1902989157894737,3.7118690578947366
672,1747679571440,0.5603072905263158,-0.46827521736842104,0.19976407,-0.0672027152631579,-1.4119298578947368,4.138198705263157
673,1747679571450,0.9549350166666666,-0.33456183166666664,0.09085030333333333,0.49920918333333336,-1.8195146666666666,4.404776333333334
674,1747679571460,1.3203786210526316,-0.31747352315789473,-0.13472281421052634,0.873873652631579,-2.132496578947369,4.4296884789473685
675,1747679571470,1.4601334,-0.3022649,-0.31599313,0.9546094,-2.220409,4.3731737
676,1747679571480,1.4089070842105262,-0.29183466421052634,-0.3424540742105263,0.9546094,-2.220409,4.3731737
677,1747679571490,0.9411136947368421,-0.2104736852631579,-0.5583805147368421,0.3987660342105263,-1.6821704157894737,4.695443768421052
678,1747679571500,0.6457016052631579,-0.29692131894736845,-0.4659984063157895,0.025250954736842107,-1.2857241642105262,5.584209984210526
679,1747679571510,0.5375971,-0.42722222,-0.38091236,-0.2384859,-0.9708546400000001,6.7252755
680,1747679571520,0.5375971,-0.42722221999999993,-0.38091236,-0.23848590000000003,-0.97085464,6.7252755
681,1747679571530,0.6896832894736843,-0.4638051210526316,-0.3968403052631579,-0.3376114789473684,-0.954258947368421,7.253422131578947
682,1747679571540,2.5775710176470588,-0.5114076117647058,-0.5020508529411766,-0.9733924117647059,-1.3332948882352942,10.219152823529411
683,1747679571550,3.963004910526316,-0.42552665473684204,-0.5688364368421053,-1.2398897315789474,-1.8194212894736845,10.801647842105263
684,1747679571560,5.807152815789474,-0.3151613957894737,-0.5365181589473684,-1.8145153684210527,-2.019522705263158,10.664060210526316
685,1747679571570,6.048165555555555,-0.19498819833333333,-0.2997497477777778,-2.2090459944444443,-1.4825954222222224,9.71582611111111
686,1747679571580,5.550892894736842,0.12601702894736844,0.38221613157894735,-2.181190457894737,-1.036620742105263,8.719841868421053
687,1747679571590,4.968803315789474,0.27615076684210527,0.8560982263157895,-1.757888247368421,-1.1820572263157896,8.510040657894736
688,1747679571600,4.372225,0.40061998,1.1932569,-0.9277115,-1.6100129,8.640619
689,1747679571610,4.160126052631579,0.4709084431578947,1.0826861210526315,-0.0055295715789473775,-2.0540596368421054,9.184240052631578
690,1747679571620,4.55195355263158,0.5538622552631579,0.6688420947368421,0.66356814,-2.355136715789474,9.713395842105262
691,1747679571630,5.836459661111111,0.8447770222222222,-0.22943415611111112,0.97999816,-2.4464222222222225,9.811225888888888
692,1747679571640,6.7075182894736844,1.4686145263157895,-0.5419644631578947,0.7196907147368421,-2.2875765263157897,9.041943631578947
693,1747679571650,6.994863500000001,1.6858255,-0.6376606,0.5615271,-2.1937773,8.593748
694,1747679571660,6.382202984210527,2.1407996842105264,-0.27000760885789477,0.23404262839999998,-1.4333472768421052,6.6251408736842095
695,1747679571670,3.9792923333333334,2.296456566666667,0.3930203,0.1912887961111111,-0.7082080222222222,3.9416233000000003
696,1747679571680,2.626239,2.255455,0.46743065000000006,0.52530813,-0.879242,3.4144363
697,1747679571690,1.3819809777777778,2.2772575833333333,0.11609667666666668,0.5282080616666667,-1.0933008666666666,3.5463514111111114
698,1747679571700,0.7842490794736842,2.243817210526316,-0.38486866421052635,-0.2048460042105263,-1.0003456631578949,3.8974492473684212
699,1747679571710,0.73821217,2.212989,-0.5673721,-1.1162632,-0.5042692,3.9907438999999996
700,1747679571720,0.809965,2.1363552,-0.33747014,-1.9311898,0.41718388,3.7819520999999994
701,1747679571730,0.7918533684210527,2.0531187789473684,0.12649552315789472,-2.2198202736842103,1.17408172,3.212765005263158
702,1747679571740,0.5493375315789474,1.9393623684210526,0.6243209,-1.6606129105263159,1.0001634315789474,2.4474571526315794
703,1747679571750,0.2624361205555556,1.8484760333333332,0.5169471333333333,-0.37306422,-0.17462925555555556,1.6101163444444444
704,1747679571760,-0.26535124,1.7956512,-0.0626617,0.8768451,-1.6345139,0.7534077
705,1747679571770,-0.7612498836842105,1.7237954736842105,-0.6970820999999999,1.1020082715789474,-2.3670227842105267,0.40372089473684214
706,1747679571780,-1.0335150157894737,1.6392234157894738,-1.130296547368421,0.5128613768421053,-2.5925222789473685,0.3107626252631579
707,1747679571790,-0.9982936605263157,1.5826534894736843,-1.104220947368421,-0.2573803042105263,-2.4184918368421053,0.36469860315789476
708,1747679571800,-0.7241246488888889,1.5354047555555554,-0.5939472105000001,-1.0576737,-1.9956383,0.366717
709,1747679571810,-0.45766833,1.5340219,-0.008480989,-1.3763650333333335,-1.5810731333333334,0.25575205
710,1747679571820,-0.19603899,1.5637968,0.4464417,-1.3921664,-1.0709895,0.030093697999999995
711,1747679571830,0.11440183,1.6340854,0.63924694,-1.1162632,-0.81958723,-0.21811274
712,1747679571840,0.36223384333333336,1.6800981733333333,0.6579254226666666,-0.9124427066666666,-0.7291108019999999,-0.477610944
713,1747679571850,0.6721539966666668,1.6534471333333334,0.7269448,-0.7246012333333333,-0.6644137999999999,-0.9094688433333334
714,1747679571860,1.015918815625,1.58780590625,0.92085850625,-0.38948702749999997,-0.553803925,-1.67139865
715,1747679571870,1.0585588294117647,1.4821668117647058,1.1063150705882354,0.001449069058823543,-0.46629565647058824,-2.2676173235294117
716,1747679571880,0.8525529875,1.2787989375,1.2813615500000002,0.93290461125,-0.3471427775,-3.2597067875000003
717,1747679571890,0.6513277854545454,1.1622560636363637,1.1235009772727274,1.4884032636363635,-0.3122311854545454,-3.5234322181818176
718,1747679571900,0.63482952,1.1124861200000002,0.6645312640000001,1.75185268,-0.192573036,-3.6101252599999993
719,1747679571910,0.7250330400000001,1.0820278,0.29122132,1.6512918000000003,-0.06644582,-3.6237607000000005
720,1747679571920,1.0068704,1.04366201,-0.049482607,1.10608993,0.22788653,-3.6887415499999996
721,1747679571930,1.2370652,1.0366331,-0.17248747,0.532765,0.5087966,-3.8133776
722,1747679571940,1.4201081,1.0468836,-0.1568678,0.031025803,0.7431545,-3.952927
723,1747679571950,1.5372556400000001,1.06943448,-0.044113349,-0.24700800080000002,0.8812127000000001,-4.0647796
724,1747679571960,1.8174334,1.1664716,0.29268566,-0.6070671,1.1522158,-4.272506
725,1747679571970,,,,,,
726,1747679571980,2.3923346,1.3444381799999998,0.48236692400000003,-0.335211832,1.3748559400000002,-4.376049759999999
727,1747679571990,3.159887757142857,1.5481074285714287,0.45411209428571425,0.02387332,1.5119704714285713,-4.54567
728,1747679572000,3.5927058499999998,1.7047398,0.3329550875,0.2685796,1.5932349,-4.6890244
729,1747679572010,3.9309692,1.8420222,0.21214676,0.532765,1.6688687,-4.861597
730,1747679572020,4.3800344,2.0153027,-0.07242399,0.7117293,1.658216,-4.9979506
731,1747679572030,4.3800344,2.0153027,-0.07242399,0.6636740666666667,1.5902758666666665,-5.168629577777778
732,1747679572040,5.130971533333334,1.7165224777777779,-0.7185790955555557,0.32610384,1.4354575555555555,-5.729668422222222
733,1747679572050,5.301132157894736,1.244364363157895,-1.1222812063157894,-0.13061394,1.3987963736842104,-6.36602967368421
734,1747679572060,4.888622666666667,0.8783213222222223,-1.1937856555555557,-0.7685137744444446,1.6711175944444443,-6.954425694444444
735,1747679572070,4.076684078947369,0.6109973263157895,-1.031723093157895,-1.4966744,2.1767190684210527,-7.279689368421053
736,1747679572080,3.139518427777778,0.5627282277777778,-0.3937660277777778,-2.0503218666666663,2.78153645,-6.987330666666667
737,1747679572090,2.976705,0.5695076,-0.08560308,-2.009122205263158,2.9644534684210524,-6.504737968421053
738,1747679572100,3.084141805263158,0.6863467642105263,0.2902450694736842,-1.3323434736842106,2.8919033368421054,-5.903424863157895
739,1747679572110,3.2119765,0.74718124,0.4152024,-0.6155892,2.6595638,-5.698894
740,1747679572120,3.2428561736842108,0.6903544421052632,0.30725201715789474,0.38603892789473687,2.1835591842105266,-5.672879357894736
741,1747679572130,3.124441366666667,0.5505525055555556,-0.005009951611111113,0.9733698638888888,1.8296051055555556,-5.735645766666667
742,1747679572140,2.7798409894736844,0.3927844715789474,-0.34766916315789476,1.2723943631578947,1.5753496526315791,-5.7736309684210525
743,1747679572150,2.4134212,0.23905408000000003,-0.5878729,1.2571442,1.4323801,-5.7116776
744,1747679572160,2.1142583315789474,0.13161750684210527,-0.7001135657894736,1.0932057736842105,1.3618485315789473,-5.568707957894737
745,1747679572170,1.7296753894736843,0.004990327789473686,-0.7451999263157895,0.7832140684210526,1.3039878263157896,-5.265948894736842
746,1747679572180,1.3688046473684212,-0.1530046254736842,-0.6710321894736841,0.44832881578947376,1.302922552631579,-4.843711842105263
747,1747679572190,1.0775331555555556,-0.3328534022222222,-0.5390885983333332,0.1013332,1.3610075,-4.311921
748,1747679572200,0.81510302,-0.5307795915789474,-0.3992808747368421,-0.021620647578947372,1.4586192578947368,-3.873592942105263
749,1747679572210,0.5402175210526315,-0.6899562884210526,-0.29857514631578946,-0.011472609000000002,1.5110974684210527,-3.465989305263158
750,1747679572220,0.27362993199999996,-0.7586262942105263,-0.22993082684210528,0.05031268215789473,1.489568005263158,-3.1439432842105264
751,1747679572230,-0.025250290526315788,-0.7594740578947368,-0.1596423489473684,0.14747593736842105,1.3513640263157896,-2.714417915789474
752,1747679572240,-0.1544978694736842,-0.7536680168421053,-0.11715069421052632,0.26336540842105266,1.1809779368421054,-2.144558
753,1747679572250,-0.16235909,-0.80258226,-0.1031752,0.33782172,1.0957568,-1.7265260000000002
754,1747679572260,-0.07970503000000001,-0.9412067533333333,-0.11781863333333334,0.3839831533333333,1.0290002933333333,-1.4765441333333333
755,1747679572270,0.013413514631578949,-1.1487839157894737,-0.1561227742105263,0.43834898789473686,0.8553436442105263,-1.149713894736842
756,1747679572280,0.026977958684210525,-1.2670359947368421,-0.19319378842105264,0.4267432042105263,0.6140333894736841,-0.9078428999999999
757,1747679572290,0.03260412078947368,-1.321345152631579,-0.1924230857894737,0.38009586842105264,0.47106379368421053,-0.7153665694736842
758,1747679572300,0.04552631105263158,-1.3799445894736841,-0.17595565157894738,0.22479164557894737,0.19067517894736843,-0.17875404421052632
759,1747679572310,0.06872459631578946,-1.3709787210526316,-0.17264161,0.08350405452631579,0.16224946999999998,0.19885388736842105
760,1747679572320,0.1292251,-1.3344472789473685,-0.1681971894736842,-0.0781917547368421,0.1884885857894737,0.5392897021052632
761,1747679572330,0.21153662210526317,-1.290979352631579,-0.1363413052631579,-0.21645176315789472,0.23878024315789473,0.7947847715789473
762,1747679572340,0.27743208,-1.2609218,-0.09780595,-0.3081765663157895,0.29411787894736846,0.9856912421052632
763,1747679572350,0.31794557,-1.2345636,-0.042160887,-0.33329436,0.3308975,1.0996184
764,1747679572360,0.292512242631579,-1.1841592421052631,0.0050063849999999995,-0.2707241242105263,0.32585153157894736,1.209620852631579
765,1747679572370,0.26027100368421047,-1.1358872894736844,0.01957274952631579,-0.1914460947368421,0.2767372815789474,1.2988226947368422
766,1747679572380,0.2446513257894737,-1.067859605263158,0.011660156263157894,-0.02907749296842105,0.11425653736842105,1.4968495894736842
767,1747679572390,0.2740923531578947,-0.9768134526315789,-0.02289321110526316,0.11591049467368422,-0.06268936052631578,1.6739075842105262
768,1747679572400,0.3263976752631579,-0.8509312842105264,-0.05844850084210526,0.3034529621052632,-0.29048757684210524,1.880232405263158
769,1747679572410,0.35974360052631577,-0.7450361389473684,-0.08873729157894737,0.41138098421052627,-0.35608538473684215,1.9988691368421052
770,1747679572420,0.37700745,-0.6795774,-0.11391371999999998,0.45926178,-0.34980595,2.067943
771,1747679572430,0.3973540873684211,-0.5909975,-0.14769638947368421,0.46514878210526317,-0.3177359157894737,2.185234210526316
772,1747679572440,0.3902678733333333,-0.5036121699999999,-0.151905305,0.4457684433333334,-0.29157153,2.3019458833333335
773,1747679572450,0.39799634,-0.42429352000000004,-0.14417683,0.40392413052631576,-0.2606601968421053,2.543611257894737
774,1747679572460,0.5229536631578947,-0.33648426947368426,-0.15321978368421052,0.35380068789473684,-0.24098085157894739,2.8015172105263155
775,1747679572470,0.65572083,-0.2890858,-0.15979649,0.29947224,-0.26671538,3.0064404
776,1747679572480,1.0042346,-0.15290186,-0.16614197,0.20040272,-0.3274354,3.2290804
777,1747679572490,1.0042346,-0.15290186,-0.16614197,0.20040272,-0.3274354,3.2290804
778,1747679572500,1.294988088888889,0.041964293333333326,-0.12649622333333332,-0.031173754999999994,-0.02797796444444444,3.345786
779,1747679572510,1.3400573,0.12971643,-0.10854446,-0.21398483000000001,0.23928484000000003,3.4037836
780,1747679572520,1.160996389473684,0.19173266263157895,-0.054826177894736844,-0.34013448210526315,0.40961488631578946,3.5881302473684213
781,1747679572530,1.1036814736842104,0.17968394,0.03850645315789474,-0.38807132789473686,0.5193931442105262,4.037503294736842
782,1747679572540,1.1595064210526316,0.03985198242105263,0.28567222315789476,-0.09618909842105262,0.3104893021052632,4.616109694736842
783,1747679572550,1.2780669,0.010128376,0.35614055,0.18442377,0.0677774,5.0709214
784,1747679572560,1.6759071333333333,0.047930133222222226,0.34922556388888887,0.6914892583333333,-0.38898398333333334,5.800330955555555
785,1747679572570,2.043841326315789,0.08850928694736843,0.2304382089473684,1.0693775421052631,-0.7150231842105264,6.316214378947368
786,1747679572580,2.7394814,0.17755164,-0.14320059,1.4478265,-1.0379663,6.968156
787,1747679572590,3.239541857894737,0.37364520842105264,-0.47031438421052635,1.3820603894736843,-0.9664814789473685,7.4161271157894735
788,1747679572600,3.7345413842105266,0.5693790968421053,-0.7475890926315789,0.9242213578947368,-0.628064047368421,7.844251242105263
789,1747679572610,4.469179426315789,0.823455547368421,-1.0154355052631578,0.4298829494736842,-0.4191602210526315,7.932948473684211
790,1747679572620,5.1180634,1.0664082,-1.1028337,-1.0523473,-0.0845553,7.6818824
791,1747679572630,5.02981752631579,1.2248398157894735,-0.8319044684210526,-1.9765476105263158,-0.024452005263157894,7.242432884210527
792,1747679572640,4.6993898,1.3628734894736843,-0.50646054,-2.637235452631579,-0.040094561,6.983517789473684
793,1747679572650,4.353705164705882,1.513463688235294,-0.08893373764705882,-3.0614345705882355,-0.05228407776470588,6.813817705882353
794,1747679572660,4.067076105263157,1.5862244842105262,0.23151720157894737,-3.205749731578947,-0.06622155157894737,6.608937736842106
795,1747679572670,3.7308420000000004,1.61993,0.44156057,-3.1285462,-0.082424775,6.29917
796,1747679572680,3.3999001999999994,1.675087,0.5494339,-2.948909136842105,-0.18839046710526317,6.115496389473685
797,1747679572690,3.179273,1.6706939,0.60263836,-2.7618589055555556,-0.3331168088888889,5.943313183333334
798,1747679572700,2.871001322222222,1.6107100444444447,0.5692296466666666,-2.351969,-0.5232663883333333,5.441988333333334
799,1747679572710,2.6044279315789476,1.5783117789473684,0.49517611789473687,-2.1640900684210527,-0.5389743631578948,5.154404331578948
800,1747679572720,2.1882375,1.5278661055555556,0.29976333388888887,-1.9929751,-0.43928809999999996,4.599719566666667
801,1747679572730,1.7544664578947369,1.4405350421052632,0.2122495278947368,-2.009570768421053,-0.3102229884210526,3.897112863157895
802,1747679572740,1.4100888842105264,1.3875875631578947,0.2363469652631579,-2.0390617157894737,-0.2466435684210526,3.347997410526316
803,1747679572750,1.1240236047058823,1.3453799117647058,0.29426483411764703,-2.0007452117647055,-0.20530606705882354,2.885125494117647
804,1747679572760,0.90221864,1.321692,0.34637824,-1.9152108,-0.14421007,2.4546337
805,1747679572770,0.6765555863157895,1.3360272,0.47816918105263156,-1.9152107999999999,-0.14421007,2.4546337
806,1747679572780,0.57231423625,1.3463418125,0.58140538125,-1.685113875,-0.16378429,2.0311913875
807,1747679572790,0.13295019,1.3870994,1.0189999,-0.57723975,-0.41478702,0.70547086
808,1747679572800,-0.07114268812499999,1.401285275,1.10548774375,-0.04394212593750001,-0.56159368875,0.36092462875000003
809,1747679572810,-0.5872356544444445,1.36673415,0.9005779833333334,1.0771739582777777,-0.87018725,-0.19325656777777778
810,1747679572820,-0.9154282375,1.3237970125,0.49595484125,1.60668385625,-1.10414576875,-0.427903088125
811,1747679572830,-0.9843439,1.3143703,0.40544012,1.699004394736842,-1.3114026315789473,-0.5206475952631578
812,1747679572840,-1.2274763315789474,1.2081668684210527,-0.19070183105263158,1.2390348,-1.4598106,-0.47803706
813,1747679572850,-1.3410014,1.164185205263158,-0.641745334736842,0.851951627368421,-1.387821210526316,-0.37420188800000004
814,1747679572860,-1.136738372631579,1.1844034842105264,-0.6464466152631578,-0.8387339357894736,-1.017501947368421,0.050501907789473686
815,1747679572870,-0.6657678466666668,1.1945653444444444,-0.3738617866666667,-1.6180023333333333,-0.6668993833333333,0.13590989
816,1747679572880,-0.40836877,1.1903893,-0.17492804,-2.1823116315789473,-0.2998506875789474,0.05291276684210527
817,1747679572890,0.10677183736842104,1.1977879631578947,0.31200470105263156,-2.4606259473684213,0.05919922484210526,-0.2583684868421053
818,1747679572900,0.13539076,1.198199,0.33905652,-2.424407,0.19454378,-0.5281044
819,1747679572910,0.5654453768421053,1.1394711578947367,0.984600732631579,-2.005590105263158,0.34087735684210524,-1.1104112210526316
820,1747679572920,0.5736405526315789,1.082772752631579,1.161400994736842,-1.2321526842105264,0.30948012105263156,-1.6995019947368424
821,1747679572930,0.45513287999999996,1.02977245,1.1993041222222223,-0.3846045972222222,0.13335029555555555,-2.1107311277777776
822,1747679572940,0.29441331894736844,0.9847646236842105,0.9031627736842105,0.6460193405263158,-0.1480786589473684,-2.4111541473684213
823,1747679572950,0.30155520210526315,0.9881043315789474,0.500031567368421,0.9248941526315789,-0.18351268815789473,-2.4341974368421053
824,1747679572960,0.46991188611111107,1.0246743833333332,0.16629111366666666,0.8044072216666667,-0.04727107083333334,-2.4351039666666665
825,1747679572970,0.7915194236842106,1.0450081473684212,-0.11923160473684212,0.3165725394736842,0.25290901578947367,-2.5526659631578945
826,1747679572980,1.0035665789473684,1.0427473736842103,-0.1586147432631579,-0.0946753,0.5396892,-2.6905897
827,1747679572990,1.1715551105263158,1.0415142421052632,-0.004910046526315789,-0.0946753,0.5396892,-2.6905897
828,1747679573000,1.2885612444444443,1.0816752,0.28479445722222224,-0.9787258333333333,1.2023423555555555,-3.134567872222222
829,1747679573010,1.5167547,1.3163228,0.980439,-0.9394294,1.4419675,-3.3638363
830,1747679573020,1.721146242105263,1.4749599526315789,1.1895061631578947,-0.6333062421052631,1.4540778368421052,-3.3672002789473687
831,1747679573030,2.3618352105263156,1.7796460578947368,1.4349249631578946,0.18526477368421052,1.434230305263158,-3.3826186263157894
832,1747679573040,2.9407132684210526,1.9464014789473685,1.3723692157894736,0.9487784505263157,1.376201494736842,-3.5091046631578946
833,1747679573050,4.291740138888889,2.2462623055555557,0.9038321583333333,1.8890232166666665,1.2988671166666668,-3.8906091666666662
834,1747679573060,4.952592731578948,2.406308105263158,0.3918756478947369,2.097637373684211,1.2684977315789474,-4.288317147368421
835,1747679573070,5.550424633333333,2.516758888888889,-0.18224975111111108,1.8439861666666668,1.2119889000000001,-4.729977644444444
836,1747679573080,6.0650054052631575,2.449827410526316,-0.6636847789473684,1.0831137736842105,1.3479439684210526,-5.3434884315789475
837,1747679573090,6.234406910526316,2.2630851789473683,-0.7654951836842105,0.5412309984210527,1.6380881947368422,-5.767799973684211
838,1747679573100,6.2787995,1.9289063999999998,-0.73918843,-0.07337003,2.0811257,-6.4136863
839,1747679573110,5.709658,1.2772737,-0.50879836,-0.50586706,2.437989,-7.277615000000001
840,1747679573120,5.252783231578948,1.003056072631579,-0.3844062336842105,-0.5603637084210527,2.493494842105263,-7.554134789473684
841,1747679573130,4.355166352631579,0.688170812631579,-0.1847160147368421,-0.4683025168421052,2.428401573684211,-7.627806052631579
842,1747679573140,3.7696602210526313,0.5518327257894736,-0.007530448947368422,-0.23854196210526316,2.269284794736842,-7.261972157894737
843,1747679573150,3.627578816666667,0.4028164938888889,0.07574587855555555,0.1960233088888889,2.009397911111111,-6.478193533333333
844,1747679573160,3.68290916,0.1502172366,-0.051923178400000006,0.591887108,1.83430412,-5.87189295
845,1747679573170,3.4927236666666666,0.004921820166666666,-0.15646102666666667,0.6808958288888889,1.8580120611111113,-5.782694894444445
846,1747679573180,3.061149,-0.10653099399999999,-0.23984726,0.7362303,1.9948392999999998,-5.686111
847,1747679573190,2.507935484210526,-0.18000506263157895,-0.27170315263157896,0.6672124394736842,2.131473421052631,-5.462742131578947
848,1747679573200,2.2518552,-0.27352037777777777,-0.24695204666666667,0.5908810083333332,2.2749444444444444,-5.263970444444444
849,1747679573210,2.0097504,-0.45748532,-0.14759362,0.5285039,2.5636902,-5.0416265
850,1747679573220,1.777408,-0.6029435,-0.0035998443999999998,0.6201166,2.8001785,-4.860532
851,1747679573230,1.4624970526315788,-0.7435204305263158,0.1938553281894737,0.8330571684210526,2.8143073631578948,-4.707133821052631
852,1747679573240,1.1781573842105264,-0.9762482589473684,0.33278809526315795,1.3405151315789474,2.6416226,-4.372640994736842
853,1747679573250,1.0762314000000002,-1.1877046,0.319043835,1.6846700222222222,2.4703020666666666,-4.128932333333333
854,1747679573260,0.76238817,-1.6606587705882354,0.1455334896352941,2.2831811176470587,2.0179617999999997,-3.6573477647058823
855,1747679573270,0.4390750394736842,-1.8284705210526315,-0.017523952894736843,2.6188314210526316,1.6315843789473685,-3.2511987684210526
856,1747679573280,0.28618941117647057,-1.855014617647059,-0.1486847025882353,2.7299025823529415,1.348850994117647,-2.7349548470588236
857,1747679573290,0.19632372,-1.8845694333333336,-0.3758685,2.6315118833333333,1.1504404166666666,-2.2912933833333335
858,1747679573300,0.20323867,-1.8715531000000003,-0.6093499,2.3501048,0.9391629999999999,-1.9459702999999997
859,1747679573310,0.41068733,-1.7861329,-0.8475498,1.5362433,0.6153229,-1.6114776
860,1747679573320,0.60983807,-1.7470838,-0.908076,0.6520745,0.34687647,-1.4868417
861,1747679573330,0.7813289511111112,-1.7890347,-0.8684303,0.20217815800000002,0.27976484888888886,-1.464471177777778
862,1747679573340,0.8806645247368422,-1.8853744842105262,-0.7574284389473684,-0.8306043081052632,0.32416952947368416,-1.406610494736842
863,1747679573350,0.87840952,-2.0060014,-0.5532167733333333,-1.2611390111111112,0.3819709894444444,-1.35403885
864,1747679573360,0.6512416611764705,-2.024907105882353,-0.2039564811764706,-2.224199970588235,0.5544775688235295,-1.1210176705882353
865,1747679573370,0.2036240336842105,-1.8460682789473686,0.3077658315789474,-2.276447305263158,0.4951724073684211,-0.5720605610526316
866,1747679573380,-0.1748959105263158,-1.584284784210526,0.707377444736842,-1.6223194210526317,0.10808921789473686,0.23933390157894738
867,1747679573390,-0.26838840555555554,-1.4264739777777775,0.8001890983333334,-1.2078758,-0.11864374,0.57976973
868,1747679573400,-0.24533854,-1.270196,0.73150057,-0.2683133,-0.5937513,1.1614037
869,1747679573410,-0.14709908057894738,-1.1116100631578947,0.4612906921052632,0.5481271947368421,-1.0155957000000002,1.5711377
870,1747679573420,-0.025661335684210525,-0.9131787068421052,0.08477456715789473,1.3274516368421054,-1.398417752631579,1.9666868842105263
871,1747679573430,0.0626617,-0.80404663,-0.116842404,1.5191991,-1.5205307,2.099901
872,1747679573440,0.14474199210526315,-0.6641632694736842,-0.38312170610526314,1.5873198631578949,-1.6214503842105263,2.231937552631579
873,1747679573450,0.22010573277777779,-0.3977455138888889,-0.7224298005555555,1.6054854,-1.6483623,2.2671473
874,1747679573460,0.26461265789473687,-0.2850010636842105,-0.8486287921052631,1.1251076294736841,-1.579288363157895,2.559926647368421
875,1747679573470,0.26027101315789475,-0.2279687421052632,-0.9281401,0.7506955052631579,-1.468837352631579,2.7543092157894735
876,1747679573480,0.15717608284210527,-0.14077608184210524,-0.9822951078947368,-0.06092327473684211,-1.09963944,3.187423
877,1747679573490,0.12511466757894738,-0.09083425368421053,-0.8759375526315789,-0.9007434768421053,-0.7487752389473684,3.898738868421052
878,1747679573500,0.27540254210526316,-0.11693553157894736,-0.6534600768421053,-1.4968426000000001,-0.5839957547368421,4.618296357894737
879,1747679573510,0.43338466,-0.12459122666666667,-0.48756537000000005,-1.7110354166666666,-0.5660544833333333,5.034702333333334
880,1747679573520,0.6584953484210526,-0.13358279789473684,-0.27481166526315787,-1.7972469315789474,-0.6102348947368421,5.49192485263158
881,1747679573530,0.847524047368421,-0.1691637757894737,-0.089199708,-1.7000276,-0.7141261,5.8922396
882,1747679573540,1.0009719263157895,-0.1736595654736842,0.015667832315789474,-1.4059586789473684,-1.0131849105263158,6.396781821052632
883,1747679573550,1.24097,-0.046492904,0.06375995,-1.0928273,-1.4342444,6.912762
884,1747679573560,1.8169452,0.1288378192,0.0094816232,-0.7621695,-1.9967036,7.4343152
885,1747679573570,2.7073473666666663,0.2789981083333333,-0.13555346641666668,-0.31553996666666667,-2.5865045666666666,7.978380583333333
886,1747679573580,3.6793589368421054,0.3549427247368421,-0.36046294210526314,-0.010295211157894736,-2.627339610526316,8.248041684210527
887,1747679573590,4.354961210526316,0.35882195526315785,-0.5929852526315789,0.13934629842105262,-2.299294436842105,8.162821157894735
888,1747679573600,4.597990621052632,0.40429368157894735,-0.8137671368421052,0.07251501947368422,-2.0977915210526312,7.875536084210526
889,1747679573610,4.519763584210526,0.5555064410526317,-0.9970412736842105,-0.10745846999999999,-2.0574236,7.6989264
890,1747679573620,4.547380657894737,0.6851907326315789,-1.1231032631578948,-0.3622807410526316,-2.076766547368421,7.675378557894738
891,1747679573630,4.619047966666667,0.8078701399999999,-1.1756440499999998,-1.1952701666666665,-2.138738716666667,7.576066333333333
892,1747679573640,4.5206113,0.94291514,-1.0247353,-1.7927055,-2.1777983,7.409175
893,1747679573650,4.466045436842106,1.0215272599999998,-0.8282050757894737,-2.078308184210526,-2.1555958684210528,7.3112827578947375
894,1747679573660,4.463014,1.0258946,-0.81728673,-2.3020696315789473,-2.0541156,7.085166636842105
895,1747679573670,4.002130947368421,1.0143340210526315,-0.1984089142105263,-2.515851394736842,-1.8324847210526316,6.534257236842105
896,1747679573680,3.2827817470588236,1.0152997294117647,0.2771808382352941,-2.439947288235294,-1.668665011764706,5.946066817647059
897,1747679573690,2.786006621052632,1.0276673421052633,0.5826256421052631,-2.4265375,-1.6526234,5.8826523
898,1747679573700,2.6691673684210526,1.020833747368421,0.7180388963157895,-1.6322432105263158,-1.7811277736842104,5.269732947368421
899,1747679573710,2.5051095789473683,1.0081426526315789,0.7622261352631579,-1.0224638763157894,-1.7310604368421052,4.624631842105263
900,1747679573720,2.350223,1.0013090605263157,0.7306528036842105,-0.6718800231578946,-1.6581739842105263,4.14246002631579
901,1747679573730,2.203857444444444,0.9994822722222223,0.7315548055555556,-0.2851207646666667,-1.5335506,3.373601088888889
902,1747679573740,2.0239058,1.0044177,0.75737065,0.023568958,-1.424657,2.6804698
903,1747679573750,1.8545842000000003,1.0044177,0.7714175111111111,0.18347686622222223,-1.3558882222222222,2.333312111111111
904,1747679573760,1.2998520736842105,0.9955545157894737,0.7873768605263158,0.5411749689473684,-1.133559605263158,1.7110236736842104
905,1747679573770,0.6405893,1.0078344,0.78324074,0.814779497368421,-0.9395695210526316,1.4329337368421051
906,1747679573780,0.33915146555555553,1.0328909000000002,0.7316090977777778,1.185061455,-0.6147015,1.3671771333333333
907,1747679573790,0.17056069631578946,1.0631711368421053,0.597012252631579,1.3759491842105265,-0.3938181484210526,1.4051809157894737
908,1747679573800,0.15900008578947367,1.1328173789473683,0.2598535341052632,1.372641242105263,-0.12122278873684211,1.3486098210526316
909,1747679573810,0.16939607777777776,1.1606684555555555,0.022704102444444443,1.0564012444444444,0.11595099022222222,1.1880353222222222
910,1747679573820,0.1424041987368421,1.1947052,-0.09228254394736841,0.5272144273684211,0.24421870105263158,0.983280394736842
911,1747679573830,0.08033657956631579,1.243927652631579,0.07506366078947367,0.05322814,0.2802134042105264,0.773928047368421
912,1747679573840,-0.021319684892631578,1.275449552631579,0.2976438742105263,-0.2712287405263158,0.26423444421052633,0.5040239231578948
913,1747679573850,-0.13958040666666668,1.3117670499999998,0.4883653533333333,-0.40117532722222227,0.2551454372222222,0.24788093055555555
914,1747679573860,-0.20074030105263158,1.3422955684210527,0.6835112331578946,-0.4142544,0.25313327,0.05672529
915,1747679573870,-0.20336069,1.3431691,0.79837227,-0.33003589647058823,0.26616708647058823,-0.15582613588235295
916,1747679573880,-0.1927249447368421,1.3070999421052634,0.8843832142105263,-0.13706158,0.35175426315789476,-0.4718697473684211
917,1747679573890,-0.18021379210526314,1.2380960157894738,0.8891616,-0.12663321,0.35646385,-0.4886897
918,1747679573900,-0.13789912055555556,1.1732238722222224,0.8176528222222222,-0.12663321,0.35646385,-0.4886897
919,1747679573910,0.037133309,1.07114295,0.57818385,0.567705645,0.5580116970000001,-1.48417854
920,1747679573920,0.1368551,1.0390737,0.44595359999999995,0.69788086,0.47151232000000004,-1.8532925
921,1747679573930,0.14968964,1.036862829411765,0.4258547676470588,0.6102785905882353,0.37845841176470585,-2.236411341176471
922,1747679573940,0.3575099683333333,1.0010550222222223,0.10302604666666666,0.36622875083333334,0.4104372072222222,-2.567492611111111
923,1747679573950,0.39946067,0.9936791,0.08182019,0.052331075,0.4768386499999999,-2.792855
924,1747679573960,0.45754632,1.0005127,0.1935984,-0.21132165416666668,0.6588211666666667,-2.9144725
925,1747679573970,0.587025132631579,0.9792412473684211,0.342036612631579,-0.4415027131578947,1.054323614736842,-3.030464710526316
926,1747679573980,0.7625636177777778,0.9672123888888888,0.46829841555555557,-0.5096546722222223,1.3157929333333334,-3.1183521888888888
927,1747679573990,0.9936757968421052,0.9907504052631579,0.6839479363157895,-0.37977348947368417,1.4384913684210527,-3.2759239263157895
928,1747679574000,1.3932104315789473,1.143581605263158,0.9170354815789473,0.10693985894736843,1.3235549736842105,-3.441656589473684
929,1747679574010,1.967592784210526,1.3901308578947367,0.9528219747368422,0.8179753,1.0118251915789473,-3.6292552105263156
930,1747679574020,2.6408823444444445,1.6964012444444443,0.7569909866666666,1.1827533333333333,0.6375159066666667,-3.710579666666667
931,1747679574030,3.5155835,1.9762536,0.53527856,1.2741885,0.35965964,-3.734548
932,1747679574040,4.7758956,2.1163425,0.35662866,1.0803105,0.3809649,-3.9081859999999997
933,1747679574050,5.955180000000001,2.1031632,0.29561433,0.77990615,0.9562073,-4.4045987
934,1747679574060,6.708829,1.96942,0.3317348,0.6121862777777778,2.015434388888889,-5.219407333333333
935,1747679574070,6.91292164375,1.75165991875,0.37130258875,0.7191861,2.7426543,-5.9428396
936,1747679574080,6.787903300000001,1.1913655,0.40251142,1.1494765357142855,2.985990992857143,-6.712416385714286
937,1747679574090,6.33054,0.7052033999999999,0.30000737,1.6992286000000003,2.7181532,-7.3734884
938,1747679574100,5.370619870588236,0.1770061014117647,0.007368375882352943,2.189500529411765,2.1669733647058824,-7.8156356
939,1747679574110,3.9493165529411765,-0.06621847105882353,-0.5125597194117646,2.559836382352941,1.586091423529412,-7.851353364705883
940,1747679574120,3.3605259333333333,-0.073664612,-0.7657092799999999,2.407273866666667,1.5364209333333332,-7.370292666666667
941,1747679574130,3.212844077777778,-0.08527088455555555,-0.8553324999999999,2.1939845,1.5469551555555556,-7.017335444444445
942,1747679574140,3.076194470588235,-0.09659641588235295,-0.838821194117647,1.8031231764705882,1.4682857411764707,-6.638519552941177
943,1747679574150,2.9347274,-0.06748183,-0.7596892,1.5660707,1.4153359,-6.4275346
944,1747679574160,,,,,,
945,1747679574170,2.7799952,-0.02648021,-0.5659077,1.3455611,1.3791169,-6.1377826
946,1747679574180,2.5042105,-0.08505395,-0.24619274,1.2784495,1.3141359,-5.7979636
947,1747679574190,2.2987142,-0.12947236,-0.15149854,1.32372325,1.2928305999999998,-5.7154058
948,1747679574200,2.0790627,-0.18316497,-0.089508,1.465936,1.2672642,-5.545496
949,1747679574210,1.84147295625,-0.303332649375,-0.026175142125000002,1.5852454625,1.269261625,-5.50674705
950,1747679574220,1.5565767499999998,-0.47786411749999996,0.03813394266666666,1.8452585416666667,1.1644663050000001,-5.445716616666666
951,1747679574230,1.3073536000000001,-0.61612254,0.030080058,2.0961154214285713,0.8574421114285713,-5.3545095
952,1747679574240,1.1109593058823528,-0.7319779164705882,-0.050028146117647054,2.2979069,0.44594598,-5.184372
953,1747679574250,0.82704902,-0.9682158333333333,-0.26669356,2.276838388888889,0.09630279222222222,-4.967354083333333
954,1747679574260,0.6372495347368421,-1.031482342105263,-0.4112268210526316,2.100496747368421,-0.14432220421052633,-4.75350082631579
955,1747679574270,0.4819520400000001,-1.014912,-0.5175844,1.7919066,-0.2869554,-4.4951463
956,1747679574280,0.3878229957894737,-1.0136788210526315,-0.5726642315789473,1.7919066,-0.2869554,-4.4951463
957,1747679574290,0.29824113684210524,-1.0235183157894736,-0.6096068052631579,1.7919066,-0.2869554,-4.4951463
958,1747679574300,0.23697280222222222,-1.0383958,-0.6147734,0.34758665,-0.39081859166666666,-3.623405466666667
959,1747679574310,0.33734168842105267,-1.1734464789473684,-0.5177128789473684,-0.5148377005263157,-0.34262941684210524,-3.0672443789473682
960,1747679574320,0.6109941236842106,-1.6855299578947367,-0.3339762894736842,-1.145249500526316,-0.3212120221052632,-2.5962857684210525
961,1747679574330,0.8026433052631579,-2.193759894736842,-0.16555109763157896,-1.9013624842105263,-0.5763706863157895,-1.9588656736842105
962,1747679574340,0.845160597368421,-2.2271058210526316,-0.01343920736842105,-2.2749336210526314,-0.7117712789473684,-1.5902283842105263
963,1747679574350,0.8505555921052631,-2.067518157894737,0.20076598631578949,-2.682761347368421,-0.4288597273684211,-1.1553765947368422
964,1747679574360,0.8221678,-2.0013914,0.3273418,-2.8686218,-0.10159952,-0.9265130999999999
965,1747679574370,0.6741150163157895,-1.9614430315789475,0.5959075394736842,-2.8886935315789475,0.43647075684210523,-0.5933097726315789
966,1747679574380,0.511778432631579,-1.8000570368421052,0.9211459315789474,-2.4844542368421054,0.6605125210526316,-0.28539253578947366
967,1747679574390,0.40580618,-1.6509253,1.0648828,-1.8449035000000003,0.5918871,-0.07856319
968,1747679574400,0.3175602089473684,-1.524914642105263,1.0799116157894737,-1.1843838894736842,0.41651107368421053,0.07679709894736841
969,1747679574410,0.18309753684210528,-1.3083202210526317,0.929315394736842,-0.26029575157894735,0.15378341631578948,0.2847477705263158
970,1747679574420,0.1700469,-1.2867918,0.9111267,0.48370678947368423,-0.13608041842105262,0.4883813242105262
971,1747679574430,0.1728985057894737,-1.0494911094736843,0.3872000242105263,0.965205952631579,-0.46782594157894736,0.6829321005263158
972,1747679574440,0.27982125421052634,-0.780103252631579,-0.31121472789473686,1.0361861605263158,-0.8739717168421053,0.8969379547368421
973,1747679574450,0.29359123315789476,-0.6381904315789474,-0.526807202631579,0.7456495236842106,-0.9872260821052631,1.0811724789473685
974,1747679574460,0.2396417405263158,-0.5026230478947368,-0.6485789110526315,0.26813107315789475,-0.9125454652631578,1.4052930631578946
975,1747679574470,0.16565385,-0.40232837,-0.65474457,-0.25126907,-0.6981472,1.8197366
976,1747679574480,0.06623264210526315,-0.30136573842105263,-0.520256172631579,-0.6848874568421053,-0.25477322210526315,2.3598813736842104
977,1747679574490,-0.07948237947368421,-0.18678728842105263,-0.29379676,-1.107741,0.38842174,3.2386677
978,1747679574500,-0.06766488,-0.16900966,-0.19884564,-1.2259853,0.6227797,3.9779608
979,1747679574510,0.20562786,-0.21617692631578947,-0.09295048894736842,-1.222621352631579,0.5773658578947368,4.7188796421052634
980,1747679574520,0.5826577715789473,-0.24500135894736844,-0.04853206578947369,-1.0920984947368422,0.22784728421052627,5.661806
981,1747679574530,1.2570778368421052,-0.1860165852631579,-0.05644466010526316,-0.7613060694736842,-0.5400396063157895,6.592958684210527
982,1747679574540,1.7386841555555554,-0.09280954678888889,-0.09796864666666666,-0.44337160666666664,-1.1764505444444446,7.374968222222222
983,1747679574550,2.30047146,0.029262465120000004,-0.173170812,-0.1159273105,-1.566550135,8.17147765
984,1747679574560,2.8986069499999996,0.20081844166666668,-0.2784083,0.18986844555555557,-1.7045845333333334,8.899005444444445
985,1747679574570,3.5307152000000004,0.42209700000000006,-0.4199615,0.41239017,-1.7367792000000002,9.474721
986,1747679574580,4.466507831578948,0.6720116105263158,-0.8137414368421053,0.38278708105263154,-1.7634107736842106,9.542056894736842
987,1747679574590,4.979900238888889,0.8642473555555555,-1.1951686944444446,0.12820151944444444,-1.8254919722222225,9.245156833333333
988,1747679574600,5.0790143,1.0371213,-1.4537879,-0.24807326000000002,-1.8486319000000002,8.855803
989,1747679574610,4.596243310526316,1.1943455210526317,-1.4320540368421053,-1.1978399210526316,-1.6924306578947368,8.163493421052632
990,1747679574620,4.160627116666666,1.1851827000000001,-1.23641435,-2.1264882166666665,-1.55319875,7.714728
991,1747679574630,3.6723198421052636,1.0740895157894736,-0.900420294736842,-2.7817188736842104,-1.6755545684210527,7.664558147368421
992,1747679574640,3.2010066105263157,0.8763774263157894,-0.4253050701052632,-3.0807776,-2.1695565947368425,7.950833684210527
993,1747679574650,2.9716805235294115,0.7284031647058823,-0.04362523588235294,-3.0518472,-2.8925903,8.545812
994,1747679574660,3.2451682,0.5802461,0.02959194,-2.823768631578947,-3.3426923315789474,8.975729684210526
995,1747679574670,4.042567473684211,0.6300337631578947,-0.0429059047368421,-2.591877536842105,-3.6531323263157898,8.941809473684211
996,1747679574680,4.742215,0.90386605,-0.18615466,-2.49791,-3.7288222,8.293344
997,1747679574690,4.729396,1.2201385789473687,-0.2349661131578947,-2.701823978947368,-3.3705572105263157,6.796592263157895
998,1747679574700,4.135977152631579,1.383939547368421,-0.011332603421052634,-2.9023177789473684,-3.0848983684210527,5.713443368421053
999,1747679574710,3.5800147,1.402719,0.2673037,-2.956085552631579,-2.902457757894737,4.928849068421052
1000,1747679574720,2.9357035000000002,1.419315,0.5928761,-2.8430555,-2.7924554,4.3081923
