id,timestamp,acc_x,acc_y,acc_z,gyro_x,gyro_y,gyro_z
0,1747679542290,-0.14771566,0.70959646,0.6617002,0.10026793999999999,-0.4275702,-0.29907277
1,1747679542300,-0.3272556317647059,0.7039974976470589,0.6949207058823529,0.10678484764705883,-0.701280305882353,-0.24042060117647057
2,1747679542310,-0.39628794666666667,0.684824615,0.7696142116666667,0.14962515916666666,-0.8811061749999999,0.018109483166666673
3,1747679542320,-0.2975668,0.6729879,0.85060054,0.21531641,-0.9165262,0.2761696
4,1747679542330,,,,,,
5,1747679542340,0.19786942,0.71935874,0.7876338,0.22383852,0.0017310535,0.22397168
6,1747679542350,0.25983427210526316,0.7816575368421053,0.7325024684210527,0.09589474973684212,0.574562552631579,-0.1344054347368421
7,1747679542360,0.18130839099999999,0.8044301178571428,0.6926954457142858,0.007742184071428571,0.7623292828571427,-0.3820872357142857
8,1747679542370,-0.021293996,0.78720665,0.68952274,-0.08721846,0.69308716,-0.5611276
9,1747679542380,-0.2624799950588235,0.7968540758823529,0.761648848235294,-0.09254478,0.17430377,-0.5728455
10,1747679542390,-0.38298684,0.79404022,0.8564579149999999,-0.014780532999999997,-0.20812589,-0.49667916500000003
11,1747679542400,-0.5431697411111112,0.7916267411111111,1.0529782,0.27816697133333335,-0.9925150500000002,-0.23799765
12,1747679542410,-0.5411359,0.80233824,1.1327306,0.6387232253333334,-1.4178392666666668,0.07021863
13,1747679542420,-0.46252380526315795,0.8297753936842106,1.1136170631578945,0.9474328431578949,-1.4732105578947368,0.30005392999999997
14,1747679542430,-0.2926585405555555,0.9061710111111112,0.9844523666666668,1.357338188888889,-1.2549841222222224,0.5474567177777778
15,1747679542440,-0.12800125344444446,0.9785203888888889,0.8063718777777777,1.4697235666666666,-0.8548593055555556,0.5647376966666667
16,1747679542450,-0.041686334666666665,1.0642387777777778,0.6511786555555555,1.4408430555555556,-0.5100689733333333,0.46401107333333336
17,1747679542460,-0.04089992661111111,1.128669877777778,0.5565657888888889,1.3253211,-0.24967116,0.31345382
18,1747679542470,-0.0920706,1.1913655,0.5035511,1.1361776833333332,-0.07561892666666667,0.15549890555555554
19,1747679542480,-0.12829383157894736,1.2156427631578945,0.49892685263157893,1.0441476052631578,-0.02602186947368421,0.08571167315789474
20,1747679542490,-0.23097769999999998,1.2526879789473684,0.5374365705263159,0.887665985263158,-0.06218475894736842,-0.024178681052631573
21,1747679542500,-0.3249525915789474,1.2634265368421054,0.6305893526315789,0.8110791242105263,-0.2461950442105263,-0.007582994873684211
22,1747679542510,-0.3009836,1.2509154,0.7212502,0.8610904263157895,-0.41450670789473687,0.07259210759473685
23,1747679542520,-0.21286609684210528,1.2368885789473683,0.7723223842105263,0.9951454605263157,-0.5284899047368421,0.11385705236842106
24,1747679542530,-0.1167474988888889,1.1835827166666666,0.8092463694444444,1.2089706666666666,-0.6342905233333334,0.07075125822222222
25,1747679542540,-0.08980985578947367,1.1088484105263159,0.8048462157894737,1.4755232736842105,-0.7126123447368421,-0.03460705136842106
26,1747679542550,-0.12555526150000001,1.0390493699999999,0.7497560974999999,1.683462745,-0.735218355,-0.10183920625000001
27,1747679542560,-0.1685418711111111,0.988743781111111,0.7163148111111111,1.8575978444444443,-0.8116569333333333,-0.13632415222222222
28,1747679542570,-0.23362379999999996,0.94145083,0.6612121,2.0337214,-1.0464884,-0.12969585
29,1747679542580,-0.35516432,0.8765316599999999,0.57823265,2.2233384,-1.6185349,-0.031691592
30,1747679542590,-0.32510673578947363,0.815260362631579,0.42100839736842105,2.2679112157894736,-2.036510768421053,0.029701230631578947
31,1747679542600,-0.2777853357894737,0.7010415805263158,0.17864669578947368,2.0920866368421054,-2.540772894736842,0.02544017842105263
32,1747679542610,-0.2677918,0.61880714,0.091582485,1.7833844,-2.6837986,0.04607265
33,1747679542620,-0.2782734273684211,0.55897462,0.06756210684210527,1.5583335263157894,-2.651504326315789,0.13084521315789474
34,1747679542630,-0.26409241789473686,0.5274270063157895,0.05086345368421053,1.430782247368421,-2.5380257263157895,0.19375183157894738
35,1747679542640,-0.032572012631578946,0.38397268736842105,-0.018114827368421054,0.8288521705263158,-1.8385399,0.43612733789473684
36,1747679542650,0.12426688263157895,0.2975250505263158,-0.03995152631578947,0.40762453052631575,-1.3373052789473683,0.42138184999999995
37,1747679542660,0.18469033,0.2097672,-0.005064188,0.13009532,-1.0337052,0.3347591
38,1747679542670,0.1534797105882353,0.07774658905882353,0.05216005805882353,-0.07819504870588234,-0.7250294117647059,0.23788276705882355
39,1747679542680,0.07920621589473685,-0.07375024378947369,-0.0025722360526315817,-0.15006901,-0.6139913,0.23355906
40,1747679542690,0.020683851,-0.21001126,-0.15979649,-0.2355860177777778,-0.6934718722222222,0.314045645
41,1747679542700,-2.247921052631646e-05,-0.2824834273684211,-0.2482993336842105,-0.32006266631578945,-0.7987305057894737,0.3741738684210526
42,1747679542710,-0.04888531294736842,-0.47708693947368414,-0.4289017063157895,-0.6837100221052632,-1.3073658405263158,0.6187359684210526
43,1747679542720,-0.13844147,-0.6717676,-0.4287475600000001,-1.0331726,-1.8976340000000003,0.91213197
44,1747679542730,-0.17440780684210527,-0.7144133894736843,-0.32521591789473686,-1.1503515473684212,-2.220577157894737,1.15209667
45,1747679542740,-0.20677751,-0.7527946,-0.23203743999999998,-1.228171852631579,-3.0926355736842104,2.011427931578947
46,1747679542750,-0.14275315833333335,-0.7796408833333334,-0.166304685,-1.06655084,-3.4429765666666667,2.4493074333333333
47,1747679542760,0.1773686,-0.9138723,0.16235909,-0.6720482,-3.8076518,3.0405288
48,1747679542770,0.33698204,-0.9509691,0.11013083,-0.4025365,-3.8321528,3.3238888
49,1747679542780,0.5136281284210525,-0.9278479105263159,0.02689446547368421,-0.27694751473684215,-3.6886224421052627,3.447683747368421
50,1747679542790,0.6706513617647059,-0.9017269294117647,-0.08965155905882352,-0.2687519164705882,-3.2219448235294115,3.480106470588235
51,1747679542800,0.7499269,-0.9089911600000001,-0.19933376,-0.34288174,-2.9213524,3.458112
52,1747679542810,0.7549365047368422,-0.9847260421052632,-0.3314586589473684,-0.6768138421052633,-2.366013694736842,3.4638868263157896
53,1747679542820,0.70453227,-1.0300436,-0.39018652,-0.9543431,-2.1490362,3.5294847
54,1747679542830,0.6109498483333333,-1.033731561111111,-0.38557654499999994,-1.2685958499999999,-2.0860080333333335,3.7096918666666667
55,1747679542840,0.5719192421052631,-1.0429658368421053,-0.3760568894736842,-1.5436020631578946,-2.2061679578947366,4.005657563157895
56,1747679542850,0.5629533994736842,-1.1435431157894738,-0.35252464789473686,-2.0351931263157894,-2.6524574,4.771077421052632
57,1747679542860,0.68940073,-1.2140627,-0.32575542,-2.2582257,-2.8659587,5.24669
58,1747679542870,0.9920316978947369,-1.2569140736842104,-0.24539635052631578,-2.410165989473684,-3.020253642105263,5.593348868421053
59,1747679542880,1.3786184,-1.3097332,-0.13441454,-2.4766047,-3.2089736,5.825128
60,1747679542890,1.7485578526315788,-1.3454940421052632,-0.03124254,-2.3908229368421052,-3.3536250736842104,5.789806157894738
61,1747679542900,2.077649815789474,-1.396514805263158,0.06902646,-2.1411028421052634,-3.5513717684210526,5.601198052631579
62,1747679542910,2.1469107,-1.4083323,0.09060626,-1.8605272833333335,-3.72278575,5.462937999999999
63,1747679542920,2.5268361588235293,-1.3587169588235295,0.19443107882352942,-1.593187911764706,-3.8706274882352942,5.360297023529411
64,1747679542930,2.5505815,-1.355616,0.20092013,-1.5796528,-3.877959,5.3553467
65,1747679542940,2.602604184210526,-1.3526873210526316,0.20662336368421053,-1.526501752631579,-3.811352021052632,5.37149385263158
66,1747679542950,2.99598575,-1.37416435,0.20311665,-1.2506195,-3.249986225,5.514736875
67,1747679542960,3.2585014,-1.5666356736842106,0.0827193447368421,-1.362339,-2.5698154,5.667469
68,1747679542970,3.3193617,-1.7622153,-0.024100652,-1.5072148222222224,-2.4135766444444444,5.693981888888889
69,1747679542980,3.3661394555555555,-1.85625875,-0.09303326566666667,-1.7271326055555558,-2.4032199277777777,5.761744444444444
70,1747679542990,3.7423401,-1.951115588888889,-0.09059268977777778,-2.0068235,-2.6497102,5.825128
71,1747679543000,3.9748993,-2.0018795,-0.056316208,-2.1453078,-2.8659587,5.75269
72,1747679543010,4.188340911111111,-2.064114138888889,0.01836530861111111,-2.314329733333333,-2.986688638888889,5.661136311111111
73,1747679543020,4.208578,-2.0330418736842106,0.06851264705263158,-2.397887505263158,-2.8640525210526313,5.692923205263158
74,1747679543030,4.238481,-1.7080348,0.41617864,-2.4992711611111114,-2.4711602166666666,5.863004144444444
75,1747679543040,4.238481,-1.7080348,0.41617864,-2.37686955625,-2.4385882624999997,5.8745962875
76,1747679543050,4.5467524444444445,-1.2004498666666668,0.9112351755555557,-1.973208622222222,-2.4853044888888887,5.687117088888889
77,1747679543060,4.755638538888889,-0.8126157372222222,1.08936985,-1.4692204666666666,-2.5314658666666667,5.293916533333334
78,1747679543070,4.705742316666667,-0.21877019166666667,0.9398440933333334,-0.860599831111111,-2.4695621777777776,4.441468688888889
79,1747679543080,4.2649419368421055,0.23049922631578945,0.6114501094736842,-0.7465045410526315,-2.2189511368421053,3.5585832105263155
80,1747679543090,3.9187119777777775,0.517604751111111,0.38041067222222225,-0.9948231000000001,-1.9716697777777779,3.1329699944444447
81,1747679543100,3.6439575999999994,0.69739354,0.22874266,-1.592436,-1.509878,2.8210845
82,1747679543110,3.5860051090909093,0.7227755,0.24014678909090909,-1.7390550272727274,-1.3959916363636364,2.7637539363636363
83,1747679543120,3.0064802,0.9765950999999999,0.35418808,-3.2052453,-0.257128,2.1904483
84,1747679543130,2.8591239555555554,0.9843506927777779,0.4815588644444444,-3.5432888333333334,0.041145813333333316,1.9575106999999998
85,1747679543140,2.56614005,0.97250708875,0.726436375,-3.91271335,0.429301245,1.5847128375
86,1747679543150,2.446613,0.9624397,0.8247304,-4.0682766842105265,0.9642808263157894,0.8364982736842105
87,1747679543160,1.3499479894736843,0.9102371736842104,1.5082962105263158,-3.7743202052631575,1.0960931568421053,0.5345240663157894
88,1747679543170,0.75749262,0.9692733499999999,1.78778035,-3.1253505,1.1293126,0.26391907
89,1747679543180,-0.2332641410526316,1.2062658052631579,2.026391405263158,-1.41829338,0.894646267368421,0.034354753631578944
90,1747679543190,-0.56749415,1.3226682,2.006944,-0.26298696,0.63449764,0.0013315795
91,1747679543200,-0.963740387368421,1.5310674578947367,1.8329436736842104,0.7540034105263157,0.3764795857894737,0.03799907473684211
92,1747679543210,-1.2416887555555556,1.686476288888889,1.5455128444444446,2.003657338888889,0.05096990444444444,0.23338150777777777
93,1747679543220,-1.1605532,1.7385418,1.317726,2.8145597,-0.19853851,0.4838960199999999
94,1747679543230,-0.8955841052631579,1.7505647578947368,1.0763406,3.2738564578947367,-0.3985838236842105,0.6023084663157895
95,1747679543240,-0.6093178315789474,1.7422412368421054,0.8115256978947368,3.3599746,-0.43609232000000003,0.6245108
96,1747679543250,-0.24112535947368424,1.7526714421052632,0.45815648631578954,3.5597956210526314,-0.7086876794736842,0.44257498578947374
97,1747679543260,0.3207201384210526,1.8025617263157896,-0.08819780315789473,3.4084162105263154,-0.9937298289473684,0.021627657368421056
98,1747679543270,0.6513534921052632,1.8333902,-0.42345536,2.5329377368421055,-1.018342994736842,-0.5531100894736842
99,1747679543280,0.824685494736842,1.7969100263157898,-0.4067567210526316,1.4968285831578947,-0.7356556484210526,-1.0333197557894735
100,1747679543290,1.2101931736842106,1.657925957894737,-0.10774806736842106,0.24727432000000002,-0.28482488,-1.6274565
101,1747679543300,1.3792863736842105,1.5367192105263159,0.21353403368421053,-0.43236387157894735,0.12816102736842105,-2.187673036842105
102,1747679543310,1.4749780470588234,1.3190791176470587,0.6072897588235293,-0.8091538882352941,0.5913858000000001,-2.741346411764706
103,1747679543320,1.4655029,1.164031,0.7959317,-0.8946883,1.0030788,-3.1380005
104,1747679543330,1.4655029,1.164031,0.7959317,-0.8626182631578947,1.1893317842105262,-3.3008175789473686
105,1747679543340,1.6130161210526315,0.8685418631578948,0.7908450421052632,-0.6769260105263158,1.5391868157894737,-3.74307
106,1747679543350,1.6212113,0.8521257999999999,0.79056245,-0.5859300642105264,1.606298394736842,-3.935658631578947
107,1747679543360,1.8450246263157897,0.5506252315789474,0.5875582131578948,-0.44968843157894733,1.6179602631578947,-4.414242526315789
108,1747679543370,1.9514850157894734,0.39591864473684213,0.6302296736842105,-0.3885759305263158,1.5634636210526316,-4.625893457894737
109,1747679543380,2.1201155631578947,0.31699824263157894,0.7806716736842105,-0.17642026947368422,1.382480905263158,-4.876622657894737
110,1747679543390,2.4808835578947366,0.3011216636842105,1.0062833421052633,0.09628721789473683,1.1951627210526317,-4.945360147368421
111,1747679543400,2.8253899,0.38011914,1.1361475,0.3889544,1.0861695,-4.8807716
112,1747679543410,3.5036376473684214,0.5552494805263158,1.203404510526316,0.6644091131578947,0.9994345605263159,-4.838833852631579
113,1747679543420,4.1122221,0.6786825033333334,1.1755221,0.8152965499999999,1.0504239083333333,-4.876214861111111
114,1747679543430,5.650134194736842,0.8580602831578947,0.961967752631579,0.9688502626315789,1.4534610894736841,-5.236737794736842
115,1747679543440,5.7999597,0.87311476,0.9389493,0.9057193778947369,1.8276489789473684,-5.774696010526315
116,1747679543450,7.154785389473685,0.5587947557894737,0.7107685547368421,0.7749162131578947,2.3430122210526316,-6.495767247368422
117,1747679543460,7.622091,0.17169428,0.6987969,0.7649925,2.9652946,-7.166827700000001
118,1747679543470,7.583016078947368,-0.08913869157894737,0.7024706315789474,0.8830685236842105,3.2677734,-7.500647652631579
119,1747679543480,7.564981499999999,-0.20952314,0.7041662,0.93756515,3.407379,-7.6547184
120,1747679543490,7.068209315789473,-0.5317557747368421,0.6793237247368421,1.3460657657894737,3.6815442210526315,-8.106053894736842
121,1747679543500,5.841988321052632,-1.019459194736842,0.527828357368421,2.566016905263158,3.564813736842105,-8.438864421052632
122,1747679543510,5.394336,-1.1784304,0.306841,3.086202,3.3051136,-8.341813
123,1747679543520,4.893222315789474,-1.2717373368421052,0.09833902105263156,3.4117241894736843,3.0839872842105263,-8.221943105263158
124,1747679543530,4.276147155555555,-1.3338135111111111,-0.11274766611111112,3.6433349,2.8896608,-8.060584
125,1747679543540,3.7547598,-1.3365796,-0.2920755,3.659537957894737,2.8086446157894738,-7.867098052631579
126,1747679543550,3.35782502,-1.3163716300000001,-0.400925047,3.4936651949999997,2.850139435,-7.61152182
127,1747679543560,2.5725465,-1.2955779,-0.54345447,3.0712883,3.0111008,-7.0432568
128,1747679543570,2.345573052631579,-1.3306450578947366,-0.5349766515789474,2.9260760368421055,3.0340881157894737,-6.8016102736842114
129,1747679543580,1.955955010526316,-1.3916336421052633,-0.4857028210526316,2.5612512736842104,3.072718005263158,-6.119448905263158
130,1747679543590,1.5754313315789474,-1.3562324421052634,-0.43388562526315794,2.4046574631578945,3.053094631578947,-5.714424394736842
131,1747679543600,1.230257357894737,-1.2904141105263158,-0.32739959,2.2543431,3.0142404842105264,-5.275816157894736
132,1747679543610,1.0833092,-1.2570169,-0.24082349,2.0710056,2.9461198,-4.703938
133,1747679543620,1.1045150277777778,-1.4439646666666668,-0.04997072611111111,1.9695689500000002,3.143134466666667,-4.304819138888889
134,1747679543630,1.0512371352941177,-2.2072034823529414,0.618774844117647,2.660660588235294,3.170075794117647,-4.646977705882353
135,1747679543640,0.7549365184210527,-2.6649443368421055,0.7495094378947368,3.4094254105263158,2.818624521052632,-4.93784732631579
136,1747679543650,0.39116275,-3.1840928,0.52795684,4.529634,1.8659425,-4.9489484
137,1747679543660,0.16774190094444444,-3.3928972444444443,0.07843051,4.973612333333333,1.0906080805555556,-4.715892377777778
138,1747679543670,-0.15174901657894738,-3.4711041263157894,-0.7546795631578946,5.159933736842105,-0.05074719210526313,-4.227204315789474
139,1747679543680,-0.30920450263157895,-3.125621957894737,-1.630331357894737,4.2152131684210525,-0.8639358710526315,-3.4688488842105265
140,1747679543690,-0.19929308111111113,-2.6784062111111115,-2.077923633333333,1.8927515888888888,-0.8793603444444444,-2.4446320999999998
141,1747679543700,0.04514095821052632,-2.4739632052631575,-1.9104063105263156,-0.9689763578947368,0.14862531684210523,-1.4950274263157894
142,1747679543710,0.3201292336842105,-2.47034117368421,-0.9910554515789475,-2.8792744,1.1926959,-0.8998815000000001
143,1747679543720,0.2891468,-2.4240987,-0.11244937999999999,-3.5519603263157897,1.4454436473684211,-0.6957994031578947
144,1747679543730,0.08824916936842105,-2.2528989473684207,0.5754066957894737,-3.6845576421052635,1.5230957789473685,-0.41434551894736843
145,1747679543740,-0.14039393,-1.9130428,1.1210159,-2.955300568421053,1.249995752631579,0.02157158631578947
146,1747679543750,-0.25630828789473686,-1.5973611157894736,1.1900712263157893,-1.6395318157894738,0.7579000421052632,0.5800500652631579
147,1747679543760,-0.27804223,-1.4214086684210527,1.0592823105263156,-0.8256704157894736,0.46747553473684217,0.908936252631579
148,1747679543770,-0.23215946999999998,-1.2638505,0.73345304,0.3156287611111111,0.039015280388888886,1.337823188888889
149,1747679543780,-0.23215946999999998,-1.2638505,0.73345304,0.8927680052631578,-0.29536537126315787,1.538899452631579
150,1747679543790,-0.1725067310526316,-1.0571469315789475,0.1577348442105263,1.5206568263157894,-0.9369344010526316,1.7837419157894738
151,1747679543800,-0.10753612157894736,-0.9308279315789474,-0.34977576578947367,1.634191542105263,-1.558824147368421,2.0171467684210524
152,1747679543810,0.05616206210526315,-0.8545792557894737,-0.6840057636842105,1.5346174157894736,-1.7441239526315788,2.1337650736842106
153,1747679543820,0.39799634,-0.78989124,-0.9861743500000001,0.47553665000000006,-1.5303547111111113,2.4148639222222226
154,1747679543830,0.4011819305263158,-0.7902252142105264,-0.9857889947368421,-0.5151180336842106,-0.6601901463157894,2.5664864842105266
155,1747679543840,0.34674433,-0.7220434,-0.66353065,-1.2185284,0.27230802,2.8349328
156,1747679543850,0.13197397,-0.58341885,-0.30964765,-1.5583476,0.9210536000000001,3.3302805
157,1747679543860,0.11668826789473685,-0.5384352305263158,-0.11835813394736842,-1.5657484,1.0764699368421051,3.721905105263158
158,1747679543870,0.42240208,-0.5780496,-0.045577694,-1.3662240941176471,0.9639147882352942,4.646820823529412
159,1747679543880,0.7497984431578947,-0.5896102042105263,-0.10800496810526317,-1.1950927,0.60786605,4.9867654
160,1747679543890,1.218593957894737,-0.5850116631578948,-0.3754660305263158,-1.0736526,-0.16338481,5.344694
161,1747679543900,1.5055281,-0.60684836,-0.55321676,-1.0736526,-0.16338481,5.344694
162,1747679543910,1.694582552631579,-0.5636116905263158,-0.5450216094736842,-1.447055589473684,-0.8281093299999999,6.037003242105263
163,1747679543920,2.2110591210526316,-0.5361231336842106,-0.48161810631578944,-2.1037065105263157,-0.8845682936842106,6.874356510526315
164,1747679543930,2.9118117368421053,-0.6457947463157895,-0.28118283368421054,-2.7902969631578944,-0.2653698094736842,7.516430268421054
165,1747679543940,3.3476725,-0.76109254,0.07693905,-3.1477208,0.07203846,8.074965
166,1747679543950,3.952214915789474,-0.8606678936842106,0.30496558736842105,-3.108193889473684,-0.4101895863157895,8.585619000000001
167,1747679543960,4.7983484,-0.9885539,0.38445118,-2.8920577,-1.3042822,8.912262
168,1747679543970,5.173627188888889,-0.9669141777777779,0.26429366000000004,-2.8568447833333335,-1.7037560333333335,8.894803388888889
169,1747679543980,6.121267452631579,-0.833487652631579,-0.0829055947368421,-2.9196983736842106,-3.1909760894736845,8.647066842105264
170,1747679543990,6.6483026,-0.5863475,-0.46145122999999993,-3.4393228684210526,-3.858952563157895,8.243724631578948
171,1747679544000,6.6483026,-0.5863475,-0.46145122999999993,-4.4729648736842105,-3.6991630368421053,8.100643263157894
172,1747679544010,6.846837115789474,-0.2594135684210526,0.02625221736842105,-5.221677010526316,-3.308715936842105,7.7722616421052635
173,1747679544020,6.296089115789473,-0.04931882989473685,0.8197465331578947,-5.593229784210527,-2.823908784210526,7.342399810526316
174,1747679544030,5.197138,0.06040417,1.658918,-5.542825863157894,-2.2774286052631574,7.069916673684212
175,1747679544040,4.495434894736842,0.23746128421052634,2.2931328736842107,-4.462312357894737,-2.3911315263157893,7.227015052631579
176,1747679544050,4.292970536842105,0.37713910210526314,2.5386544684210524,-3.0441660842105267,-2.959982305263158,7.455878421052631
177,1747679544060,4.526391842105262,0.5913442578947369,2.2401856157894735,-1.48725528,-3.389844063157895,7.314198315789475
178,1747679544070,4.596269,0.8516377,1.6960149,-0.43023336,-3.4060473,6.814758
179,1747679544080,4.4347034,1.2377363,0.96872425,0.07576688,-3.069424,5.8954353
180,1747679544090,4.31267455,1.3614733499999998,0.6907430449999999,-0.0009321030000000036,-2.9133629000000005,5.6376414
181,1747679544100,3.834270963157895,1.6458257263157894,0.07642524631578947,-0.6844949685263158,-2.1854234210526315,4.794513268421053
182,1747679544110,3.3910446999999997,1.7439110285714285,-0.15271882714285714,-1.5790441000000002,-1.4196350142857141,4.131662985714286
183,1747679544120,2.5927218733333333,1.6214268733333332,0.28751162333333335,-2.71628908,-0.277368012,3.41315792
184,1747679544130,1.8843050062500002,1.5323439625,0.9907504006250001,-3.3330767,0.5807684,2.7718824874999997
185,1747679544140,0.9867437941666667,1.588934691666667,2.0173976083333334,-2.7565916,0.5407544346666667,2.4312866416666665
186,1747679544150,0.3426958541176471,1.649331705882353,2.361401023529412,-0.6885285,0.01771000835294118,2.0024607235294116
187,1747679544160,-0.030676636888888886,1.6889167333333335,2.0394305555555556,0.6748001222222222,-0.22303957666666666,1.7338053444444443
188,1747679544170,-0.41498883124999997,1.8029119625,1.560349489375,1.6566181,-0.43928808,1.522528
189,1747679544180,-0.74126285,1.9411094,0.89453083,2.2310996,-0.6485363085714286,1.3467595714285714
190,1747679544190,-1.044033267857143,2.0494359857142856,0.2119375735714286,2.662683585714286,-0.8311529714285715,1.0024511442857142
191,1747679544200,-1.2977133444444444,2.1284912,-0.29701090666666663,2.4310648444444443,-0.7696381777777778,0.8137726822222222
192,1747679544210,-1.454072711111111,2.192379888888889,-0.6551242244444445,1.7646832666666667,-0.6483165222222222,0.6627419666666666
193,1747679544220,-1.4263664571428571,2.1753345714285715,-0.7453247042857143,0.8267777857142856,-0.47383308571428573,0.5198106214285714
194,1747679544230,-1.3000238066666665,2.11370666,-0.5126056533333333,0.01071477999999996,-0.2712605118666667,0.34924668266666664
195,1747679544240,-1.0143629,1.9869107333333333,0.32107764333333333,-0.7801132977777778,-0.10704420244444444,0.02186749166666667
196,1747679544250,-0.6782961,1.8981552,1.0663471,-0.7743135,-0.28589013,-0.22876536999999997
197,1747679544260,-0.12466579777777777,1.8161519111111113,1.4065087888888888,-0.28251679166666666,-0.5806130716666666,-0.45690934499999997
198,1747679544270,0.5902363994736843,1.7200447684210527,1.4753870315789472,0.5941017289473683,-0.8447610610526316,-1.093927612631579
199,1747679544280,0.9002662,1.6526337,1.3206547,1.0962894,-0.863263,-1.6434355
200,1747679544290,1.0260455315789474,1.5683440315789472,1.143340763157895,1.3955724315789473,-0.7002776742105263,-2.2267514
201,1747679544300,1.0935595105263158,1.4395844947368421,0.9180887842105263,1.4893156421052631,-0.38439897315789473,-2.6899729894736844
202,1747679544310,1.1250300157894737,1.3580950842105264,0.7498948084210526,1.402973205263158,-0.09436694010526316,-2.9435056842105265
203,1747679544320,1.1531865526315788,1.2037480947368422,0.4656580084210526,1.1905933000000002,0.22442722178947372,-3.1685565684210526
204,1747679544330,1.1535976,1.198199,0.456204,1.17938,0.24035010999999998,-3.1795456
205,1747679544340,1.2219079894736842,1.0338586263157894,0.37307039578947365,0.7764860947368422,0.5404741305263158,-3.4390775
206,1747679544350,1.3771541,0.8291845,0.4420487,0.3420828,0.8187883,-3.7814195
207,1747679544360,1.4852585210526315,0.788080112631579,0.5744047421052632,0.3750498968421053,0.7049732810526317,-3.961168815789474
208,1747679544370,1.5382317777777779,0.7740817911111111,0.6204816055555555,0.41191673666666667,0.6533173311111111,-4.044184633333334
209,1747679544380,1.7998612,0.7237518,0.79056245,0.61265975,0.5652555,-4.1947417
210,1747679544390,2.024779252631579,0.7608741631578947,0.7787705789473683,0.994136244736842,0.44751585789473686,-4.3447759947368425
211,1747679544400,2.2469998315789477,0.8461657105263157,0.6656308210526316,1.4848864315789474,0.5313352842105263,-4.426016421052632
212,1747679544410,2.780431768421052,1.088219047368421,0.5045530221052632,1.818538247368421,0.5591442715789473,-4.275702157894736
213,1747679544420,3.7721777999999997,1.3486924315789475,0.16264167,2.2699295315789474,-0.1344544989473684,-4.0730776526315795
214,1747679544430,4.606108410526316,1.4348318157894737,-0.3379582663157895,2.1943520210526315,-0.6044039663157894,-4.132059694736841
215,1747679544440,5.670018105263158,1.4260457578947368,-1.0412542189473684,1.5291789684210526,-1.0531602884210525,-4.423829821052632
216,1747679544450,6.558643684210526,1.1684754526315788,-1.3168590526315789,-0.022013089473684234,-0.5484495857894737,-5.250249968421052
217,1747679544460,6.525786005263158,0.5883128515789474,-0.5962736031578948,-2.064516047368421,1.8140808300000002,-6.806880368421052
218,1747679544470,5.280194884210526,0.2852451194736842,0.8140433263157895,-2.1445228736842106,3.126093315789474,-7.35992047368421
219,1747679544480,4.4278182263157895,0.3754178405263158,1.7501697789473685,-0.832678742105263,3.0240522000000003,-7.030193210526317
220,1747679544490,4.473136047368421,0.4623022121052632,1.844709989473684,0.78842825,2.2419806,-6.380663
221,1747679544500,5.081943,0.35180852,1.3660494,2.3032331,1.4174664,-5.939644
222,1747679544510,5.416481257894738,0.26009437,0.8725399994736842,3.046002247368421,0.9855300631578947,-5.9063402105263165
223,1747679544520,6.1716458,0.09382716289473685,-0.046322705263157904,3.2764916473684207,0.6385905078947368,-6.155107315789473
224,1747679544530,6.303616705263158,-0.0947905552631579,-0.6021309431578947,3.0258744210526314,0.7072159105263157,-6.525538678947369
225,1747679544540,6.10400352631579,-0.30303560736842106,-0.9540358,2.6115429157894736,1.016254525263158,-6.80228302631579
226,1747679544550,5.097922157894737,-0.6601555736842105,-1.2013557263157895,1.4074024815789474,1.9767298947368421,-7.3410822
227,1747679544560,3.4167788105263157,-0.8450996210526316,-0.7653924168421052,-0.023582973157894732,3.011605336842105,-7.364573894736843
228,1747679544570,2.4803186,-0.9564411263157894,-0.20660408842105263,-0.4082552894736842,3.249719836842105,-6.96846427368421
229,1747679544580,1.7856543789473682,-1.0728948631578945,0.4265317884210526,-0.11295299789473684,3.239571863157895,-6.555702363157894
230,1747679544590,1.3390041052631578,-1.1156947789473686,0.8117825694736842,0.6229199189473684,3.026799421052632,-6.125560463157894
231,1747679544600,0.9947291789473683,-1.137043547368421,0.9731686631578946,1.5717895315789474,2.6391558210526314,-5.6808406842105255
232,1747679544610,0.7894642,-1.1960025,0.882328,2.5077639,2.1578248,-5.2557445
233,1747679544620,0.6664322,-1.225262322222222,0.6768046444444444,2.882440727777778,1.8985514277777777,-5.049556916666666
234,1747679544630,0.588977552631579,-1.2094385,0.29248012947368424,3.494534205263158,1.273655894736842,-4.543251578947369
235,1747679544640,0.6911904666666666,-1.2908593999999998,-0.17175528666666665,3.5717844999999997,0.9304634333333333,-4.044717333333334
236,1747679544650,0.7697673352941177,-1.3652059352941177,-0.5123874505882353,3.187715276470588,0.9832148823529413,-3.7062872470588233
237,1747679544660,0.8086547963157895,-1.4107214842105265,-0.6930487663157895,2.389687752631579,1.2908122052631579,-3.397700557894737
238,1747679544670,0.78507113,-1.5064434,-0.73235476,1.3202751736842107,1.8993581210526316,-3.213578031578947
239,1747679544680,0.5626057688235294,-1.7677856235294116,-0.6035499705882353,0.41427007294117646,2.6872607470588235,-3.2078064352941174
240,1747679544690,0.13264191263157896,-2.001699863157895,-0.5280403242105264,-0.10005769389473684,2.947465373684211,-3.146690789473684
241,1747679544700,-0.22403379764705883,-2.1465051294117647,-0.4720461811764705,-0.33153982117647063,2.481539523529412,-2.935537688235294
242,1747679544710,-0.5313736,-2.1878512,-0.26669356,-0.40963826666666664,1.5334026666666665,-2.4960016
243,1747679544720,-0.65633094,-2.171255,-0.030934256,-0.343947,0.7229145,-1.9651451000000002
244,1747679544730,-0.5781812757894738,-2.251408757894737,0.010812379894736842,-0.16189904631578947,0.07669196978526316,-1.3189224894736842
245,1747679544740,-0.46574935555555563,-2.3027208444444445,-0.02241936866666667,-0.05585236438888889,-0.2639930417333333,-0.82513545
246,1747679544750,-0.3991716631578947,-2.1784228736842106,-0.07059997784210525,-0.00866928422631579,-0.4596402394736842,-0.3455519037105263
247,1747679544760,-0.30618056470588234,-1.943506817647059,-0.1528767382352941,-0.06572519864117647,-0.5357258029411764,0.45118615167647064
248,1747679544770,-0.22321068388888887,-1.7118310888888888,-0.21763805111111112,-0.17326808999999999,-0.48254965555555557,0.904971071111111
249,1747679544780,-0.157152535,-1.4686957999999999,-0.21633641833333334,-0.4739091566666666,-0.33968596666666667,1.643613
250,1747679544790,-0.0934321845263158,-1.2427588,-0.17662358263157896,-0.6198502778947369,-0.3476754368421053,2.0635698210526314
251,1747679544800,-0.016060322444444445,-1.078014427777778,-0.12351330194444445,-0.6600344033333333,-0.5081159688888888,2.3795327166666667
252,1747679544810,0.017104344611111114,-0.9767849033333333,-0.0942806713888889,-0.6379598,-0.64381874,2.548377
253,1747679544820,0.05582809400000001,-0.76841426,-0.06754284,-0.525826747368421,-0.9344674978947369,2.904511315789474
254,1747679544830,0.10708011066666666,-0.6947902933333334,-0.07039017333333335,-0.4609484522222222,-1.0828257,3.130543577777778
255,1747679544840,0.3230322283157894,-0.5381269526315788,-0.09061267431578947,-0.37343796947368424,-1.267782905263158,3.5416512473684207
256,1747679544850,0.5696585094736841,-0.383163447368421,-0.13099772768421053,-0.3414800747368421,-1.3533964631578947,3.7982116000000006
257,1747679544860,1.020470805263158,-0.14342216315789474,-0.2299565194736842,-0.4010226947368421,-1.3081508105263158,4.023262631578947
258,1747679544870,1.4651945,0.006814335789473681,-0.2247157157894737,-0.4375780505263158,-1.0964436421052632,3.9661868421052633
259,1747679544880,1.8579469000000002,0.13020454,-0.26278865,-0.37270913,-0.6065345,3.3345416
260,1747679544890,1.7095085736842104,0.11494453789473685,-0.4533074236842105,-0.32606178157894733,-0.4670410094736842,2.6295613052631577
261,1747679544900,1.2265321684210526,0.047713191578947364,-0.6302874421052632,-0.3954721078947368,-0.5121184852631578,2.2793697421052634
262,1747679544910,0.78751177,-0.026968325999999997,-0.7616417,-0.57084817,-0.6512756,2.347042
263,1747679544920,0.5003377283333333,-0.208384221,-0.7998773166666667,-0.6537611750000001,-0.7542510666666666,2.5524603666666668
264,1747679544930,0.33767567789473685,-0.41031802736842105,-0.8157453157894736,-1.0683262,-1.2691284,3.5795522
265,1747679544940,0.60642123,-0.5487627,-0.7528556,-1.3101411,-1.6686023,4.66186
266,1747679544950,0.8974402363157895,-0.5388976894736842,-0.6948983789473684,-1.3998475421052632,-1.8381474789473684,5.196510105263158
267,1747679544960,1.2967236777777778,-0.49843271111111104,-0.6399926444444444,-1.526685588888889,-1.9083459,6.034984722222223
268,1747679544970,2.084611842105263,-0.40345874894736844,-0.5861002736842105,-1.6742931,-1.8475666631578946,6.8801874736842095
269,1747679544980,3.097666175,-0.3965930225,-0.59095414375,-1.893040075,-1.6734626000000001,7.835613374999999
270,1747679544990,4.143709842105263,-0.5274912005263158,-0.5548866157894737,-2.0288016210526316,-1.8350637736842106,8.411700263157895
271,1747679545000,4.844822131578948,-0.5924361484210526,-0.5020675157894737,-1.8778145473684211,-2.4894161263157897,8.649982157894737
272,1747679545010,5.06193,-0.36767226,-0.473166,-1.664874,-3.0598366,9.153011
273,1747679545020,5.3757877,-0.005491288,-0.6249696,-1.616264289473684,-3.391526105263158,10.014641684210526
274,1747679545030,5.7838514000000005,0.07250426873684211,-0.7628748052631579,-1.7190902578947367,-3.383060068421053,10.405873894736843
275,1747679545040,6.2547386000000005,-0.049019619411764706,-1.4061824882352942,-2.5077479823529414,-2.7072344058823528,10.292091529411763
276,1747679545050,5.81945958,-0.177429626,-1.611668715,-3.677157,-1.9892467,9.7943
277,1747679545060,4.8520412,-0.3144678,-1.6016867,-4.791896111111111,-1.6512030222222223,9.526683166666666
278,1747679545070,4.8520412,-0.3144678,-1.6016867,-4.857469,-1.6313181,9.510941
279,1747679545080,4.656063233333334,-0.3745058783333334,-1.3224852083333332,-5.254102166666667,-1.6412605666666669,9.477740166666667
280,1747679545090,3.6761734,-0.67469627,0.07352225,-7.237268,-1.6909729,9.311736
281,1747679545100,3.6761734,-0.67469627,0.07352225,-7.237268,-1.6909729,9.311736
282,1747679545110,4.842946726315789,0.06325579157894738,2.0493070210526314,-5.453344052631579,-0.501802257368421,6.0925654736842105
283,1747679545120,4.961751947058823,0.31419500588235294,2.6897872470588235,-4.435123476470587,0.009563874352941176,4.343158411764707
284,1747679545130,3.6556724999999997,0.4696318692307692,2.840192646153846,-2.5160195153846154,-0.3998733261538462,2.201756507692308
285,1747679545140,1.5077518444444444,0.7020035355555556,2.9117452999999998,0.3329688666666667,-1.6626841777777779,0.7498568
286,1747679545150,-0.14869188,0.7061797,2.4711406,2.65361615,-2.597512233333333,1.0982868666666665
287,1747679545160,-0.3776176,0.6471178,2.0225635,3.925504435294118,-2.869718529411765,1.7648442470588235
288,1747679545170,-0.3776176,0.6471178,2.0225635,3.9948719,-2.883003,1.8037577
289,1747679545180,-0.3604359684,0.6636811533333333,1.8873557798666667,4.0283211733333335,-2.8457187666666663,1.8750593466666667
290,1747679545190,0.18431706447058827,1.0698823470588235,-0.42024862988235295,3.863656447058824,-1.755139305882353,2.8789846588235295
291,1747679545200,0.2779202,1.1235175,-0.5478475,3.6689012,-1.5801854,2.8807392
292,1747679545210,0.4481860005882353,1.490149005882353,-0.5783403070588236,2.1016477047058824,-0.6598603105882352,2.2054247235294118
293,1747679545220,0.44876026999999996,1.8239619,-0.23252554,0.30160278,0.16365112,1.2114711
294,1747679545230,0.25260332,1.8794442133333333,0.11826607333333333,0.015259903200000003,0.327275616,0.8024098199999999
295,1747679545240,-0.08379977333333334,1.966464261111111,0.5556166588888889,-0.053840199222222225,0.42535088777777774,0.45738276555555557
296,1747679545250,-0.36544957714285714,2.0120951,0.9042582228571429,0.30198322621428575,0.40508551,0.1169887707142857
297,1747679545260,-0.4642741733333333,2.00254674,0.9898107893333333,0.8085262286666667,0.24915629533333336,-0.08381849866666666
298,1747679545270,-0.48965268947368423,1.9818539684210525,0.8660660315789473,1.1653633421052632,0.09928677831578947,-0.24031507473684213
299,1747679545280,-0.4980095735294118,1.9321510705882352,0.6049928117647059,1.4086623764705883,-0.031041471117647056,-0.41180272647058824
300,1747679545290,-0.4336422666666666,1.8885014999999998,0.41086360555555557,1.3822535444444446,-0.059580784444444444,-0.52159449
301,1747679545300,-0.06915490336842105,1.8246811315789475,0.07966221231578947,0.9686820710526315,-0.03667450136842105,-0.8038955736842105
302,1747679545310,0.43238131999999996,1.771841988888889,-0.01797210488888889,0.32882616,0.028658550833333334,-1.27177685
303,1747679545320,0.78555924,1.6946115,0.15991852,-0.33116382,0.17856482,-1.9257303
304,1747679545330,0.78555924,1.6946115,0.15991852,-0.63387622,0.43067721999999997,-2.4015481333333337
305,1747679545340,0.8829509515789474,1.4321343631578947,0.8351092915789473,-0.7140419842105263,0.6310215515789475,-2.8255977105263157
306,1747679545350,0.899534,1.3348711,1.1063725500000001,-0.545281815,0.694152435,-3.0842045000000002
307,1747679545360,0.9470995368421053,1.2008708157894736,1.3805644105263157,-0.13409006263157894,0.6811450063157894,-3.3142735736842104
308,1747679545370,1.1766203777777777,0.9614364083333334,1.3459012222222222,0.7744022572222222,0.6033091088888889,-3.724546461111111
309,1747679545380,1.18923,0.9487725500000002,1.3421319,1.0609675263157896,0.6136970042105263,-3.914914084210526
310,1747679545390,1.3219457263157894,0.7808097973684212,0.9116148421052632,1.279963247368421,0.7307638315789474,-4.244248810526316
311,1747679545400,1.4825610631578947,0.6921013789473685,0.6169221305263157,1.2274850684210528,0.824843452631579,-4.51359247368421
312,1747679545410,1.8437401368421051,0.7388833121052631,0.6342116594736842,1.015049059473684,0.8588758421052631,-4.7007422105263155
313,1747679545420,2.4695542,0.88727015,0.83644515,0.6795471057894736,0.8819752,-4.772395
314,1747679545430,3.3194387789473687,1.0689515210526317,1.1111508789473685,0.5708902578947369,0.8929081789473684,-4.688407705263158
315,1747679545440,4.3844275,1.1581737,1.4729465,0.6052029,1.0382326,-4.6006074
316,1747679545450,4.3844275,1.1581737,1.4729465,0.98230624,1.484578,-4.7220473
317,1747679545460,6.1167458526315786,0.8756324321052631,1.5116873210526316,1.2388665694736842,1.7553232,-5.033496784210526
318,1747679545470,7.088710368421053,0.656032277368421,1.4374939315789474,1.6009441105263158,2.1097756421052636,-5.619952605263158
319,1747679545480,7.323527633333334,0.36189620666666666,1.1384254333333332,1.9092040000000001,2.3077901333333335,-6.354623333333333
320,1747679545490,7.021145073684211,0.1044886097368421,0.7916928642105263,2.1715891263157894,2.2857123578947367,-7.100108410526315
321,1747679545500,6.45770652631579,-0.08335839342105263,0.24238417736842105,2.0370294421052635,2.0106500947368424,-7.39535447368421
322,1747679545510,6.065647657894736,-0.1851688047368421,-0.06628402789473685,1.4325763157894738,2.0223680789473684,-7.2656725263157895
323,1747679545520,5.8907485,-0.23100018999999997,-0.17932107,1.2422305,2.05769,-7.2062420000000005
324,1747679545530,5.8907485,-0.23100018999999997,-0.17932107,1.2422305,2.05769,-7.2062420000000005
325,1747679545540,4.877166210526315,-0.7080421684210526,0.8301510778947369,0.8665288842105263,4.747480489473684,-6.469584026315789
326,1747679545550,4.627919263157895,-0.8163522715789474,1.0699951252631579,2.0134814,4.7346973,-6.1942415
327,1747679545560,4.39609072631579,-0.9508406136842105,0.9334257810526316,3.2658949684210525,4.188721584210525,-6.013595489473684
328,1747679545570,4.091918373684211,-1.0608205263157895,0.4643734915789473,4.2628695789473685,3.393978963157895,-5.991169015789474
329,1747679545580,3.8300834999999998,-1.1009486894736842,0.11519181178947369,4.629320052631579,2.9700040157894736,-6.002830742105263
330,1747679545590,3.273427689473684,-1.1096832684210527,-0.40919731010526317,4.896197094736841,2.1079254157894733,-6.049309910526316
331,1747679545600,2.466574252631579,-1.058996594736842,-0.8399712205263159,4.597082205263158,1.4777939842105265,-5.932691352631579
332,1747679545610,2.066114789473684,-1.0026321789473684,-0.956861782631579,4.2152693,1.309370163157895,-5.730515668421052
333,1747679545620,1.668661147368421,-0.9460622289473685,-0.9886919578947369,3.67125597368421,1.2395112631578948,-5.419627063157894
334,1747679545630,1.3079445736842106,-1.0307886789473686,-0.760434247368421,2.563157505263158,1.4924273421052632,-4.7403810421052635
335,1747679545640,1.0349044783333334,-1.3293392166666669,-0.5105067116666667,2.073136,1.7764603,-4.401403
336,1747679545650,0.75164969,-1.4644942647058823,-0.38461627352941175,1.9030073235294116,1.8140578,-4.229394470588235
337,1747679545660,0.47902334,-1.504979,-0.2549788,1.6905945000000002,1.7050315157894738,-3.87241552631579
338,1747679545670,0.2866548852631579,-1.5103225789473684,-0.14564115789473683,1.6604307157894735,1.5935153263157893,-3.666259047368421
339,1747679545680,0.16554538222222223,-1.5470110444444445,-0.08565731666666666,1.6525938333333334,1.2626481555555555,-3.3465553999999997
340,1747679545690,0.112888677,-1.59171692,-0.040550112,1.6389347400000003,1.021507959,-3.19083748
341,1747679545700,0.015458156470588236,-1.657041094117647,0.04400567823529412,1.6388219470588237,0.86196277,-3.115567188235294
342,1747679545710,-0.15129515000000002,-1.7016892333333336,0.13356033,1.7215992333333334,0.69237699,-2.9366655333333336
343,1747679545720,-0.447366552631579,-1.7462360000000003,0.20610955473684212,1.856607357894737,0.5288123010526316,-2.576101810526316
344,1747679545730,-0.40641633111111114,-1.8955248444444446,0.01033853644444445,2.0433088444444447,0.28994405422222225,-1.8097349777777778
345,1747679545740,-0.3002385936842106,-1.940813947368421,-0.42612717105263154,2.0209382684210526,0.04013661263157895,-0.9727118147368422
346,1747679545750,-0.2584405673684211,-1.8040389210526315,-0.673549852631579,1.744193942105263,-0.07508005894736842,-0.5967298647368421
347,1747679545760,-0.1093858147368421,-1.6505142315789474,-0.8889368368421052,0.9648695521052633,-0.20033264421052632,-0.18094063081684209
348,1747679545770,0.01824328,-1.6255434,-0.8870871,0.010785795,-0.10692584,-0.00079894776
349,1747679545780,-0.068538342,-1.6227687157894737,-0.7324832168421053,-0.7727997163157895,0.2536378694736842,0.032672758130526315
350,1747679545790,-0.37322453,-1.5962564,-0.42533076,-1.2334422,0.48642599999999997,0.10679268
351,1747679545800,-0.7417766805263158,-1.5167194210526316,-0.047992573578947366,-1.4374121368421051,0.5474263484210526,0.4584978689473684
352,1747679545810,-0.8434957755555555,-1.4773734222222223,0.08952155811111112,-1.3970192666666668,0.49021360666666663,0.7801576611111111
353,1747679545820,-0.8073638578947367,-1.3857506210526314,0.2080620197368421,-1.076119492105263,0.25089060789473683,1.3727744210526316
354,1747679545830,-0.5372310263157895,-1.268731594736842,0.15796605789473683,-0.7014831205263159,-0.11455088052631579,1.853488642105263
355,1747679545840,-0.2836284271111111,-1.1737119666666667,0.02866995333333333,-0.59747976,-0.22303956999999996,1.9720693
356,1747679545850,0.1998732484210526,-0.9557474526315789,-0.27601911263157897,-0.21443337578947366,-1.0637007352631578,2.3074030210526315
357,1747679545860,0.4582913336842105,-0.8169431315789474,-0.43524719789473687,-0.3079522989473684,-1.347789789473684,2.348611915789474
358,1747679545870,0.5888491,-0.7532827,-0.48488072,-0.4547344,-1.3532842,2.347042
359,1747679545880,0.5888491,-0.7532827,-0.48488072,-0.4547344,-1.3532842,2.347042
360,1747679545890,0.7142402999999999,-0.6066314111111111,-0.3430021333333333,-0.8420169155555555,-0.9574796666666666,2.331891777777778
361,1747679545900,0.7797019,-0.48237914,-0.20909604,-0.9756483400000001,-0.71093035,2.3236063
362,1747679545910,0.773150847368421,-0.46234078210526314,-0.20562786631578947,-0.9756483400000001,-0.6924283631578948,2.3387442210526315
363,1747679545920,0.719766547368421,-0.44595040421052634,-0.24221077263157897,-0.9933092578947369,-0.7349267736842106,2.422507594736842
364,1747679545930,0.6905396333333333,-0.4425164733333333,-0.28833331,-1.0328174777777779,-0.8946290777777778,2.669698611111111
365,1747679545940,0.7927011221052631,-0.4697138863157894,-0.3215422057894737,-1.0677656684210526,-1.1437636947368421,3.018326357894737
366,1747679545950,1.0461866947368421,-0.5030084263157895,-0.33978226736842104,-1.1120581684210524,-1.5839419,3.6289465684210533
367,1747679545960,1.6820532176470588,-0.40419470588235296,-0.34912746529411764,-1.2121369,-1.9562234999999997,4.6203146
368,1747679545970,1.9448311105263159,-0.2917832631578947,-0.37955078789473684,-1.3565642210526316,-1.7907151894736844,5.194772326315789
369,1747679545980,2.4504662631578946,-0.13920897052631578,-0.38242806578947364,-1.6407652842105263,-1.3892228842105263,5.952903663157895
370,1747679545990,2.8614017777777776,-0.09015203777777778,-0.3915966066666667,-1.8928403999999999,-1.041162,6.3673472
371,1747679546000,3.364268,-0.06455314,-0.3286841,-2.2582257,-0.8558062,6.628337
372,1747679546010,3.7661918947368425,-0.026403139473684212,-0.1718452052631579,-2.3692375421052634,-1.1005365684210526,6.653566605263158
373,1747679546020,4.104403747368421,0.00866403305263158,0.008423186789473684,-2.363574736842105,-1.4221900315789473,6.592622421052631
374,1747679546030,4.266509357894737,0.0743796547368421,0.21140174642105267,-2.150241705263158,-1.896961257894737,6.529996
375,1747679546040,4.444773731578947,0.2259006768421053,0.3561405368421053,-1.7879399631578947,-2.341848989473684,6.730153631578948
376,1747679546050,4.527342089473684,0.29880957421052634,0.3436293894736842,-1.7170719,-2.4057648,6.7902569999999995
377,1747679546060,5.086670026315789,0.7159162289473684,0.0952561812631579,-1.6793390789473686,-1.9101929105263158,7.144428978947367
378,1747679546070,5.538227294736842,1.1375701052631577,0.07853184063157895,-2.0303714105263158,-1.287798647368421,6.852883063157894
379,1747679546080,5.520215599999999,1.4599640055555556,0.24406403555555556,-2.2420692,-0.9353459,6.45026005
380,1747679546090,5.1571126,1.5237714,0.4044639,-2.6193502,-0.3050649,5.1604033
381,1747679546100,4.38671392631579,1.5302454315789473,0.6241154084210526,-2.5668719578947368,-0.33029481789473686,4.459011605263158
382,1747679546110,3.7584592052631582,1.5306051,0.7144679547368421,-2.3968222105263157,-0.49883072315789473,4.151150284210527
383,1747679546120,3.1888724111111113,1.5105381,0.7358936011111111,-2.1474383333333336,-0.753540875,3.8970007000000004
384,1747679546130,2.6191230842105266,1.428974447368421,0.6251429684210527,-2.0064871684210526,-0.910471007894737,3.8766486315789472
385,1747679546140,2.306741,1.315617722222222,0.47247446666666665,-1.978357311111111,-0.9093060655555555,3.8158632000000003
386,1747679546150,2.2787015,1.3036318,0.4566921,-2.0049172315789474,-0.8534513715789473,3.7608712789473686
387,1747679546160,1.9480681315789474,1.146227705263158,0.46347435263157893,-2.1865726842105264,-0.5246773842105263,3.466634226315789
388,1747679546170,1.2798022555555555,0.9250176888888889,0.6102855222222222,-2.33705525,-0.10296068422222222,3.019519388888889
389,1747679546180,0.9200989910526315,0.8670004831578947,0.7829067842105263,-2.2503764210526316,0.036828686000000006,2.790640263157895
390,1747679546190,0.6050111133333334,0.8314081055555556,0.9602094133333333,-1.9764043611111108,0.05848592866666667,2.6032379999999997
391,1747679546200,0.45315330000000004,0.82967263,1.0404772,-1.531716,-0.027031064,2.431198
392,1747679546210,0.2889926842105263,0.8477842378947369,1.0635982789473686,-1.0658032894736842,-0.13636074768421053,2.2789773684210526
393,1747679546220,0.0569584652631579,0.8542581263157895,1.0274263842105265,-0.40388209684210524,-0.2699111710526316,2.045292189473684
394,1747679546230,-0.14791663529411764,0.8996165929411764,0.9568085176470589,0.04894729905882353,-0.3170960811764706,1.862911017647059
395,1747679546240,-0.49476504000000004,0.98782176,0.797396,0.5913545,-0.3050649,1.6162713
396,1747679546250,-0.7996053805263158,1.12364598,0.6231391642105264,0.5913545,-0.3050649,1.6162713
397,1747679546260,-0.8571086833333333,1.2204896333333335,0.5230757033333333,0.8785021666666667,-0.12130690666666667,1.4546471166666666
398,1747679546270,-0.81984925,1.3436571,0.38884422,1.1048115,0.10506163,1.178448
399,1747679546280,-0.7887127552631579,1.3562967631578946,0.4107323084210527,1.1411426368421054,0.18983418368421054,0.9530605894736841
400,1747679546290,-0.7401239883333334,1.3637512333333335,0.48264356666666663,1.2390347888888888,0.29124603555555556,0.7814596688888888
401,1747679546300,-0.5377448184210527,1.3642606789473684,0.7774347473684211,1.9479397526315791,0.7073841263157895,0.42839017789473677
402,1747679546310,-0.3353142863888889,1.3652969222222222,0.7659397777777778,2.336788972222222,0.6985910055555556,0.2930954657222222
403,1747679546320,-0.097439855,1.3763609,0.62948465,2.8710186,0.5205144,0.037550543
404,1747679546330,0.13539076,1.4095527,0.31318647,3.272623,0.2201101,-0.32037804
405,1747679546340,0.2551586484210526,1.4303616473684209,0.016772513583157893,3.3748884,-0.11331742,-0.7347656
406,1747679546350,0.3720178244444445,1.458852188888889,-0.35938108093777776,3.2177027999999996,-0.2903879177777778,-1.0226235555555556
407,1747679546360,0.46134275,1.4804920222222222,-0.7156504,2.6586760555555555,-0.32743542444444446,-1.4148773333333333
408,1747679546370,0.5107778972222223,1.4754751833333335,-0.9519519999999999,1.889082322222222,-0.13320234433333333,-1.7544004888888889
409,1747679546380,0.5585317833333333,1.4391648888888888,-1.0145391333333333,1.1790841244444445,0.11814070522222221,-1.9859177777777777
410,1747679546390,0.6757047970588235,1.3266305647058823,-0.8575705352941176,-0.24794794,0.6158868976470588,-2.434675835294118
411,1747679546400,0.7670109,1.2099138,-0.61423105,-0.9788441000000001,0.79535246,-2.805638
412,1747679546410,0.8527906115789474,1.0427988157894736,-0.19884565368421053,-1.232881442105263,0.75851674,-3.1264507210526316
413,1747679546420,0.8984935684210527,0.9083618421052632,0.21836380210526313,-1.237310794736842,0.6135848589473685,-3.449113352631579
414,1747679546430,0.912641275882353,0.8166658282352941,0.6210144470588235,-0.790167108235294,0.37764378117647057,-3.693441270588235
415,1747679546440,0.91344523,0.8106361599999999,0.8593866,-0.19800588,0.23289326,-3.775028
416,1747679546450,0.9793678961111111,0.8922326466666668,0.9294580499999999,0.43671371999999997,-0.029871769166666673,-3.707561333333333
417,1747679546460,1.349896647368421,1.1066647431578946,0.8065674621052631,1.3324416063157893,-0.7417669434210525,-3.5101698947368423
418,1747679546470,2.1815153894736845,1.3974011684210526,0.48587624263157886,1.9023015631578948,-1.706895763157895,-3.403363136842106
419,1747679546480,3.5224173444444444,1.8027559444444445,-0.21766516777777778,2.0400538833333335,-2.6922614166666663,-3.4114179666666664
420,1747679546490,4.4934056263157895,2.0246281526315792,-0.6503001763157895,1.1253319442105265,-2.6277880263157893,-3.5581628421052627
421,1747679546500,5.345037,2.0997465,-0.8241203,-0.02223738,-2.0883162,-3.779289
422,1747679546510,6.1582355,1.9855276,-0.767499,-1.3996233,-1.1072084,-4.2053947
423,1747679546520,6.579709526315789,1.8135316473684209,-0.54106526,-2.1744064,-0.31930576978947367,-4.580030957894737
424,1747679546530,7.077997663157895,1.4288973894736843,0.03547500736842105,-3.0855992578947364,1.0546600997894737,-5.413011142105264
425,1747679546540,6.977291599999999,0.9795238,0.5582199,-3.1306767,1.9234667000000003,-6.2496357
426,1747679546550,6.494058231578948,0.5972530236842105,0.8029194394736843,-2.6140798052631578,2.1789057473684212,-6.850107821052632
427,1747679546560,5.608772947368421,0.13850248315789473,0.9323725684210526,-2.5533037,2.2089574,-6.9207516
428,1747679546570,5.106050611111112,0.0016677246111111075,0.8921987611111111,-1.3237527666666666,1.961224288888889,-7.124572077777777
429,1747679546580,4.375358878947369,-0.10645391873684211,0.6950975368421052,-0.3623367968421053,1.7196648263157897,-6.870403842105264
430,1747679546590,3.682871316666667,-0.19628981666666667,0.3538084461111111,0.3939256088888889,1.728405,-6.240758333333334
431,1747679546600,3.5252947052631582,-0.27827022,0.2158204710526316,0.7245124410526316,1.9637224210526316,-5.8895200894736845
432,1747679546610,3.4345564105263158,-0.36998435736842106,0.1747931542105263,1.0504831,2.228132,-5.7542877
433,1747679546620,3.188547,-0.54339343,0.14381073,1.4478265,2.4763384,-5.7415047
434,1747679546630,2.8122106,-0.80258226,0.08084396,1.8803235000000003,2.579669,-5.6360435
435,1747679546640,2.4034960222222224,-1.0494597177777778,0.032683333333333335,2.3102163888888887,2.5948194888888887,-5.4580261666666665
436,1747679546650,1.9370213999999997,-1.2072291,-0.050458837,2.7313009789473686,2.478637184210526,-5.248063368421053
437,1747679546660,1.5507058444444446,-1.2413429999999999,-0.1468072087222222,3.0162495333333332,2.2723404,-5.051214166666667
438,1747679546670,1.123745452631579,-1.2749486210526315,-0.28811919947368425,3.304188505263158,1.8663908947368422,-4.738531263157895
439,1747679546680,0.6469347577777778,-1.4208063888888889,-0.4742506888888889,3.3660112000000004,1.6727746333333333,-4.50935
440,1747679546690,0.28697743611111115,-1.5499669222222223,-0.6425959888888889,3.2392448,1.5215072,-4.287775066666666
441,1747679546700,-0.007274261666666661,-1.6268449277777777,-0.7324632655555556,2.883683383333333,1.3347901222222223,-4.059808444444444
442,1747679546710,-0.22915369263157892,-1.7406612894736841,-0.6500175615789473,2.3522353,1.1724558,-3.7441353999999993
443,1747679546720,-0.25900576,-1.8046813000000002,-0.63131505,2.3522353,1.1724558,-3.7441353999999993
444,1747679546730,-0.3525610433333333,-1.95233605,-0.6825670916666666,1.6873332166666666,0.7001889166666666,-3.326019233333333
445,1747679546740,-0.516461744,-2.063699365,-0.678686581,1.035675933,0.104315939,-2.84835512
446,1747679546750,-0.6114244,-2.0585008,-0.601052,0.4810405083333333,-0.3125809083333333,-2.3045498166666665
447,1747679546760,-0.6114244,-2.0585008,-0.601052,-0.19623044333333334,-0.5637464166666666,-1.4664241999999998
448,1747679546770,-0.48970408421052636,-1.827083189473684,-0.38186288842105265,-0.5910320852631579,-0.5659423336842104,-0.9377263894736841
449,1747679546780,-0.21230946666666664,-1.5778707,-0.12953338,-1.0612245122222221,-0.32708031666666665,-0.2743941677777778
450,1747679546790,0.13215378842105263,-1.4091030368421051,0.08212848105263158,-1.427936852631579,0.1056783557894737,0.2657972831578947
451,1747679546800,0.3518966411111111,-1.3091908611111112,0.23156287499999997,-1.5252059999999998,0.35054571,0.4264901222222222
452,1747679546810,0.43167624,-1.2345636,0.39323723,-1.2974700894736841,0.40770863421052633,0.28121557526315794
453,1747679546820,0.23838292,-1.1891689,0.42789337,-0.990562,0.2818954,0.14407691
454,1747679546830,-0.003567729684210526,-1.1350139684210525,0.37854241473684214,-0.6407630836842105,0.0941286642105263,0.16790516578947368
455,1747679546840,-0.1867648,-1.1032608,0.27023238,-0.22511093166666665,-0.18190856333333333,0.41915164444444447
456,1747679546850,-0.20205049315789472,-1.1150525368421054,0.16366928473684209,0.05659212999999999,-0.3519365,0.7129277
457,1747679546860,-0.21664255052631579,-1.1032093789473685,-0.02289321184210526,0.3056956421052631,-0.4601448268421053,1.1471067684210525
458,1747679546870,-0.22288527000000002,-1.0822718,-0.16223705,0.3676491,-0.4744418,1.4149364
459,1747679546880,-0.207265606,-1.04556564,-0.27040321799999995,0.345491628,-0.466771896,1.6535554399999999
460,1747679546890,-0.1849208177777778,-1.0000517111111111,-0.3820512822222222,0.22987502,-0.46272389333333336,1.9326546000000002
461,1747679546900,-0.10022498117647059,-0.9233188188235294,-0.5243893000000001,-0.06616384235294118,-0.520122795882353,2.2474713764705885
462,1747679546910,0.0358154,-0.8470007000000002,-0.6059331,-0.5026713,-0.66299343,2.5547686
463,1747679546920,0.13708630842105266,-0.811394047368421,-0.5675518894736843,-0.8044212157894737,-0.8325385752631579,2.681927421052632
464,1747679546930,0.23003072666666668,-0.7854982611111111,-0.4834163888888889,-0.9977229055555557,-1.0029309499999999,2.839193877777778
465,1747679546940,0.40475675000000005,-0.7452776125,-0.33385810749999995,-1.1322421,-1.1913642,3.1907308
466,1747679546950,0.5306550355555556,-0.6688931377777778,-0.20660123444444445,-1.0980352666666666,-1.1792912722222222,3.576060544444444
467,1747679546960,0.6224776742105264,-0.5273884405263157,-0.08901988052631578,-0.9623045184210527,-1.0843893894736842,3.9813807105263153
468,1747679546970,0.7650584357894737,-0.35916875894736844,-0.026823819,-0.7671931068421053,-1.0380784,4.432603984210527
469,1747679546980,1.1052743,-0.1914629,-0.12465223999999998,-0.33951775263157896,-1.2892002736842105,5.304774789473685
470,1747679546990,1.5214732999999998,-0.1540408,-0.2609988933333333,-0.15930129555555556,-1.6674186666666666,5.737480177777778
471,1747679547000,2.1567241999999998,-0.10493819947368421,-0.5168650842105262,-0.12354955578947369,-1.9873403842105262,5.92604767368421
472,1747679547010,2.7437205105263156,-0.053275128684210526,-0.8069849631578948,-0.29617833578947367,-2.426789694736842,6.149472736842106
473,1747679547020,3.0855546,-0.010372433,-1.0179018,-0.70613664,-2.5005732,6.294909
474,1747679547030,3.094726189473684,0.005349991947368421,-1.0362446210526315,-1.2999930863157894,-1.982742989473684,6.612806115789473
475,1747679547040,3.1159463368421054,-0.016538089842105263,-0.9269069684210526,-1.8395772000000001,-1.5269222,7.1162276
476,1747679547050,3.3252189684210522,-0.19380072357894737,-0.6285918947368421,-2.2119707684210526,-1.3604046736842106,7.755049210526316
477,1747679547060,3.5233675789473686,-0.48312415789473684,-0.33384785789473687,-2.305097284210526,-1.4235916842105263,8.533981242105263
478,1747679547070,3.8354527157894736,-0.6341313726315789,-0.21269269263157894,-2.2060839263157894,-1.5993040842105264,9.398526789473685
479,1747679547080,4.794335161111111,-0.8016602722222221,-0.16663007999999999,-2.0489605999999996,-1.736483238888889,10.142878833333334
480,1747679547090,6.2255955,-0.9275396000000001,-0.34674433,-1.9152107999999999,-1.6174697,10.297105
481,1747679547100,6.666054078947368,-0.8346693894736842,-0.45348725894736847,-2.0467428421052634,-1.3696557789473685,9.783366789473684
482,1747679547110,6.661224563157894,-0.5509464052631579,-0.4492227,-2.3246084105263156,-0.9157973578947369,8.854176736842104
483,1747679547120,6.0641577894736844,-0.23002395852631577,-0.2308043042105263,-2.6584284947368424,-0.3943788184210526,7.7420418947368415
484,1747679547130,5.8087454,-0.124591224,-0.13539076,-2.780205,-0.20599535,7.335672
485,1747679547140,4.315192210526316,0.23401879073684212,0.46894638578947373,-2.8152464947368423,0.033016166315789484,6.6130868000000005
486,1747679547150,3.091412,0.53192276,0.86426777,-1.9748095157894738,-0.6188130442105263,5.856749268421052
487,1747679547160,2.4747437105263153,0.7083632905263159,0.9345819442105262,-1.3666,-1.3490232,6.1276627
488,1747679547170,2.1820805526315787,0.7568664842105264,0.94470388,-0.7718465684210527,-2.1007629894736843,6.577988847368421
489,1747679547180,2.1936833529411763,0.7391704588235294,0.9261434047058823,-0.41469303529411766,-2.4140363176470587,6.8115620588235295
490,1747679547190,2.6191483842105265,0.7921648684210526,0.8011981910526316,0.16468836263157896,-2.6418047210526314,6.963334105263158
491,1747679547200,3.9021703999999997,1.1430421,0.44497737,0.6928348857894736,-2.4752872263157895,5.906368105263158
492,1747679547210,3.8265125052631577,1.324620747368421,0.305993187368421,0.7387533421052632,-1.9615498473684212,3.9992658105263157
493,1747679547220,2.8326087,1.4209590631578948,0.4125819810526316,0.6648577,-1.2041473,2.0242672
494,1747679547230,1.8379341,1.3802658,0.6114244,0.7375198536842106,-0.5996382936842106,0.9958953305263157
495,1747679547240,1.7530278684210527,1.3732009842105264,0.6086241631578947,0.74155664,-0.56605446,0.93876356
496,1747679547250,0.10808203157894736,1.2330607473684212,0.47241452368421055,1.2043857105263156,0.07955136552631578,0.3511305252631579
497,1747679547260,-0.22442668842105265,1.1982762157894737,0.18630239589473685,1.3093421,0.023036325,0.5691171
498,1747679547270,-0.2506307489473684,1.2076274631578947,-0.06908425515789474,1.1378347,-0.18362482,0.76938665
499,1747679547280,-0.15259679,1.227974,-0.26376486,0.7271164027777778,-0.3005079027777777,0.8302842255555556
500,1747679547290,-0.03257200768421053,1.2489371999999999,-0.3418631842105263,0.24620906000000004,-0.24114904999999998,0.74275506
501,1747679547300,0.021685772052631582,1.2550257789473684,-0.35496521999999997,0.04504243052631579,-0.1530125047368421,0.6707656578947369
502,1747679547310,0.079908411,1.2458715333333332,-0.3020005233333334,-0.4508284566666667,0.18886236,0.4469668666666667
503,1747679547320,0.1105482972631579,1.2230928947368422,-0.19889702368421053,-0.8912682789473685,0.605679447368421,0.1692507747368421
504,1747679547330,0.09647004994736842,1.1680900684210527,-0.025025497684210526,-1.0935562105263157,0.9112980052631579,-0.1620462242105263
505,1747679547340,0.017348404666666668,1.0739196555555557,0.19107648677777778,-1.0938926,1.0510157,-0.48655918000000004
506,1747679547350,-0.08426076,1.01418,0.32978237,-0.8325270411764706,0.9315808952941176,-0.7143375941176471
507,1747679547360,-0.29268566,1.0049057,0.45815644,-0.4728439,0.7271756000000001,-0.9073383
508,1747679547370,-0.427405265,1.0092987500000001,0.5272247000000001,-0.0105194785,0.47151232,-1.0373005
509,1747679547380,-0.4142261811764706,1.004044294117647,0.5379488564705882,0.4156486388235294,0.23941018764705882,-1.1284745235294118
510,1747679547390,-0.2267902,0.9746425999999999,0.51819456,0.8768451,-0.11651321,-1.3259869
511,1747679547400,-0.024823439230769233,0.8916256507692307,0.44467700769230767,1.355722176923077,-0.5245911084615386,-1.7704476076923077
512,1747679547410,0.17639238,0.7911115,0.3244131,1.5820496,-0.83343565,-2.2421136
513,1747679547420,0.2357170646153846,0.6998717307692307,0.19299765384615386,1.7393809076923077,-1.0972932269230768,-2.646913907692308
514,1747679547430,0.19819482555555556,0.6498024055555556,0.006840380833333336,1.682835388888889,-1.494254188888889,-3.1274661555555556
515,1747679547440,0.15871178222222224,0.7056914866666666,-0.19027652888888888,1.2988079222222222,-1.695470677777778,-3.263109755555556
516,1747679547450,0.1773686,0.7915997,-0.29744476,0.7007925573333333,-1.5457420066666667,-3.1304015400000003
517,1747679547460,0.3342786446153846,0.9302617384615386,-0.31944747,-0.013551383076923077,-1.1360524615384615,-2.8584915384615384
518,1747679547470,0.8583425644444445,1.049758022222222,-0.1239471788888889,-1.1130673833333333,-0.09929145333333333,-2.4796674000000003
519,1747679547480,1.5026282294117645,1.064541817647059,0.2543543247058824,-1.5862951352941175,0.5383106164705883,-2.4977768470588235
520,1747679547490,2.0575855,1.0581101,0.7188096,-1.8289245,1.35142,-3.043192
521,1747679547500,2.0575855,1.0581101,0.7188096,-1.68910865625,1.6170701875,-3.49359878125
522,1747679547510,2.0738559666666667,1.0005126333333334,1.0891258,-1.362339,1.629809,-4.0228793
523,1747679547520,1.8121183111111112,1.0007839444444444,1.4452324333333335,-0.7206952333333334,1.2040586,-4.538585111111111
524,1747679547530,1.814721588888889,1.1234633111111112,1.6168317777777779,-0.3028751666666667,0.7072906666666667,-4.33630361111111
525,1747679547540,2.64794737368421,1.422628905263158,2.067187178947368,0.4590935873684211,0.1335434105263158,-3.6609326842105263
526,1747679547550,2.6926227,1.4339583,2.08553,0.6625028726315789,0.13657100105263156,-3.532596394736842
527,1747679547560,5.5958055625,1.4917694875,1.7356741125000001,2.0390477,1.2406327,-3.5598447
528,1747679547570,6.492106,1.4398158,1.4548863,2.471769010526316,1.7543701052631577,-3.9773157578947376
529,1747679547580,7.305047578947369,1.214615147368421,0.9207862263157895,2.7669032000000002,1.7704050315789475,-5.112326421052631
530,1747679547590,7.397840894736842,0.8603724178947368,0.37828551157894735,2.649275647368421,1.2885695842105263,-6.445251157894737
531,1747679547600,6.828904999999999,0.21025531,-0.4033656,2.641987,1.261938,-6.515951
532,1747679547610,6.3214199578947365,-0.10552907315789473,-0.7777751157894737,1.751090147368421,1.2281859157894737,-7.643897105263158
533,1747679547620,5.394952984210526,-0.4439722331578948,-1.1757939368421053,0.3396719131578947,1.9128700684210527,-8.346972
534,1747679547630,4.516760866666666,-0.5778326277777778,-1.0465920888888889,0.21105535,1.9948393,-8.382294
535,1747679547640,4.200022936842106,-0.7652029368421053,-0.6497863652631579,-0.9872541105263156,2.801524126315789,-7.68045312631579
536,1747679547650,4.135746152631579,-1.0257019368421052,-0.2207337212631579,-1.8587519,3.3882040000000004,-7.1700234
537,1747679547660,3.9897229473684215,-1.2357453736842106,0.3669561186842105,-1.6468205631578947,4.352884315789474,-6.174730684210527
538,1747679547670,3.7851857499999997,-1.2690570666666667,0.797802835,-0.9671854305555555,5.095940277777778,-5.624621805555556
539,1747679547680,3.409097631578948,-1.3523019736842106,1.0201303763157894,0.5525564815789473,5.602494757894737,-5.3114186052631585
540,1747679547690,2.9728003,-1.4595844,1.0131426,3.0446568,5.610344,-4.899946
541,1747679547700,2.427062689473684,-1.5170791000000001,0.6686365231578947,4.4759226000000005,4.836738536842105,-4.733989442105263
542,1747679547710,1.9228660999999998,-1.543052,0.17602628,6.157357,3.3988568999999997,-4.5611925
543,1747679547720,1.7453978894736841,-1.5376827263157895,-0.12352187578947367,6.749419436842106,2.449090210526316,-4.552558368421053
544,1747679547730,1.5145453842105265,-1.5321592894736842,-0.5417075494736842,7.273809452631579,1.378836607894737,-4.572574131578948
545,1747679547740,1.0274584999999998,-1.5457237105263157,-1.3441677094736841,7.0578412526315795,0.14503704368421055,-4.613726710526316
546,1747679547750,0.47594053684210524,-1.5082416421052631,-1.9718572631578943,5.889751510526316,-0.17616797105263157,-4.319994531578948
547,1747679547760,-0.0022061487368421053,-1.3618586894736842,-2.3085535315789474,4.278232,-0.20812589,-3.718569
548,1747679547770,-0.1237980347368421,-1.2024250263157896,-2.330004926315789,2.753222905263158,-0.13636075315789475,-3.062815147368421
549,1747679547780,0.04313712,-1.0544493,-2.0585618,0.45903750789473685,0.1506437042105263,-2.2345447210526315
550,1747679547790,0.19881995684210527,-1.032098905263158,-1.6531699052631579,-1.0833520973684212,0.5595928021052632,-1.9201236894736842
551,1747679547800,0.281337,-1.0393178,-1.0662252,-2.170874,1.0020136,-1.8618144999999997
552,1747679547810,0.22666817999999997,-1.061283,-0.53613275,-2.6598300578947365,1.2288586473684209,-1.9190023210526312
553,1747679547820,0.2164177611111111,-1.0810244777777778,-0.2639275688888889,-2.7910352166666663,1.2369043,-1.96301455
554,1747679547830,0.3047407836842105,-1.2231315105263156,0.03334271684210526,-2.6643715631578946,0.9387145421052632,-2.0200342421052633
555,1747679547840,0.44146422315789474,-1.5500139894736842,0.10368258363157895,-2.2591228157894734,-0.05298985789473685,-2.1989985789473683
556,1747679547850,0.44721883947368424,-1.7836923684210526,0.10350275536842106,-2.0418090052631577,-0.7549424842105263,-2.288088336842105
557,1747679547860,0.3291465205263158,-1.8949824631578949,0.15370147789473684,-1.8008352,-1.6599680263157897,-2.1895793578947367
558,1747679547870,0.15589157,-1.7602628,0.26632747,-1.6041539,-2.1501014,-1.7851156000000001
559,1747679547880,0.03604661394736842,-1.576654805263158,0.30339849736842106,-1.5045797315789473,-1.9812853000000004,-1.474955602105263
560,1747679547890,-0.19603899,-1.3834385,0.26535124,-1.3825791,-1.3458275,-0.9030772399999999
561,1747679547900,-0.3041435036842105,-1.2823217842105266,0.25466410736842104,-1.3354831736842105,-0.9965331000000001,-0.582040432631579
562,1747679547910,-0.38555586000000003,-1.1712885999999998,0.26848544999999996,-1.3186632,-0.8717851,-0.46738443
563,1747679547920,-0.37641010736842107,-1.0551687421052633,0.26673851368421053,-0.924067152631579,-0.5609524315789475,0.5014448036842105
564,1747679547930,-0.24705978421052632,-1.0038395210526316,0.21453594684210528,-0.6205791552631579,-0.8050660047368421,0.9417911668421052
565,1747679547940,-0.12117763368421051,-0.9769932631578947,0.16767696421052633,-0.4129648694736842,-0.9945146994736842,1.1731776168421053
566,1747679547950,0.012077621578947371,-0.9323693368421053,0.09700312368421053,-0.13644485421052632,-1.2156971,1.4009197999999998
567,1747679547960,0.05605930736842105,-0.8756453368421052,0.03467860926315789,0.08148566789473684,-1.4284695105263157,1.5816221684210525
568,1747679547970,0.044492993611111115,-0.7773087722222223,-0.01924662611111111,0.2949744733333334,-1.5927318777777777,1.8122797777777775
569,1747679547980,0.03435106,-0.6429688,-0.09194857,0.48695864999999994,-1.6568844,2.0945747
570,1747679547990,0.05546843184210527,-0.5711389157894736,-0.21641776315789474,0.5354001078947369,-1.7073442736842106,2.3135703736842106
571,1747679548000,0.10934085368421052,-0.5324751089473684,-0.33359092315789474,0.45612207789473685,-1.9179301,2.6726764684210527
572,1747679548010,0.1939645,-0.49409387,-0.37798366,0.22809957999999997,-2.22467,3.2141666
573,1747679548020,0.37729002421052626,-0.4233943752631579,-0.3492105989473684,0.030745471368421054,-2.3170674736842103,3.645654431578947
574,1747679548030,0.6033897747368421,-0.3703954231578947,-0.2700076,-0.21785342094736843,-2.1618754631578945,4.380406047368421
575,1747679548040,0.8283848736842105,-0.34372895789473684,-0.1622627463157895,-0.3941265157894737,-1.905259057894737,4.7987743
576,1747679548050,1.5201972368421053,-0.23433992105263157,0.13659177157894736,-0.5423663678947368,-1.1782446368421051,5.2921596736842105
577,1747679548060,1.972037194736842,-0.13332590526315788,0.26406672421052635,-0.5697268352631578,-0.47875890000000004,5.580453736842105
578,1747679548070,2.441063747368421,-0.023859806950526315,0.30822826315789476,-0.3709710684210526,-0.2693505163157895,5.547430415789473
579,1747679548080,2.4683981210526316,-0.06529815874736841,0.2067004431578947,0.08681197368421052,-1.0552908268421053,5.300962110526316
580,1747679548090,2.2533195,-0.20757069,0.016900964,0.5263734,-1.958354,5.1934266
581,1747679548100,2.0550423263157893,-0.4399131884210526,-0.19054769536842106,0.7389215010526315,-2.4225285315789473,5.874914905263158
582,1747679548110,2.240911247368421,-0.6275289684210525,-0.34422669894736846,0.7184011915789474,-2.470241189473684,6.664443357894737
583,1747679548120,2.4667540789473685,-0.7127435147368422,-0.4261528652631579,0.46671864,-2.0414445,8.049398
584,1747679548130,3.6630199473684213,-0.7814135442105263,-0.7053543463157894,0.18190078210526317,-1.6719662368421053,8.65659852631579
585,1747679548140,4.960891,-0.6639578,-0.8621931699999998,-0.7808733036842106,-0.9135546631578947,9.804560368421052
586,1747679548150,5.7477316,-0.6163666055555557,-0.9129571083333333,-1.1592287711111111,-0.7928372444444445,9.704817666666665
587,1747679548160,6.392140165,-0.5714844450000001,-0.9425856625,-1.8034646950000002,-0.591034884,8.90128915
588,1747679548170,6.331952721052632,-0.3983977573684211,-0.8924820605263157,-2.6813035684210527,-0.30444813894736844,7.063244410526316
589,1747679548180,5.0579439,-0.16152521916666665,-0.7104710316666667,-3.355447227777778,-0.2971345722222222,6.111032755555556
590,1747679548190,3.574523425,-0.033557872249999995,-0.34466986375,-3.89580225,-0.625176585,5.989711250000001
591,1747679548200,3.1377287555555555,-0.03713737722222222,-0.011274091388888886,-4.0562723499999995,-1.0759606444444443,6.368708038888888
592,1747679548210,3.2154703315789477,0.055625784736842106,0.4214964863157895,-3.928446994736842,-1.6931593842105261,6.8835513789473675
593,1747679548220,3.482957115789474,0.23055061000000002,0.8711013157894737,-3.5471947,-1.9263960999999998,6.994787
594,1747679548230,3.6005156,0.40647733,1.0585374,-2.861165,-1.9306571,6.6208797
595,1747679548240,3.4066569842105268,0.5231880942105264,1.1108169842105264,-2.198683157894737,-1.7611120157894735,6.0353213
596,1747679548250,3.137628989473684,0.6708299263157894,1.1203993263157894,-1.617273394736842,-1.6198245157894737,5.427560168421053
597,1747679548260,2.9581568,0.8984968,0.9365086,-1.0257157,-1.5908381,4.901544
598,1747679548270,2.769093838888889,0.9465218166666666,0.8560239844444444,-0.8165689433333332,-1.6036212666666667,4.516983933333333
599,1747679548280,2.1396658894736844,1.0599085000000001,0.6241154273684211,-0.2998787142105263,-1.587305863157895,3.461756452631579
600,1747679548290,1.6671196789473683,1.0974419263157895,0.48831681263157894,-0.1690194952631579,-1.4008286842105264,2.8834864315789477
601,1747679548300,1.230771,1.1335110157894739,0.3910792442105263,-0.23568257263157893,-1.027930367368421,2.4390471894736847
602,1747679548310,0.9183264000000001,1.1406015,0.34052086,-0.38336176,-0.6299703,2.0817914
603,1747679548320,0.6955406821052632,1.1364911,0.33312207263157895,-0.38336176,-0.6299703,2.0817914
604,1747679548330,0.45022460000000003,1.0795872,0.40885687,-0.7103977,-0.027031064,1.6184018
605,1747679548340,0.2977273621052632,1.046703747368421,0.5403909584210527,-0.7170696273684211,0.1073603512631579,1.4487444842105264
606,1747679548350,0.06851907,1.1435302,0.682201,-0.5435437663157895,0.08386848694736843,1.2486431789473684
607,1747679548360,-0.15298213736842106,1.2998296,0.747865227368421,-0.28429222,-0.1782985,1.0836394
608,1747679548370,-0.2773913966666666,1.3712627444444445,0.7744275455555555,-0.10734010194444445,-0.39525719,1.0367086777777779
609,1747679548380,-0.4449516894736842,1.4975417421052633,0.842944867368421,0.2071867802631579,-0.6765054947368421,1.0265076842105265
610,1747679548390,-0.4721319368421052,1.6422291210526314,0.946579262631579,0.6798274157894737,-0.6874945263157894,1.0614931684210527
611,1747679548400,-0.31725407,1.8081794666666668,1.0050074333333334,1.1122684250000001,-0.469115475,1.032506775
612,1747679548410,0.12264840105263158,1.949150352631579,0.8652953526315789,2.0624835,-0.00785632,0.7363635
613,1747679548420,0.45559387999999995,1.9796703,0.5147778,2.612327805263158,-0.03942176315789474,0.2297465294736842
614,1747679548430,0.6972647422222223,1.9827075444444442,0.07135285333333333,2.7687533,-0.33915332,-0.356597
615,1747679548440,0.88562272,1.9381806400000001,-0.353089821,2.5258732200000003,-0.7422490639999999,-0.9267260399999999
616,1747679548450,0.9439524499999999,1.8705768,-0.63814868,1.9970881666666667,-1.0474352055555556,-1.5054246166666667
617,1747679548460,0.8692837315789474,1.6726976842105263,-0.9707087973684211,0.8515030315789475,-1.0833240684210526,-2.184084705263158
618,1747679548470,0.8244799947368421,1.544554842105263,-0.9202532078947369,-0.2032200694736842,-0.8448171894736841,-2.5549647263157893
619,1747679548480,0.7735619368421053,1.3597907157894735,-0.5812962,-1.2802576815789475,-0.4050875305263158,-2.8764501368421054
620,1747679548490,0.7498241578947368,1.2434396368421052,-0.23586526894736845,-1.8717593000000001,-0.01934995263157895,-3.0787941210526317
621,1747679548500,0.8153071555555554,1.044117628333333,0.6125090844444444,-2.1443609277777775,0.3991927466666667,-3.285776116666667
622,1747679548510,1.0452361,0.98928607,1.0165594,-1.632916,0.5535376,-3.45971
623,1747679548520,1.508945,0.9722020000000001,1.0092378,-1.0544778,0.4459459800000001,-3.7281563
624,1747679548530,1.9644327263157892,0.9162487157894738,0.8325916736842105,-0.6694130815789473,0.2905857,-4.139908557894737
625,1747679548540,2.2094919947368425,0.8814127078947369,0.6514498368421053,-0.5293589410526316,0.25627299894736844,-4.497388942105263
626,1747679548550,2.4001136789473687,0.8293643078947369,0.4170007210526316,-0.5837434368421053,0.36896667368421054,-5.006585036842106
627,1747679548560,2.481551757894737,0.7594869,0.2623454894736842,-0.778126,0.5421561210526317,-5.236009163157895
628,1747679548570,2.6576952277777774,0.6378978488888889,0.1976660372222222,-1.5146716666666666,1.2342411,-5.377361916666667
629,1747679548580,2.980122,0.61783093,0.38298684,-1.9527191999999998,1.9173554157894734,-5.084797789473684
630,1747679548590,3.8123574,0.7657296,0.648033,-2.0864381052631575,2.3415547368421055,-4.675232105263158
631,1747679548600,4.589846757894736,0.882620194736842,0.7505627478947369,-1.9146503157894734,2.429691221052632,-4.493352357894737
632,1747679548610,5.9026436,0.942915145263158,0.7432153631578947,-1.5467978894736842,2.377717542105263,-4.7743575210526314
633,1747679548620,6.9499574,0.80965996,0.54601705,-1.1812443,2.4369237,-5.2024813
634,1747679548630,7.461193221052632,0.26700505368421057,0.21520389810526314,-1.1158706315789473,2.923636989473684,-5.755353163157895
635,1747679548640,7.3175077,-0.44137752,0.037889887,-1.1430630231578947,3.807021036842105,-6.677871789473684
636,1747679548650,7.3175077,-0.44137752,0.037889887,-0.9735178399999999,4.7879605,-7.464036
637,1747679548660,4.8518613526315795,-0.6767514694736841,0.7874795687894738,-0.27257434,5.41114,-7.699459000000001
638,1747679548670,4.714881,-0.6898278,0.82912344,0.3316668711111111,5.463811111111111,-7.514221555555555
639,1747679548680,3.509289442105263,-0.1857339865263158,1.1618121042105265,2.6688989778947367,4.952179263157895,-6.493917194736842
640,1747679548690,3.694541736842105,-0.3154182957894737,0.6009685263157895,4.076953268421053,4.1397755789473685,-5.962743005263158
641,1747679548700,3.9743806875,-0.49561929375,-0.026724269375,4.9129963000000005,3.456247975,-5.737909525
642,1747679548710,3.9704805684210527,-0.5566753368421052,-0.34461206326315785,5.02621552631579,3.243328421052632,-5.724068168421053
643,1747679548720,3.6005156,-0.70691186,-1.6807612,4.803574973684211,2.2715836,-5.733935836842105
644,1747679548730,3.0965517411764707,-0.6113562270588235,-2.1236248235294117,3.6361286294117647,1.9341192470588235,-5.765003529411764
645,1747679548740,2.9436933263157896,-0.5854483789473685,-2.128439463157895,2.2489047,1.9586203000000002,-5.664806
646,1747679548750,1.9121275999999998,-0.4159956,-1.9340926,0.9409851947368422,2.2512877000000002,-5.39736834736842
647,1747679548760,1.5594647722222221,-0.42337154111111114,-1.3776691888888888,-0.06129704777777778,2.625712161111111,-5.08471065
648,1747679548770,1.3367947157894737,-0.45964330157894734,-0.8416667210526316,-0.43640064842105264,2.852825042105263,-4.875445394736842
649,1747679548780,1.1874943999999998,-0.5234350033333334,-0.4401911444444444,-0.49284717777777776,2.9301408777777778,-4.727373822222223
650,1747679548790,1.1092563263157895,-0.6486206536842105,-0.03866701715789474,-0.19301595578947367,2.8611789842105266,-4.6673826
651,1747679548800,1.2356008,-0.99148256,0.33954465,0.43448041578947366,2.654517863157895,-4.804297042105263
652,1747679548810,1.355107561111111,-1.3880756111111112,0.34941540555555556,1.0742740166666667,2.3448966944444445,-5.1373225
653,1747679548820,1.2594927263157896,-2.1230347684210527,0.2056985152631579,1.7847300526315788,1.7577901,-5.57717347368421
654,1747679548830,0.3870009163157895,-2.879406684210526,-0.028236782105263158,2.580201689473684,0.6712212347368421,-5.712125868421052
655,1747679548840,-0.6227538089473684,-2.519255347368421,-0.31157440105263157,2.833229842105263,0.16196913842105265,-4.977710715789473
656,1747679548850,-0.9260142166666666,-2.2444725,-0.8056533333333333,2.5922747833333335,-0.0375061575,-3.90392475
657,1747679548860,-0.7856813,-2.171255,-1.291734,1.5421303315789474,-0.12021360021052632,-2.502150115789474
658,1747679548870,-0.42789337,-2.0067606,-1.4469544,0.5135902,-0.014247901,-1.7595493
659,1747679548880,-0.1646968931578947,-1.8422147842105265,-1.1856847157894737,-0.42748611578947365,0.19431949715789473,-1.2658835894736842
660,1747679548890,-0.025090440666666665,-1.7271795444444444,-0.9415931911111112,-0.8346784666666667,0.28722172,-1.0596710666666667
661,1747679548900,0.05783193894736843,-1.5208812684210526,-0.3812976931578948,-1.491179847368421,0.3232724715789474,-0.612036
662,1747679548910,0.14137658210526316,-1.3204974684210526,0.10173011842105263,-1.3916057947368419,0.036884753052631586,-0.29200837473684205
663,1747679548920,0.21850581111111111,-1.1917450944444445,0.33764641611111107,-1.0076062533333332,-0.21274202355555558,-0.14650333777777777
664,1747679548930,0.24560186736842105,-1.099047605263158,0.4012269047368421,-0.2550815778947369,-0.5212012468421052,-0.008816458947368424
665,1747679548940,0.13929567,-1.0022211,0.2297189,0.750190847368421,-0.9440548447368421,0.19302297105263158
666,1747679548950,0.0027520665210526312,-0.9287470105263157,-0.07686839736842105,1.0952241,-1.1689937,0.4189149
667,1747679548960,-0.02257850595368421,-0.8985352936842106,-0.38594764421052635,1.1378347,-1.1934948,0.7736477
668,1747679548970,-0.00030507156,-0.87189454,-0.6113024,0.8491483,-0.9484841000000002,1.1390332
669,1747679548980,0.02818540112842105,-0.8325628157894737,-0.7277562542105263,0.34129785631578946,-0.6345116842105263,1.482104047368421
670,1747679548990,0.051435065,-0.79672486,-0.67475724,-0.19800588,-0.3977428,1.7899092
671,1747679549000,0.05449220363157894,-0.7652800405263157,-0.500500377368421,-0.5868271,-0.31465223,2.063682
672,1747679549010,0.07011186247368421,-0.7523321647368422,-0.35190805526315794,-0.695820387368421,-0.35703853526315793,2.2110246947368424
673,1747679549020,0.06356085368421054,-0.7469628789473685,-0.22941701368421052,-0.6746272600000001,-0.4915981526315789,2.3610027
674,1747679549030,0.026405638055555555,-0.7132301583333333,-0.02575481816666667,-0.4620729083333333,-0.8617835388888888,2.7210089166666664
675,1747679549040,0.007992875,-0.6709198263157895,0.003387899789473684,0.015551446315789471,-1.3453229,3.325010205263158
676,1747679549050,0.09179442210526316,-0.6400401105263157,-0.13428607435789472,0.3490911094736842,-1.562132047368421,4.016198105263158
677,1747679549060,0.17487664526315788,-0.5479406473684211,-0.27833122736842103,0.5093292115789474,-1.480275005263158,4.924475263157895
678,1747679549070,0.36529267,-0.40818575,-0.41459224,0.47524074,-1.2883033,5.67173
679,1747679549080,0.8626814,-0.33057553,-0.5781106,0.2984696382352941,-1.118863670588235,6.344600517647059
680,1747679549090,1.8432707933333332,-0.27388919466666667,-0.7346326366666668,-0.05504750066666667,-0.9042401866666666,6.930161286666666
681,1747679549100,2.444497633333333,-0.21006550000000002,-0.8051380611111111,-0.2961284988888889,-0.8044368,7.0224842333333335
682,1747679549110,3.1695106,0.04966565,-0.8416924,-0.8723178,-0.74395347,6.6549683
683,1747679549120,3.207275157894737,0.15252936052631577,-0.764724452631579,-1.0724752105263158,-0.7659315763157895,6.444606805263158
684,1747679549130,3.1854555666666666,0.21871597666666667,-0.66466955,-1.2778281500000002,-0.8791828055555556,6.1986803055555555
685,1747679549140,3.00139357368421,0.2329141005263158,-0.35306412789473685,-1.3040298526315788,-1.1337278684210528,6.14224
686,1747679549150,2.901818205263158,0.08105911368421052,-0.04216089010526316,-1.0517305789473683,-1.5805779315789474,6.420554
687,1747679549160,3.1070318,-0.09774493,0.13795336,-0.4600607500000001,-1.9913772,7.222754
688,1747679549170,4.079844,-0.11531704999999999,-0.16614197,-0.13622059,-1.9839203,7.851259000000001
689,1747679549180,4.079844,-0.11531704999999999,-0.16614197,-0.30985856,-1.6664718,7.712775
690,1747679549190,5.491308166666666,0.03477815833333334,-0.7087626033333333,-0.8050878044444445,-1.2346849555555555,6.903175
691,1747679549200,5.406307947368421,0.2067357652631579,-0.7806010163157895,-1.384261057894737,-0.8290624368421051,5.951894263157894
692,1747679549210,4.650398478947369,0.2798758631578947,-0.4940778205263158,-1.9598958210526316,-0.4891872910526316,5.101982315789473
693,1747679549220,3.841772784210526,0.2824962610526316,-0.12706711736842105,-2.2062520526315788,-0.4772451094736842,4.788458368421053
694,1747679549230,3.2328369315789476,0.13675555315789473,0.3381316784210526,-1.990340052631579,-1.0042702742105263,5.019228126315789
695,1747679549240,3.045863315789474,0.0028066607368421093,0.5378989736842105,-1.502953852631579,-1.6270570736842105,5.423803857894737
696,1747679549250,3.3192754117647056,-0.011808061176470583,0.058562981117647066,-1.0089221570588236,-2.4057021882352942,5.938296676470588
697,1747679549260,3.6196034315789474,0.1450535005263158,-0.4984194915789473,-1.2329375157894737,-2.6204434368421055,6.18485094736842
698,1747679549270,3.8289787368421053,0.37783275263157895,-0.6574677210526315,-2.299714942105263,-1.971585621052632,6.014520736842105
699,1747679549280,3.896801,0.528506,-0.37115005,-3.1583736,-1.2861727,5.7260585
700,1747679549290,3.7553339294117647,0.6412317147058824,0.21898038470588235,-3.1583736,-1.2861727,5.7260585
701,1747679549300,3.25690722,0.8243033675,1.1322914640000001,-3.5077800000000003,-0.6606498999999999,4.7426069
702,1747679549310,2.903746394117647,0.9448389529411765,1.5332430882352939,-3.273359270588235,-0.6003935705882353,4.270281399999999
703,1747679549320,2.4945510105263162,1.0974419736842105,1.8727379105263156,-1.9838923263157895,-1.0274258263157894,3.8145828526315793
704,1747679549330,2.2045852631578944,1.1816288473684209,1.8724810789473683,-0.9469422684210528,-1.2590926,3.548042842105263
705,1747679549340,1.9502003666666665,1.1939687666666667,1.5251748333333335,0.187442025,-1.2728568999999998,3.15717525
706,1747679549350,1.6337224210526315,1.174949452631579,1.0838935815789474,0.904373807894737,-1.0605049884210527,2.740572952631579
707,1747679549360,1.1808292431578948,1.1409868578947366,0.5979884205263157,1.3338432,-0.73330086,2.314019
708,1747679549370,0.82648385,1.1745383578947368,0.3032957221052632,1.291737252631579,-0.5121184978947368,2.125299157894737
709,1747679549380,0.62301713,1.1811152,0.1594304,1.0323737,-0.15912376,1.9134798000000002
710,1747679549390,0.31779143473684207,1.2238121368421053,0.09258439894736842,0.67764086,0.17856482,1.7952354999999998
711,1747679549400,0.18371409,1.2880121,0.14673942,0.42197756,0.502582495,1.67095475
712,1747679549410,0.18371409,1.2880121,0.14673942,0.3708449,0.56738603,1.6460986
713,1747679549420,-0.04644474052631579,1.4120446368421051,0.48040421789473686,0.3956262921052631,1.1221080821052631,1.1275955578947368
714,1747679549430,-0.07352225,1.4266367,0.5196589,0.39854175,1.1873695,1.0665952
715,1747679549440,-0.07352225,1.4266367,0.5196589,0.39854175,1.1873695,1.0665952
716,1747679549450,-0.35357151789473684,1.3316598736842105,0.5944945684210526,1.688015352631579,0.9957902342105264,0.17810927778947366
717,1747679549460,-0.4978660094117647,1.2462353176470586,0.27855905882352944,2.2737817411764705,0.5645662255294118,-0.16296967094117648
718,1747679549470,-0.6084957,1.1825794,-0.17932107,2.6707492,-0.029161592999999996,-0.4588623
719,1747679549480,-0.5972690666666667,1.1831759888888889,-0.24711475111111111,2.606596644444444,-0.08621238266666667,-0.47531470555555555
720,1747679549490,-0.507456,1.1879487,-0.7894642,2.0933762,-0.5426187,-0.60693395
721,1747679549500,-0.3146251394736842,1.2284364210526315,-0.9748706736842105,1.1489359578947367,-0.5695305610526316,-0.6727560184210526
722,1747679549510,-0.09435702852631579,1.2479610421052632,-0.9518521894736841,0.17590165,-0.46272388,-0.768854
723,1747679549520,0.072912104,1.2601895,-0.7596892,-0.7071458078947369,-0.28005920736842105,-0.9535371263157895
724,1747679549530,0.16678423178947369,1.258339857894737,-0.5381879831578947,-1.2036147,-0.16871113,-1.0852374
725,1747679549540,0.396532,1.2621421,0.0066505605,-1.6032568578947368,-0.1586191647368421,-1.3274447368421052
726,1747679549550,0.5520778333333333,1.2461969666666668,0.39811838683333334,-1.5551518,-0.25180169999999996,-1.6391745
727,1747679549560,0.7368505842105263,1.1797020789473684,0.8231376884210526,-1.1320739368421053,-0.3825487947368421,-2.1724229105263158
728,1747679549570,0.7753949882352941,1.1245798764705883,0.8542470564705882,-0.839043965882353,-0.35557090882352943,-2.427720094117647
729,1747679549580,0.7767356384615384,1.0088856692307693,0.7416759123076923,-0.3699230403076923,-0.25507943,-2.8435778307692305
730,1747679549590,0.6928175,0.86628115,0.44546548,0.04700476,0.04221107,-3.3723583
731,1747679549600,0.6225290292307692,0.7172936000000001,0.23114567615384612,-0.03321778876923077,0.21552126923076922,-3.5582878846153845
732,1747679549610,0.6053799493333333,0.6458812033333334,0.1843242433333333,-0.156389582,0.28551729600000003,-3.634342273333333
733,1747679549620,0.6473879928571428,0.6079989207142856,0.19854927785714288,-0.2850531457142857,0.34345241428571427,-3.679839164285714
734,1747679549630,0.7739258333333334,0.6102109488888888,0.30694943333333335,-0.41958073,0.43742388,-3.70259
735,1747679549640,0.9910555000000001,0.6632256,0.5162421,-0.4110586144444444,0.42795487555555556,-3.7167935555555554
736,1747679549650,1.0928002666666667,0.696254711111111,0.6453212444444444,-0.28405552777777776,0.37374478777777775,-3.733719488888889
737,1747679549660,1.4059528749999999,0.8349198775,0.88867345,0.062451077500000014,0.24567642750000002,-3.698861725
738,1747679549670,1.9196933749999998,1.069733445,0.91500111875,0.39374807624999997,0.11464899875,-3.6087137
739,1747679549680,3.042772835294118,1.4975281235294116,0.7228867911764706,0.5024989870588236,0.14378709552941177,-3.4136529235294115
740,1747679549690,4.365391,1.7570900999999999,0.67878425,0.24620906000000004,0.48642599999999997,-3.3521183
741,1747679549700,5.430801270588236,1.836509294117647,0.7966208047058823,0.024258246294117648,1.2128730705882353,-3.6078442588235298
742,1747679549710,6.391066,1.8361648,1.0077734,-0.007323687399999999,2.038515,-4.030691
743,1747679549720,6.9173894166666665,1.7882210166666666,1.112121438888889,0.27118356572222224,2.3554901,-4.273808333333333
744,1747679549730,7.485744416666666,1.6791815722222223,1.0926781777777779,0.6444993166666666,2.502792527777778,-4.507337638888888
745,1747679549740,8.364564052631579,0.9512387105263159,0.20503056010526316,1.2027036789473684,1.7644060210526318,-5.856777657894736
746,1747679549750,8.451397,0.8696979,0.103297226,0.8054725,1.3002875,-7.391598
747,1747679549760,7.1551706,-0.22008186947368416,-0.9105936984210528,0.3647897263157895,1.5122187894736843,-8.010572210526316
748,1747679549770,4.563185844444444,-0.8904429477777778,-1.3555686222222223,-1.0139977866666667,2.5535108666666666,-8.612153333333332
749,1747679549780,3.2676757111111114,-0.7602519,-0.8399569611111111,-1.7317488,3.329792133333333,-8.255882027777778
750,1747679549790,2.584929115789474,-0.6626732315789474,-0.2591149573684211,-1.887626189473684,3.678572568421053,-7.728838189473684
751,1747679549800,1.989172505263158,-0.5845235315789474,0.9775617068421052,-0.6460894389473684,3.586567452631579,-5.957809105263157
752,1747679549810,2.1135903052631577,-0.4960206673684211,1.2351319315789475,0.5415674189473684,3.1924760210526313,-5.439137921052631
753,1747679549820,2.3050597,-0.44869924,1.2030191,1.9112161,2.7511766,-5.105542
754,1747679549830,2.3305445000000002,-0.506656427368421,0.7706011126315789,3.068989605263158,2.4762264631578947,-4.9999129894736845
755,1747679549840,2.1260300444444447,-0.558091161111111,0.2529585655555555,4.15868575,2.1783014611111113,-4.868106933333333
756,1747679549850,1.9154416157894736,-0.5395142631578947,-0.10114566421052631,4.4625225,1.965012,-4.743353
757,1747679549860,1.6372677421052633,-0.5086859789473683,-0.5282201757894738,4.507375721052632,1.6940985684210528,-4.602513421052632
758,1747679549870,1.4142764210526315,-0.46917436842105265,-0.801692717894737,4.329532715789473,1.3836583578947368,-4.450292805263158
759,1747679549880,1.1215361105263157,-0.38285515894736843,-1.0681775389473684,3.6306638,0.955029884736842,-4.192611315789474
760,1747679549890,0.9225395736842106,-0.3588091042105263,-1.118581757894737,2.8317161157894737,0.8524281510526317,-4.017011052631579
761,1747679549900,0.7182251578947368,-0.4320519652631579,-0.993136412631579,1.8798749631578946,1.0202912873684211,-3.8869928631578947
762,1747679549910,0.5408341068421052,-0.5768678684210526,-0.7746408905263158,1.0350087789473685,1.2388385894736842,-3.8407941894736846
763,1747679549920,0.3712785326315789,-0.8229546263157894,-0.5713026878947369,0.5263734,1.302418,-3.8740976
764,1747679549930,0.2019798367368421,-1.0738968684210526,-0.4306743447368421,0.30479857,1.2395674,-3.8772933
765,1747679549940,0.006117486947368422,-1.2960660263157895,-0.270290207368421,0.18218110052631578,0.969438944736842,-3.757367063157895
766,1747679549950,-0.11550009,-1.4981453,-0.1505223,0.16631429,0.45340285,-3.427752
767,1747679549960,-0.16020110842105262,-1.6160635368421052,-0.1216207894736842,0.16631429,0.45340284999999997,-3.4277519999999995
768,1747679549970,-0.19442049894736843,-1.7118881368421053,-0.11463304736842106,0.11215403736842104,-0.011276366842105251,-2.9277509157894737
769,1747679549980,-0.17487022894736842,-1.7647072789473686,-0.12899389263157895,-0.0018291710526315754,-0.28802065315789477,-2.5033835210526316
770,1747679549990,-0.10453036368421052,-1.8296009,-0.16162049157894734,-0.32976216789473684,-0.4618829010526316,-1.8566002842105263
771,1747679550000,-0.07388191157894737,-1.8311680210526318,-0.16380416157894737,-0.5532432652631579,-0.431606987368421,-1.5343860789473682
772,1747679550010,-0.025327360789473684,-1.6952152210526317,-0.011383987368421054,-1.2281158,-0.1431448,-0.6303698
773,1747679550020,0.12234011342105262,-1.6378231789473685,0.1490258536842105,-1.4198632,0.011318427,-0.10412952
774,1747679550030,0.34332752,-1.6426272,0.27218485,-1.3303812,-0.028096329999999996,0.39760965
775,1747679550040,0.46625532263157893,-1.6310666999999999,0.30108636052631577,-1.1689096736842104,-0.14247200894736842,0.5784241342105263
776,1747679550050,0.5762866115789474,-1.5495773157894737,0.28528686842105266,-0.8607680705263159,-0.3207074310526316,0.7615934131578947
777,1747679550060,0.6156954,-1.4503102,0.21849224,-0.45153861999999995,-0.5426187,0.9334373
778,1747679550070,0.5896626444444445,-1.4286162,0.18768680000000001,-0.34785296666666665,-0.5937513488888889,0.9926185888888889
779,1747679550080,0.536775032631579,-1.3824879210526317,0.13140235368421052,-0.14805063052631579,-0.6789724315789474,1.142397115789474
780,1747679550090,0.42240210105263154,-1.2500804631578948,0.010632545315789476,0.2080277710526316,-0.7797239578947369,1.5665962789473684
781,1747679550100,0.3797819836842105,-1.142721005263158,-0.05174334989473684,0.4208562242105263,-0.8127471063157895,1.9129191421052634
782,1747679550110,0.3531155063157895,-1.0790606105263156,-0.08311112947368421,0.6091275468421052,-0.8083739036842106,2.19846602631579
783,1747679550120,0.2707782747368421,-0.9320610763157894,-0.16282793105263157,0.7965579068421053,-0.8086542273684211,2.454409684210526
784,1747679550130,0.23887102000000002,-0.89044285,-0.24375216999999996,0.9730552584210527,-0.9192174105263158,2.774212947368421
785,1747679550140,0.19401587263157893,-0.8502119499999999,-0.35288430368421053,1.066462,-1.0869684,3.082074
786,1747679550150,0.10898119305263158,-0.8274504736842104,-0.45240827894736835,1.0504831,-1.2659327,3.6210973
787,1747679550160,0.11738190147368421,-0.8053824921052632,-0.4768653721052632,0.962178364736842,-1.2440666999999999,4.077759168421053
788,1747679550170,0.22325135999999998,-0.81136835,-0.48292825000000006,0.81292933,-1.1136,4.7087317
789,1747679550180,0.39165086,-0.9734223500000001,-0.38384104,0.687760805,-0.8881191666666666,5.268882783333333
790,1747679550190,0.4302118999999999,-1.074462,-0.3018378,0.632226952631579,-0.6642269189473684,6.141287068421053
791,1747679550200,0.5527543210526316,-1.245173605263158,-0.09182011578947369,0.8310388,-0.97405046,6.9617643000000005
792,1747679550210,1.1295515368421052,-1.3651213526315789,-0.11083089631578948,1.1669893157894737,-1.4298711821052632,7.749666705263158
793,1747679550220,2.2967618,-1.3238885,-0.5390615,1.5735276,-1.9881815000000003,8.921849
794,1747679550230,3.409816810526316,-1.092214005263158,-1.1291147631578946,1.1902568999999998,-1.4984965421052632,9.85047852631579
795,1747679550240,4.978668463157895,-0.6480554763157894,-1.4815591526315788,0.6957503,-0.8313051,10.312018
796,1747679550250,6.018197915789474,-0.34049196473684207,-1.5909995631578946,0.6957503,-0.8313051,10.312018
797,1747679550260,6.798641700000001,-0.24222682,-1.6163301,-1.1117217842105263,0.7511160157894736,9.803383
798,1747679550270,6.884652457894737,-0.20153348736842105,-1.3943664789473684,-1.6696395842105263,0.8373463,9.1555905
799,1747679550280,6.679105305263158,-0.07924795852631579,-0.9663670999999999,-2.3101433263157896,0.6198643063157894,8.007292578947368
800,1747679550290,6.002655594736842,0.038772988526315784,-0.6379945289473684,-2.533063705263158,0.17564936084210525,7.156763684210526
801,1747679550300,4.991333457894737,0.07237582210526317,-0.3862816068421053,-2.6100432157894735,-0.2549414154736842,6.655753415789474
802,1747679550310,4.7294214736842095,0.0651311692631579,-0.43922920105263163,-2.707150363157895,-0.40755446315789473,6.663826847368421
803,1747679550320,4.684951763157895,-0.014405801631578946,-0.6449309321052631,-3.0506136736842104,-0.33455586,6.516091521052632
804,1747679550330,4.409501284210527,-0.08965249821052632,-0.6612699115789473,-3.7133758,-0.045140546,6.1873174
805,1747679550340,4.02908,-0.0630888,-0.43118814,-3.746339811111111,-0.034902178444444446,6.171989433333334
806,1747679550350,3.83083236,-0.061355993500000004,-0.05053205375000001,-4.567557515,0.049667922999999996,5.59050356
807,1747679550360,3.6883762,-0.028432670000000004,0.49720562000000007,-4.4718437,-0.09946899,5.22645
808,1747679550370,3.6150234333333335,0.04565226305555556,0.7253720433333334,-4.113678538888888,-0.23327793555555557,4.750572777777777
809,1747679550380,3.1104486,0.18194468,0.9428542000000001,-3.4882128315789473,-0.48526262894736844,4.0836460842105256
810,1747679550390,2.6961164736842105,0.21811653684210527,0.9868358421052633,-2.9522168578947365,-0.72494695,3.6199761368421055
811,1747679550400,2.284687347368421,0.2588098610526316,0.994234647368421,-2.2157272368421053,-1.0718864989473684,3.2131575684210527
812,1747679550410,1.7383073894736842,0.29734521894736843,0.918397085263158,-1.3837003736842106,-1.3999877578947366,2.9597368315789474
813,1747679550420,1.2820744315789474,0.34931657736842103,0.6727213463157895,-0.7060245136842106,-1.4475881736842104,2.8678999315789477
814,1747679550430,0.9838879368421052,0.46836514263157897,0.3988377310526316,-0.4930839000000001,-1.2829769,2.8732824
815,1747679550440,0.8644797210526317,0.5883128315789473,0.270874647368421,-0.5993859947368421,-1.0133530589473683,2.8739551263157894
816,1747679550450,0.8402281,0.6573682,0.2638869,-0.7688750315789473,-0.8082617778947367,2.8015733894736847
817,1747679550460,0.8179546642105263,0.6940538421052631,0.41019281,-0.8765788,-0.6938861,2.6538382
818,1747679550470,0.6786622200000001,0.7790714,0.6398977566666667,-0.7904107988888889,-0.6661892388888888,2.475347188888889
819,1747679550480,0.3912169822222222,0.9508876755555554,1.0784957333333332,-0.3624115622222222,-0.7483329200000001,2.260874044444444
820,1747679550490,0.22787559947368421,1.0570310978947368,1.4095172157894738,0.36781731315789473,-0.9563895042105264,2.1484545368421055
821,1747679550500,0.1274660756470588,1.1198997294117647,1.4509239823529412,1.1872755000000002,-1.1689937,2.0443191294117646
822,1747679550510,0.107568234,1.1323036,1.4563507,1.2795148,-1.1924295,2.0327892
823,1747679550520,0.05238560431578947,1.300317747368421,0.9680306136842106,2.167608210526316,-1.3034411842105265,1.8901560631578949
824,1747679550530,-0.0069488530000000005,1.511080461111111,0.41620572055555555,2.6856627,-1.368198,1.8069534
825,1747679550540,-0.009335190833333331,1.6380715833333335,0.17041296,2.631393438888889,-1.3295526022222224,1.7868909333333332
826,1747679550550,0.06510227,1.914263,-0.20909604,1.708816,-0.67258084,1.445829
827,1747679550560,0.13221801833333335,1.9915207055555557,-0.2308713711111111,1.2266066888888887,-0.54084322,1.2908924
828,1747679550570,0.3097503852631579,2.1396435052631575,-0.18443341631578947,0.6767437789473684,-0.3995930094736842,1.0425426736842105
829,1747679550580,0.4638918,2.2027388,-0.16126083,0.07189829052631579,-0.3661212963157895,0.6284915315789473
830,1747679550590,0.5981233,2.2237275,-0.16272517,-0.44514704,-0.44674495000000003,0.2143843
831,1747679550600,0.7599717589473683,2.1899706789473687,-0.1224942605263158,-0.9325892757894736,-0.502250782631579,-0.2044325
832,1747679550610,0.9436569989473684,2.095610415789474,0.01990672094736842,-1.4213771368421053,-0.34974989263157896,-0.7280937052631579
833,1747679550620,1.0688454684210527,2.0038191947368422,0.1756666244736842,-1.7163990842105263,-0.15284431473684212,-1.1040756631578947
834,1747679550630,1.1814472944444445,1.811867411111111,0.530126261111111,-1.87183095,0.04724148611111111,-1.394518838888889
835,1747679550640,1.2360889,1.611144,0.8564579500000001,-1.9536724210526317,0.49735899789473675,-2.1433804473684206
836,1747679550650,1.2917083157894738,1.4347804684210526,0.9399511926315789,-1.5747750157894738,0.77959776,-2.78747252631579
837,1747679550660,1.4562028789473684,1.2008194631578946,0.8987183363157896,-1.2824442,0.894422,-3.1337392
838,1747679550670,1.5846027,1.0810516,0.83937395,-0.9330378000000001,0.9785778,-3.5502574
839,1747679550680,1.7289305789473683,0.9411425642105262,0.806978502631579,-0.5937793684210527,1.0370552157894737,-3.900280678947368
840,1747679550690,1.8955315,0.8457804,0.7881219,-0.1798964,1.0329063,-4.2011333
841,1747679550700,2.041863205263158,0.8075533684210526,0.7396187084210526,0.1623335705263158,0.9850254894736842,-4.348700447368421
842,1747679550710,2.2608854000000003,0.790216675,0.6186647683333333,0.28455856,0.9679252,-4.401403
843,1747679550720,2.6726099526315785,0.771612705263158,0.3989918421052632,0.48135196,0.9948370947368421,-4.419064315789473
844,1747679550730,3.344409584210526,0.7765452115789474,0.20107427368421052,0.3917576842105263,0.9792505947368422,-4.448106442105263
845,1747679550740,4.067409821052632,0.8316764342105263,0.10458174368421053,0.16093189157894736,0.9945567684210526,-4.512919236842105
846,1747679550750,4.543604,0.9096977157894737,0.1035798194736842,-0.1391921094736842,1.1850707631578947,-4.565117294736842
847,1747679550760,6.161729252631579,1.1830162105263158,0.31914659,-0.6454165926315789,2.0472614315789475,-4.665924842105263
848,1747679550770,7.1927944055555555,1.1631090555555557,0.5319431277777779,-0.7540735,2.822549,-5.0554748
849,1747679550780,8.026634526315789,0.7958642747368421,0.7577560000000001,-0.5085582647368421,3.4337863157894737,-5.752718
850,1747679550790,8.633694842105262,0.10135439263157893,0.9022635815789473,0.16098797,3.851594,-6.5766716
851,1747679550800,8.839936,-0.6551717,0.69001085,1.07818,3.6012568000000003,-7.686675999999999
852,1747679550810,8.039480168421052,-1.2535486368421054,0.16839629631578945,1.6110360842105265,3.2298724631578946,-8.811930842105262
853,1747679550820,7.2895221333333335,-1.4036138666666667,-0.08967070999999999,1.6889311333333332,3.2632133333333333,-9.250837666666666
854,1747679550830,6.031146,-1.413470394736842,-0.2646383452631579,1.6044762631578948,3.6794137052631575,-9.554924210526314
855,1747679550840,5.114809533333333,-1.4169557666666668,-0.078932182,1.5735276,4.5450805333333335,-9.407432
856,1747679550850,4.319328415789474,-1.4676768368421051,0.24187037015789475,2.1631229736842106,5.204758963157895,-8.979009184210526
857,1747679550860,3.717175,-1.4991217,0.47377613,3.0893977,5.2513504,-8.537822
858,1747679550870,3.3340337294117646,-1.4495062647058823,0.31574189,3.965420376470588,4.764461958823529,-8.128008764705882
859,1747679550880,3.09580511875,-1.4607742312499998,-0.0428015426875,4.742154175,4.2316268375,-7.560708525
860,1747679550890,3.0406482,-1.4586082,-0.37603122,5.214285294117647,3.6948121,-7.000583423529412
861,1747679550900,2.995802525,-1.410772825,-0.5976961775,5.332843,3.2710252,-6.725808
862,1747679550910,2.5891423,-1.1920977,-1.2326721,4.8087335,2.207892,-6.546844
863,1747679550920,2.5891423,-1.1920977,-1.2326721,4.4286709166666665,1.9309234611111112,-6.529918288888889
864,1747679550930,2.023032405263158,-1.0234155757894738,-1.3560367105263158,3.4280393157894733,1.6602343842105263,-6.438635726315789
865,1747679550940,1.6577685947368421,-0.9317270589473684,-1.1883051631578947,2.2595012210526315,1.7360362947368422,-6.285574094736842
866,1747679550950,1.4573404666666667,-0.9536536722222222,-0.7435001166666666,1.4318474888888888,2.1379397222222223,-6.150566066666666
867,1747679550960,1.2636064,-1.15561104375,-0.15848468562499998,0.97511568125,2.48845593125,-6.0831213125
868,1747679550970,1.0203424,-1.4049156,0.27853033,1.2997549,2.1418457,-6.130326
869,1747679550980,0.764184982631579,-1.6989402736842107,0.4690748421052631,2.0604091263157893,1.3038756505263158,-6.130325731578947
870,1747679550990,0.39702013,-2.088764,0.358093,2.7218819,0.46512073,-6.0759974
871,1747679551000,-0.1349704372222222,-2.265325811111111,0.0801117861111111,3.1842062,-0.5617934,-5.654153
872,1747679551010,-0.5369055555555555,-2.3006056555555556,-0.32439952,3.134908183333333,-1.3596166222222221,-4.814074388888889
873,1747679551020,-0.6298643022222223,-2.233082977777778,-0.5520236033333333,2.773251222222222,-1.6244530444444445,-4.051286444444444
874,1747679551030,-0.518990947368421,-2.0435491684210527,-0.7775952578947368,2.1016741052631582,-1.6066488210526315,-3.1606512
875,1747679551040,-0.21887760157894734,-1.8936210000000002,-0.8887825894736842,1.0134231657894737,-1.2148000068421052,-2.262241510526316
876,1747679551050,0.4543350484210527,-1.7649128684210524,-0.730273852631579,-0.48444963157894744,-0.5584854831578948,-1.422813747368421
877,1747679551060,0.8185341111111112,-1.6254077444444444,-0.1419260688888889,-1.7293223833333333,-0.024367905111111112,-1.072276588888889
878,1747679551070,0.940651177894737,-1.5950489736842106,0.46740495210526317,-2.101800147368421,0.16168880578947367,-1.0009132736842103
879,1747679551080,0.8773248,-1.6470203,0.8032534,-1.8949709,0.15406376,-1.0085384
880,1747679551090,0.6117905,-1.573315,0.9052693000000002,-1.1572478157894734,-0.09318954526315788,-0.8440392421052632
881,1747679551100,0.49952418,-1.4254164,0.869637,-0.35992596,-0.5490103,-0.50253814
882,1747679551110,0.5632616642105264,-1.3369392368421054,0.6079048652631579,0.3243097073684211,-0.8998744789473684,-0.1896870146894737
883,1747679551120,0.58640856,-1.3068045,0.30000737,0.6605966,-1.0187916,-0.0071905297
884,1747679551130,0.5727927389473685,-1.2883075526315788,0.21548649631578945,0.7009644789473684,-1.0457034421052631,0.0673779280368421
885,1747679551140,0.475375352631579,-1.2107744315789473,-0.04362523421052632,0.6972080378947368,-1.0677375684210524,0.2000873484210526
886,1747679551150,0.37017383052631575,-1.154461457894737,-0.16323898557894737,0.5525564552631579,-0.9683316684210524,0.3312829757894737
887,1747679551160,0.22957116578947367,-1.0828627842105263,-0.17220487421052633,0.43818078578947367,-0.7474296431578948,0.5008280789473684
888,1747679551170,0.0894052347368421,-1.034924794736842,-0.16552540578947367,0.47423154421052627,-0.7275820921052631,0.6398169578947369
889,1747679551180,-0.03929999666666666,-0.9953875111111111,-0.2505857822222222,0.6487011738888888,-1.0000902083333334,1.0453491833333333
890,1747679551190,0.01189779,-0.9446236000000001,-0.36773324,0.70853347,-1.2978905,1.3424985
891,1747679551200,0.12083347,-0.9144753,-0.48068866588235304,0.6401059417647059,-1.5347551,1.5767311823529413
892,1747679551210,0.14592375894736842,-0.8839945852631579,-0.5695300842105264,0.4397506305263158,-1.5926882210526316,1.8789989315789473
893,1747679551220,0.14612928,-0.88116866,-0.5771344,0.12577160352941177,-1.4549230058823528,2.3135176470588235
894,1747679551230,-0.004158606947368421,-0.7854468768421052,-0.5970186210526316,-0.1990711452631579,-1.2708666052631579,2.812225842105263
895,1747679551240,0.02857075505263158,-0.720013852631579,-0.5530369052631579,-0.5321062105263158,-1.0182308947368421,3.4041200157894735
896,1747679551250,0.14808173,-0.6644459,-0.51123893,-0.9822278470588235,-0.6572284894117647,4.2082455588235295
897,1747679551260,0.40020573315789476,-0.6025838052631579,-0.4475785205263158,-1.286929547368421,-0.4925512615789474,4.768835063157895
898,1747679551270,0.8996239536842104,-0.5094053236842105,-0.3378555236842105,-1.539677394736842,-0.46687280894736843,5.334658257894737
899,1747679551280,1.56471205,-0.33887351,-0.262300535,-1.76634025,-0.975648325,6.197703875
900,1747679551290,1.887130842105263,-0.1371023792631579,-0.14985436578947367,-1.8246634000000002,-1.4980480368421052,6.741030394736842
901,1747679551300,2.238188,0.037462786,0.04667595,-1.8246634000000002,-1.8773939999999998,7.535941000000001
902,1747679551310,2.834201410526316,0.18918931989473683,0.35978856684210525,-1.6591552,-1.6261039578947367,8.548166263157894
903,1747679551320,4.267999157894737,0.5586149,0.8970998842105263,-1.1993537,-0.91119987,9.457677
904,1747679551330,5.427528,0.78134924,1.1097893,-0.4959433052631579,-0.28751605105263156,9.57878005263158
905,1747679551340,6.05323,0.8556646612500001,1.10509125,-0.014114743499999999,-0.04687159925,9.32451825
906,1747679551350,6.263873768421052,0.9727415710526316,0.9580884368421053,0.9183903714736841,-0.18070936610526317,8.484362421052632
907,1747679551360,6.2866096,0.9927029,0.93065125,1.1588596157894735,-0.26649112421052634,8.2761876
908,1747679551370,5.378331257894736,1.0936655315789474,0.17535833421052632,2.081546084210526,-0.8758780105263156,7.771140436842105
909,1747679551380,4.911693889473685,1.0262543105263158,-0.5109820089473684,1.7842814947368424,-0.6488086464210526,8.00611522631579
910,1747679551390,4.736846221052631,0.8333976947368421,-1.182216542105263,0.6437206063157895,0.008851501894736838,8.467654736842105
911,1747679551400,4.6743674,0.7647534,-1.2307197,-0.4395700705882353,0.48015976470588234,8.63767388235294
912,1747679551410,4.582656155555555,0.7490794683333334,-1.010878338888889,-1.4124064,0.8326367,8.735428
913,1747679551420,4.524516,0.74620503,-0.7001392,-2.2007015,1.00734,8.749276
914,1747679551430,4.6173558,0.787499532,-0.43480018,-2.43633795,0.7456046799999999,8.625492900000001
915,1747679551440,4.759429466666666,0.8812500506666667,-0.12618166766666666,-2.54123088,0.292832096,8.4037052
916,1747679551450,4.769369736842105,1.196631927368421,-0.008403918946315791,-2.3050973,-0.73117036,7.503983500000001
917,1747679551460,4.59940337368421,1.2911720842105263,-0.08840331809894737,-2.283231405263158,-0.8472279968421053,7.042275763157894
918,1747679551470,4.104737688888888,1.3164854666666668,-0.11396795533333333,-2.380376083333333,-0.8391170333333333,6.353676116666667
919,1747679551480,3.4622251263157895,1.321692,-0.03527590705263158,-2.4826040210526314,-0.8148215515789473,5.814363273684211
920,1747679551490,2.7592630210526314,1.2793544842105262,-0.026284323789473683,-2.626582768421053,-0.9201705531578949,5.19925732631579
921,1747679551500,2.113487568421053,1.2200872105263159,-0.0945689755263158,-2.8691263421052633,-1.013689510526316,4.810716384210526
922,1747679551510,1.697819547368421,1.1848659157894736,-0.04372799410526316,-3.17895002631579,-1.0433487315789476,4.56172502631579
923,1747679551520,1.3914720944444445,1.1102300611111113,0.13356032577777777,-3.4097757,-1.0337052,4.329498
924,1747679551530,1.0920951,1.031264,0.409345,-3.4342768000000006,-1.0507494,4.0908785
925,1747679551540,0.9920588361111111,1.037717861111111,0.5310482172222222,-3.322601722222222,-1.1141325777777777,3.958075916666667
926,1747679551550,0.6541536921052632,1.1338192263157894,1.0524230542105264,-2.7069260736842105,-1.4327305578947367,3.699086063157895
927,1747679551560,0.5112646052631579,1.2132278263157894,1.1906878210526315,-2.1209749684210526,-1.6307014315789472,3.5287558631578944
928,1747679551570,0.2776376010526316,1.4105288105263158,1.2046889789473685,-1.9524950999999997,-1.6803203,3.4847436000000003
929,1747679551580,0.1356219707894737,1.5501552578947368,1.122172042105263,-0.9692567947368422,-1.758308736842105,3.2092328210526317
930,1747679551590,-0.04020200826315789,1.764514647368421,0.8995918315789474,-0.35622559894736844,-1.7427222210526316,2.9551394315789477
931,1747679551600,-0.094511166,1.8386053000000002,0.8174087,-0.06675418689473685,-1.5192971842105265,2.5127746789473684
932,1747679551610,-0.1556881828888889,2.1362468111111115,0.7128437488888888,-0.058456342999999994,-1.5013559,2.4812653
933,1747679551620,-0.13543571357894738,2.1983714947368425,0.7373322531578946,0.02637228178947369,-1.1172443,1.860777289473684
934,1747679551630,0.10538455989473683,2.4115487842105265,1.0558140947368422,0.06786149631578949,-1.0569167421052632,1.7357489826315788
935,1747679551640,0.16573520833333333,2.429711833333333,1.0146883400000002,0.63503027,-0.7844335,0.79921407
936,1747679551650,0.1368551,2.3979845,0.8784230399999999,0.9615616636842105,-0.7001094999999999,0.17126916642105264
937,1747679551660,0.08275146736842105,2.3656148157894736,0.7364588021052633,1.1277427631578947,-0.6834016468421052,-0.22635450889473682
938,1747679551670,0.01703735,2.2960546176470586,0.5203480094117647,1.1321324000000001,-0.6476411329411765,-0.7282486917647059
939,1747679551680,-0.034473088,2.1802855,0.17407383,0.76179665,-0.48935546999999996,-1.2482227
940,1747679551690,0.02990664368421052,2.1324502263157896,0.14422177736842104,0.48527663947368427,-0.3695974215789473,-1.3686535631578949
941,1747679551700,0.26409884236842107,2.0448979,0.2261222405263158,-0.12422235736842102,-0.016714827368421045,-1.6784210052631579
942,1747679551710,0.7558870642105264,1.873569705263158,0.5415469631578947,-0.6400342363157895,0.4681483368421053,-2.2005123105263156
943,1747679551720,1.1249530157894738,1.7373343421052632,0.8051801789473685,-0.6565738600000001,0.6901717236842105,-2.6193291789473685
944,1747679551730,1.4031055333333333,1.6164318833333333,1.00956315,-0.5356945,0.85500723,-3.043192
945,1747679551740,1.5889957,1.5208428,1.1503029,-0.18628798,0.8858999,-3.5076468
946,1747679551750,1.6988215,1.3451215,1.0814787,0.48376286,0.8656598999999999,-4.183024
947,1747679551760,1.7341712263157896,1.2090660052631579,0.9133618157894737,0.8369818336842105,0.8126770578947369,-4.534560842105263
948,1747679551770,1.8062066736842106,1.1059968315789472,0.6394524642105263,1.2273729610526316,0.6999833610526316,-4.899778384210526
949,1747679551780,1.8667330000000002,1.0922782,0.4625495,1.3253211,0.62810606,-5.0054073
950,1747679551790,2.071741,1.1542687,0.1530849,1.1910979,0.49707866,-4.9851675
951,1747679551800,2.071741,1.1542687,0.1530849,1.0128437666666668,0.5283263933333333,-4.9169905
952,1747679551810,2.6535733636363634,1.2707061909090909,0.1127932709090909,0.8014050745454546,0.5918871209090909,-4.905272645454545
953,1747679551820,4.346214714285715,1.547270657142857,0.18453343142857143,0.23509987714285716,0.8146793785714286,-5.213285957142857
954,1747679551830,4.97297171875,1.64223070625,0.411877115625,0.13222586,0.88376933,-5.4570794
955,1747679551840,5.568376511111111,1.8371950555555554,0.5279568333333333,0.18146470333333334,0.9945567527777778,-5.6224911111111116
956,1747679551850,6.53196872,1.9338527066666666,0.5568206593333334,0.24379444933333333,1.2605885933333334,-5.895684
957,1747679551860,7.47468,1.6741108,0.60361457,0.45958956,1.8114500230769233,-6.161382638461538
958,1747679551870,8.128875749999999,1.270684075,0.41032124000000003,0.8164802,2.0331886999999997,-6.5361915
959,1747679551880,8.46453281818182,0.6352255272727273,-0.2070104609090909,1.1434515145454547,1.588683318181818,-7.588478145454545
960,1747679551890,7.327269599999999,-0.16217604,-0.99251986,0.78629774,1.3343759,-8.926643
961,1747679551900,5.666053516666666,-0.29844132333333334,-1.2927102266666666,-0.10763601,1.9176076499999999,-9.2994855
962,1747679551910,4.627671083333333,-0.2040996411111111,-1.1231446444444444,-0.8034307199999999,2.4241406666666667,-9.080041333333334
963,1747679551920,4.265140015384615,-0.36759715769230766,-0.20072299230769233,-1.5855526999999998,3.194326307692308,-8.126711923076924
964,1747679551930,4.2861944125,-0.53155670625,0.31410167875,-1.413405110625,3.8359477875,-7.654052675
965,1747679551940,4.1076665,-0.5990385,0.76127553,-0.58150077,4.1125836,-7.6121077999999995
966,1747679551950,3.9003306307692305,-0.6436446846153847,0.984306343076923,0.11067474615384613,4.016382146153846,-7.573676315384616
967,1747679551960,3.5224172999999994,-0.6712795000000001,1.0814787,2.0124161,3.4372063,-7.380945700000001
968,1747679551970,3.379456988235294,-0.7720607535294118,0.8508015,3.550155570588235,2.7519910352941177,-6.803823082352941
969,1747679551980,3.4638432999999997,-1.0031973,0.1765144,4.617624940000001,2.1237362,-6.241965479999999
970,1747679551990,3.48673589,-1.04146546,-0.194208568,5.02945572,1.69805688,-6.033812899999999
971,1747679552000,3.30076449,-1.00285562,-1.0620762019999999,4.955952600000001,0.9072051699999999,-6.00568985
972,1747679552010,2.6567461199999998,-0.851442557,-2.0802340100000003,3.3880977000000003,0.30256150000000004,-6.06736874
973,1747679552020,2.07466958,-0.7957486619999999,-2.12289542,1.3221253599999998,0.7094922180000001,-5.96073612
974,1747679552030,1.5800631900000002,-0.827427317,-1.74470431,-0.6510625600000001,1.3939240700000002,-5.76110568
975,1747679552040,1.246681073,-1.0561577899999999,-1.055388994,-1.8715350999999998,1.949033,-5.5827804
976,1747679552050,0.94663703,-1.2208964,-0.54491884,-2.5927186,2.394313,-5.4304476
977,1747679552060,0.5240275130000001,-1.3614733399999999,0.295467914,-2.45945398,2.4786820599999997,-5.24924646
978,1747679552070,0.19770670777777777,-1.3577311333333333,1.0416159622222223,-1.729855,2.0811257,-4.9542747
979,1747679552080,-0.017877193,-1.3190074,1.4421953,-0.2736396,1.177782,-4.3268347
980,1747679552090,0.004730215,-1.3021546,1.483710752631579,0.9654302736842105,0.4724654478947368,-3.699674726315789
981,1747679552100,0.3160188016842105,-1.2829639631578948,1.0590768284210526,2.3428720842105264,-0.3837822752631579,-2.8310923789473685
982,1747679552110,0.37359062,-1.2799582,0.97799844,3.0865943315789472,-1.233133802105263,-1.9167037105263156
983,1747679552120,0.9848184977777777,-1.1785388666666665,0.09071475111111112,2.7897034333333335,-1.2996660333333334,-1.5915926333333335
984,1747679552130,1.7612488631578949,-1.0868960789473683,-0.7950646231578947,1.9696934631578948,-0.858553444736842,-1.5196966315789473
985,1747679552140,2.024882,-1.1906333,-0.77482074,0.15594197999999998,0.6461594868421052,-2.2300593684210526
986,1747679552150,1.6593355631578948,-1.2587638421052632,-0.5228252305263158,-0.4965039905263158,1.2574526157894736,-2.803339263157895
987,1747679552160,0.6915843905263157,-1.307575242105263,-0.15232062210526315,-0.860712,1.5193953105263158,-3.1908710736842103
988,1747679552170,-0.14039393,-1.3009472,0.14039393,-0.87551355,1.3599422,-3.1390657
989,1747679552180,-0.5945973084210526,-1.2380575789473685,0.3827812810526316,-0.45899546,0.71971875,-2.5180168
990,1747679552190,-0.7328107894736843,-1.180562747368421,0.5068651715789474,-0.13268839368421054,0.3765917289473684,-2.1264483999999997
991,1747679552200,-0.6880584,-1.1398695,0.5162421,0.745705567631579,-0.2424946431578947,-1.1848675210526316
992,1747679552210,-0.5951625178947367,-1.1275381315789474,0.38635224736842105,1.248790389473684,-0.4062649063157895,-0.64567594
993,1747679552220,-0.44094403473684207,-1.0643401315789476,0.1585312289473684,1.6343037315789475,-0.4180388863157895,-0.0902810997368421
994,1747679552230,-0.2756016422222223,-1.0203355444444446,-0.08967070111111111,1.7827927000000001,-0.33944920222222225,0.40376450238888884
995,1747679552240,-0.1825182075,-1.0004150250000001,-0.257541419,1.6593878,-0.25244084,0.64453774
996,1747679552250,-0.03913729111111111,-0.9522706888888889,-0.4260900544444445,1.5745928,-0.19747324,0.7906919
997,1747679552260,0.08683621626315789,-0.8916759684210526,-0.4842384621052631,0.9045980736842104,-0.16983246052631581,1.0729306789473683
998,1747679552270,0.05341321284210526,-0.8654719857894737,-0.4869359884210526,0.45987851526315787,-0.18412942578947367,1.1703182105263157
999,1747679552280,-0.10427345,-0.83772653,-0.4097111,0.06831003,-0.23156169000000001,1.3116058
1000,1747679552290,-0.21035701666666667,-0.8165749099999999,-0.3355177,-0.10568302333333333,-0.26067889666666666,1.4671343333333333
