id,timestamp,acc_x,acc_y,acc_z,gyro_x,gyro_y,gyro_z
0,1747679352200,0.03874408891666666,0.43702516250000006,0.65616825,-0.45806335249999997,-0.47111285250000007,-1.0050762649999998
1,1747679352210,0.06700335073684212,0.39142287894736844,0.7139798578947368,-0.6712422263157896,-0.84315616,-0.9269055178947369
2,1747679352220,0.20822439499999998,0.3977958885714286,0.8568762642857143,-0.73172195,-0.6824535457142857,-0.9532968414285714
3,1747679352230,,,,,,
4,1747679352240,,,,,,
5,1747679352250,0.04801826,0.35522532,1.0087496,-0.34914017,-0.6546045,-1.0106689
6,1747679352260,0.028493681647058823,0.3671697717647059,0.9678628235294118,-0.30746955705882356,-0.8695370705882354,-0.9624187235294118
7,1747679352270,-0.0010372435000000004,0.40769764000000003,0.897947625,-0.21917799,-1.45834585,-0.83117195
8,1747679352280,0.03546674657142857,0.45375474285714285,0.8260553642857144,-0.18432865285714284,-2.0347296428571426,-0.6574578857142858
9,1747679352290,0.21880411333333333,0.45184491111111114,0.7628754644444444,-0.248117665,-2.2459308,-0.48336338333333334
10,1747679352300,0.3440211915789474,0.43702302631578954,0.7481735589473685,-0.36859523684210527,-1.9412186684210526,-0.44506996315789477
11,1747679352310,0.48569425000000005,0.4105449616666667,0.7137657416666667,-0.5384019800000001,-1.3619395666666667,-0.47874723999999996
12,1747679352320,0.5078221,0.40598923,0.70758295,-0.6990200544444445,-0.8433929,-0.5420712533333334
13,1747679352330,0.596496225,0.37019418000000004,0.6673134916666666,-0.9250926433333332,-0.2885088966666667,-0.6857634666666667
14,1747679352340,0.6477279193750001,0.354798218125,0.6820484606249999,-1.05307966875,-0.0480700211875,-0.81858855
15,1747679352350,0.67378104,0.3483917,0.69977313,-1.0742482789473684,-0.11081545221052633,-0.9793277263157895
16,1747679352360,0.684580575,0.35644559375,0.744801699375,-1.02571565,-0.35459963250000004,-1.1688605125
17,1747679352370,0.74480168125,0.41080937875,0.98589979375,-0.748081375,-0.99708675,-1.4186648499999999
18,1747679352380,0.7884879347368421,0.41400460789473686,0.98532014,-0.3694362310526316,-1.8758451842105264,-1.7041555210526314
19,1747679352390,0.83404532,0.3964167822222222,1.0006414866666666,-0.20065424733333334,-2.340798527777778,-1.8545944055555554
20,1747679352400,0.8453147684210527,0.33315742,0.9463994368421053,0.019889591789473686,-2.888294252631579,-2.180384521052632
21,1747679352410,0.7427593073684211,0.24509128,0.8602857526315789,0.07113438315789473,-3.109084042105263,-2.4452426684210526
22,1747679352420,0.6678979663157895,0.12452699294736842,0.7712433736842105,0.006882164631578948,-3.1906609789473683,-2.554572242105263
23,1747679352430,0.5618943422222222,0.015117988999999998,0.6488465577777779,-0.1682820648888889,-3.073936688888889,-2.6002790444444446
24,1747679352440,0.4791775136842105,-0.00636475592631579,0.5612257105263158,-0.38984445157894737,-2.827854578947368,-2.5909594210526317
25,1747679352450,0.37127851947368423,0.02410386567368421,0.5017527873684211,-0.653076707368421,-2.5999442,-2.526707157894737
26,1747679352460,0.317349,0.04527261944444445,0.5665178633333333,-0.84803864,-2.6455822,-2.4224982
27,1747679352470,0.32819598,0.040716885,0.63322685,-0.9183460533333334,-2.888107266666667,-2.3323059666666666
28,1747679352480,0.4136160122222222,-0.010969018333333332,0.7113794533333333,-0.8165541666666667,-3.564549588888889,-2.2644841777777778
29,1747679352490,0.4544549216666667,-0.07008510638888889,0.7168571655555556,-0.69907925,-4.0970039499999995,-2.2527662999999998
30,1747679352500,0.48673043789473686,-0.19485402263157894,0.6924257089473684,-0.5959448947368421,-4.54965712631579,-2.23903
31,1747679352510,0.4638147663157895,-0.26288177210526315,0.6856434936842105,-0.5845633763157895,-4.620020678947369,-2.195970863157895
32,1747679352520,0.2566486684210526,-0.30871314157894736,0.7542878210526316,-0.6890713815789473,-4.065634710526316,-1.9092467578947367
33,1747679352530,0.21446530999999996,-0.32813497333333336,0.7606247500000001,-0.6905571611111111,-3.6845692888888895,-1.6853950055555555
34,1747679352540,0.18733642263157893,-0.34005525210526316,0.7302417578947369,-0.6581787368421053,-3.4407173421052635,-1.5189678052631579
35,1747679352550,0.14774775684210525,-0.3369724263157895,0.5976544263157895,-0.567911667368421,-3.5235836631578947,-1.2704810210526314
36,1747679352560,0.12904526,-0.3320399,0.5411359,-0.5235070063157895,-3.960902410526315,-1.1137191157894737
37,1747679352570,0.13192257684210526,-0.3101004263157895,0.2857749715789474,-0.5871985157894737,-4.681861594736842,-0.9113190210526316
38,1747679352580,0.2606306689473684,-0.3357135968421052,0.04351604957894737,-0.9494162105263158,-4.90455797368421,-0.6694480884210526
39,1747679352590,0.42312140842105267,-0.40160906105263156,-0.097831625,-1.3360018263157896,-4.787659210526316,-0.48100857105263156
40,1747679352600,0.67158452,-0.41648372,-0.17858889,-1.8839927666666665,-4.4766520666666665,-0.35056050555555557
41,1747679352610,0.9131663142857143,-0.4093014685714285,-0.20665548142857143,-2.5122340857142857,-4.1145809714285715,-0.3001380242857143
42,1747679352620,1.1243106600000001,-0.403597464,-0.003306979999999993,-3.4119593999999998,-3.5440255799999996,-0.572206368
43,1747679352630,1.09111898,-0.49223908,0.501208148,-4.476548346666666,-2.4349439866666667,-1.0211795546666667
44,1747679352640,0.9868060588235295,-0.5399479588235294,0.8390580458823529,-4.880763835294117,-1.5917231647058823,-1.2184579529411765
45,1747679352650,0.882234708235294,-0.5148244058823529,1.1086120941176472,-5.057033705882353,-1.0255669235294118,-1.333067811764706
46,1747679352660,0.6917871011111111,-0.4041181277777778,1.4425206555555556,-5.067769666666667,-0.49836584666666667,-1.407302
47,1747679352670,0.4204496472222222,-0.29800745833333336,1.6013206111111111,-4.932067066666666,0.4319052377777778,-1.1955512944444446
48,1747679352680,0.37749555,-0.28176409,1.7323794000000001,-4.7874279,1.08656888,-1.01865838
49,1747679352690,0.41562270888888886,-0.32010819777777777,1.915503611111111,-4.408134844444444,1.6036360555555556,-0.9068648822222224
50,1747679352700,0.38286479777777777,-0.3489611944444444,2.1011497777777777,-3.9016612999999998,1.67459445,-0.88230461
51,1747679352710,0.3301213144444444,-0.2750660833333333,2.285141972222222,-3.369088666666667,1.467518977777778,-0.8614135877777778
52,1747679352720,0.3214708488888889,0.15154599222222223,2.669993111111111,-1.887839572222222,0.5161202255555556,-0.6658785944444444
53,1747679352730,0.5033429294117647,0.35172239352941176,2.693979364705882,-1.187721994117647,0.2929788311764706,-0.5804277294117647
54,1747679352740,0.7858575455555555,0.6329624127777778,2.5727226611111114,-0.4470260666666666,0.30093697555555554,-0.5610092466666666
55,1747679352750,1.0582717552941177,0.7984332652941176,2.3533326823529412,0.008224456470588242,0.5359215799999999,-0.6990479164705882
56,1747679352760,1.26274004,0.9019135620000001,2.19828456,0.056512234800000005,0.64395185,-0.90392948
57,1747679352770,1.5293686157894737,1.0102235842105263,1.991272757894737,-0.32962900342105267,0.7648873263157895,-1.671188352631579
58,1747679352780,1.5334320000000001,0.9096419999999998,2.0423049722222224,-0.9019158055555556,0.9073086833333333,-2.20352745
59,1747679352790,1.387978711764706,0.6014072929411765,2.4439785529411764,-1.4150852352941177,1.0308931882352943,-2.5151344647058824
60,1747679352800,1.2548000222222224,0.4020300733333333,2.830609811111111,-1.7858108666666668,1.1095904222222222,-2.6662069777777777
61,1747679352810,1.1644902368421053,0.20206012578947366,3.4542546,-1.9061420789473686,1.1204611157894737,-2.576606494736842
62,1747679352820,1.2951507666666666,-0.04828265333333333,4.1401669000000005,-1.8146914611111111,1.1092353888888888,-2.2801081111111112
63,1747679352830,1.7874528105263159,-0.3868371315789474,4.7267177894736845,-1.1212670842105263,1.4582057789473684,-1.899211
64,1747679352840,2.1866021684210524,-0.6581517694736841,5.147986252631579,0.08991666315789475,2.3569519263157894,-1.643211247368421
65,1747679352850,2.265984842105263,-0.7654342010526316,5.176348168421053,0.9677499315789474,2.712862121052632,-1.5565884894736843
66,1747679352860,2.2457409684210528,-0.7672324894736842,4.95952252631579,2.2758376105263154,3.037038642105263,-1.4722083894736842
67,1747679352870,2.247025415789474,-0.6788581157894736,4.458819815789474,3.514346847368421,3.296346115789474,-1.4071712315789475
68,1747679352880,2.268125633333333,-0.6281627022222221,4.0808879,4.044835722222222,3.487022111111111,-1.4135752666666666
69,1747679352890,2.285894784210526,-0.581492077368421,3.463965415789473,4.507284815789474,3.8202316315789475,-1.4544913421052632
70,1747679352900,2.243454642105263,-0.5879659968421053,2.9752601052631578,4.567780578947368,4.128877800000001,-1.483477705263158
71,1747679352910,2.1945918526315786,-0.5949537315789474,2.676996526315789,4.391843763157895,4.709334489473684,-1.503325247368421
72,1747679352920,1.9311383,-0.5803617210526316,2.3116044,4.105904531578947,5.2158393210526315,-1.4452403315789473
73,1747679352930,1.6686398166666665,-0.5972487561111112,2.2417539277777774,3.947719072222222,5.592338338888889,-1.32290945
74,1747679352940,1.5836265,-0.62588483,2.2563703,4.234240810526316,5.557564421052631,-1.1134948368421054
75,1747679352950,1.5260803105263159,-0.8059220257894736,2.151554047368421,4.738783347368421,5.135495842105263,-0.998894894736842
76,1747679352960,1.5152904,-0.839679,2.131901,5.407039894736842,4.397997063157895,-0.9775896210526315
77,1747679352970,1.5543396105263156,-0.9904806842105264,1.8189939999999998,5.977348210526316,3.646930136842105,-1.0463271578947368
78,1747679352980,1.5655120111111112,-1.2022666222222222,1.1358491277777776,6.716280444444444,2.5247931555555554,-1.2663322222222222
79,1747679352990,1.5443717105263157,-1.2552442421052632,0.7944930421052632,6.919770621052632,2.1205194,-1.4338028842105262
80,1747679353000,1.5329653,-1.2805234421052631,0.47326233421052627,6.939786115789474,1.9227167684210527,-1.602170605263158
81,1747679353010,1.5141311625,-1.2683655875,0.25918880625,6.8547051,1.9004303500000002,-1.71427555
82,1747679353020,1.4534540105263158,-1.2273960368421053,0.020523294736842106,6.5691304,2.060135689473684,-1.8605810736842106
83,1747679353030,1.3186059263157894,-1.1474223000000001,-0.27291058,5.967312673684211,2.5616505684210527,-1.933916042105263
84,1747679353040,1.1890576235294117,-1.0690353588235293,-0.4570581911764706,5.281404705882353,3.1456921705882355,-1.8893233529411764
85,1747679353050,1.0834376210526317,-0.9937689842105263,-0.5400376763157895,4.330226694736842,3.811261005263158,-1.7046601157894739
86,1747679353060,1.078093957894737,-0.9218619873684211,-0.5149897052631579,3.687368094736842,4.044049178947368,-1.5886024631578948
87,1747679353070,1.0671242105263157,-0.8695309989473683,-0.43601789999999996,2.9441504631578947,4.090696473684211,-1.505511852631579
88,1747679353080,1.0333415894736842,-0.8733075052631579,-0.27879366842105263,2.6291127052631578,4.070736642105263,-1.4730494263157894
89,1747679353090,1.0399211333333334,-0.8811144777777778,-0.05604504444444444,2.390954611111111,4.0098297333333335,-1.4364192777777776
90,1747679353100,1.1429674444444444,-0.8819822111111111,0.3290230711111111,2.327512272222222,3.8670845388888884,-1.4396150777777779
91,1747679353110,1.1747662894736843,-0.8999996368421052,0.4204689073684211,2.485414242105263,3.7725191315789472,-1.5132490684210527
92,1747679353120,1.1801612684210527,-0.9612451842105262,0.5366401389473685,2.696224347368421,3.7182467526315786,-1.5890509631578946
93,1747679353130,1.0757818,-0.9848288157894738,0.49833598894736847,2.9581670736842103,3.6932409999999996,-1.6096834368421051
94,1747679353140,0.8646337822222222,-0.9695987777777777,0.3608589988888889,3.2110892888888887,3.6807818,-1.4822255444444443
95,1747679353150,0.6694650863157895,-0.9058312789473684,0.11621942263157896,3.2791479,3.5466270368421053,-1.082377942105263
96,1747679353160,0.6733442936842106,-0.8419911168421053,-0.017267047947368424,3.185741042105263,3.3429373473684207,-0.6710179936842104
97,1747679353170,0.7265231021052632,-0.7968790031578948,-0.09295048384210526,3.0805601315789475,3.197781142105263,-0.37408976631578944
98,1747679353180,0.7722774368421053,-0.7642523894736841,-0.12778644868421055,3.064693357894737,3.0508868947368426,-0.1759507189473684
99,1747679353190,0.8199327921052632,-0.6892626236842105,-0.33675084842105263,3.226837757894737,2.700695642105263,-0.017394632842105264
100,1747679353200,0.8360790944444445,-0.6196206833333334,-0.5921574866666667,3.35904265,2.4943147999999997,-0.043942125
101,1747679353210,0.7341017173684211,-0.48995778263157896,-1.1038870631578945,3.493714363157895,2.1565701473684213,-0.23717533536842106
102,1747679353220,0.48357054578947367,-0.3642297647368421,-1.617743157894737,3.470839194736842,1.7016465578947366,-0.3960678157894737
103,1747679353230,0.05257400194444444,-0.2074622188888889,-2.1821361833333333,3.1477653555555554,1.039519788888889,-0.38938344666666663
104,1747679353240,-0.2568092375,-0.022575295000000002,-2.5649807,2.5654211499999997,0.373907545,-0.1589905965
105,1747679353250,-0.35261526444444447,0.10270742111111111,-2.786503311111111,1.9933745222222221,-0.05935885777777778,0.16692089538888888
106,1747679353260,-0.20723992921052634,0.12974211736842106,-2.9720809157894736,1.5508416684210526,-0.24604786210526317,0.44358418578947373
107,1747679353270,0.2029560857894737,0.22402528578947373,-3.3900353947368425,0.7792543736842105,-0.6418213368421053,0.5897495736842104
108,1747679353280,0.590112454117647,0.29958028823529415,-3.4915799352941175,0.10472481123529412,-1.0996966588235295,0.3624559476470588
109,1747679353290,0.7647139211764705,0.36401138352941176,-3.346408823529412,-0.33466510347058825,-1.3760386117647059,-0.12242699352941176
110,1747679353300,0.6654830722222222,0.42122924888888885,-3.195244911111111,-0.48247566666666664,-1.5638661333333335,-0.5710108888888888
111,1747679353310,0.45949878,0.485747149,-3.05241173,-0.484002544,-1.7225312899999998,-1.0320806550000001
112,1747679353320,0.1782874229411765,0.5208109929411764,-3.017563188235294,-0.3846071794117647,-1.6981242529411764,-1.4108320176470588
113,1747679353330,-0.32376229,0.5600707133333334,-3.0461800666666665,-0.16153539944444445,-1.421949411111111,-2.0237346944444443
114,1747679353340,-0.8247629973333334,0.5401231073333334,-3.05249306,0.045930620000000005,-1.2663499266666667,-2.3786805133333333
115,1747679353350,-2.09011848,0.396422188,-3.18395862,0.548166908,-1.6759793133333334,-2.5849155
116,1747679353360,-2.7934088307692306,0.24581257846153845,-3.3563457153846152,0.9553980846153846,-2.3726289076923077,-2.4114905846153847
117,1747679353370,-3.1546784,-0.07023302181818182,-3.7366551545454545,1.1383552727272728,-3.263822509090909,-1.5785511818181819
118,1747679353380,-2.9254125555555555,-0.38801033611111113,-3.9675776666666667,0.6426203,-3.3266409111111113,-0.7854839611111111
119,1747679353390,-2.595983105882353,-0.7196315052941177,-3.8830763294117645,-0.31216922352941173,-3.2394981411764707,0.17960659647058824
120,1747679353400,-2.26942735,-0.96799203,-3.4556979500000002,-1.1169954624999998,-3.3404004375,1.15734231875
121,1747679353410,-1.8631127,-1.161021,-2.9871183333333335,-1.8194814,-3.6632640833333334,2.3580498666666667
122,1747679353420,-0.9785678416666667,-1.5107550166666666,-2.3067680833333335,-2.5273047,-4.5207125,4.281294549999999
123,1747679353430,-0.4998088833333333,-1.6821645666666667,-2.060351666666667,-2.7791692444444447,-4.9716446111111114,5.188692111111111
124,1747679353440,0.3146643722222222,-1.9448786777777778,-1.8204705166666666,-3.070992288888889,-5.497115638888889,6.266857238888889
125,1747679353450,1.3083011588235294,-2.2498991529411763,-1.6310884529411764,-3.3770501647058824,-5.9356804117647055,7.0075079
126,1747679353460,2.3018438058823527,-2.5586458470588234,-1.4965698529411764,-3.7196890941176473,-6.255572635294118,7.284476576470588
127,1747679353470,3.598074844444444,-3.0033277,-1.325034322222222,-4.360671594444444,-6.5020138944444446,6.887195944444445
128,1747679353480,4.284852,-3.2846444,-1.1819082,-4.8284407,-6.541251,6.277865
129,1747679353490,4.26349675,-3.4546303,-0.47762004375,-5.9590849,-6.236452625,4.6354946375
130,1747679353500,4.012863744444444,-3.4296959055555556,-0.10228032944444446,-6.353661583333333,-5.880432633333333,4.19059925
131,1747679353510,3.6729619894736847,-3.3703214368421053,0.3358195715789474,-6.631483263157895,-5.268709842105263,4.019113673684211
132,1747679353520,3.5385824470588236,-3.2734752117647057,0.5831711952941177,-6.698040941176471,-4.788516529411765,4.019756623529411
133,1747679353530,3.504331252631579,-3.212300668421052,0.6977692842105263,-6.714742315789474,-4.264894894736842,3.9923697157894735
134,1747679353540,3.4873756315789475,-3.1731487736842103,0.8238570105263158,-6.7091916578947375,-3.7517744210526316,3.8055002105263163
135,1747679353550,3.3232936722222224,-3.1693409500000005,0.9361832938888889,-6.692178500000001,-3.4560703444444445,3.4862232
136,1747679353560,3.0439623789473687,-3.1375935947368423,1.0847927194736842,-6.650097384210527,-3.3776426842105267,3.2750548842105265
137,1747679353570,2.7567455473684213,-3.0864444315789474,1.2426592052631578,-6.5104356947368425,-3.464657905263158,3.0097482578947368
138,1747679353580,2.4138805294117645,-2.9641830000000002,1.534736088235294,-5.819135952941176,-4.3574609176470585,2.8677680294117645
139,1747679353590,2.273178168421053,-2.8527144842105265,1.6699649157894738,-5.2035817263157895,-4.978733789473685,2.8929617894736843
140,1747679353600,2.2172248842105264,-2.7158368315789474,1.6992519263157895,-4.566946342105263,-5.4202575263157895,2.941739642105263
141,1747679353610,2.173838311111111,-2.595779311111111,1.6598943944444444,-4.029788783333333,-5.581211983333334,3.0000486888888886
142,1747679353620,2.1396658947368423,-2.458472089473684,1.5123296105263158,-3.3763181315789477,-5.41067005263158,3.1064067894736844
143,1747679353630,2.090180888888889,-2.3474103888888886,1.304980911111111,-3.2688947,-5.3534822,3.126815
144,1747679353640,2.084432,-2.336238,1.28307,-3.2688947,-5.3534822,3.126815
145,1747679353650,2.016609705263158,-2.2268746684210527,1.0957110931578946,-2.958846794736842,-4.4916280526315795,3.2955754210526313
146,1747679353660,1.9110227684210528,-2.097241805263158,0.9376133489473684,-2.920441189473684,-4.055991315789474,3.4074280526315786
147,1747679353670,1.8466174052631579,-2.000158405263158,0.9263867421052631,-3.067279457894737,-3.8107563789473686,3.530045378947368
148,1747679353680,1.8360587894736842,-1.9122206421052632,0.9503044052631578,-3.188551410526316,-3.5598027052631576,3.632198547368421
149,1747679353690,1.9072462000000001,-1.7724657,1.0551205,-3.364643094117647,-2.8454758411764707,3.7238013411764705
150,1747679353700,1.7908953052631578,-1.449256894736842,1.2755940842105264,-3.4331695157894737,-1.8218531315789472,3.677780736842105
151,1747679353710,1.6014298578947368,-1.0515720315789474,1.4815012684210527,-3.3712159684210525,-1.4122872894736842,3.5503414210526314
152,1747679353720,1.4189520263157895,-0.7664104021052631,1.6286806789473685,-3.155584236842105,-1.601007147368421,3.4257616052631583
153,1747679353730,1.1966801736842105,-0.37111472105263155,1.7604716157894738,-2.7684450315789473,-2.5390559631578946,3.5539298315789467
154,1747679353740,1.3446558789473684,-0.06956273442105262,1.7333941526315788,-2.5225233368421054,-3.5909757,3.902551105263158
155,1747679353750,1.9391794157894735,0.17577902089473682,1.6082055263157895,-2.4889184684210526,-5.034968621052632,4.318284368421053
156,1747679353760,2.545083705263158,0.2917961247368421,1.5179300421052633,-2.7095261315789476,-5.7035056105263156,4.440285336842106
157,1747679353770,3.3910631684210526,0.4031889984210526,1.5027214421052633,-3.180085289473684,-6.023757378947368,4.415728284210526
158,1747679353780,4.893659342105264,0.4884806089473684,1.777401489473684,-4.091390263157894,-5.621536168421052,4.116164715789473
159,1747679353790,6.489122999999999,0.2713238688888889,2.9707800166666667,-5.985376111111112,-2.6826888944444445,2.648393311111111
160,1747679353800,6.676638736842105,-0.12423156631578947,4.554875694736842,-6.611635736842106,-0.7188567052631579,1.3617293578947367
161,1747679353810,6.120394,-0.20197023105263157,6.027311868421053,-6.281684684210526,0.6797223,0.3460845552631579
162,1747679353820,5.404766547368421,-0.010629338,7.744961110526315,-4.734977815789473,1.1467563294736842,-0.03707397894736843
163,1747679353830,5.212269433333334,0.005735344999999999,8.591933333333333,-2.329687233333333,1.0302875,-0.15668252000000002
164,1747679353840,5.242686868421053,-0.23950366473684212,8.552558894736842,1.7783175684210526,0.6515208684210527,-0.45336779368421054
165,1747679353850,5.271845342105263,-0.4040496189473684,8.037726710526316,2.574279747368421,0.5909129736842106,-0.5503628547368421
166,1747679353860,5.277820558823529,-0.7319204882352941,6.356503288235294,5.507428670588235,0.5033370764705882,-1.0599216470588235
167,1747679353870,5.202404584210527,-1.021822690526316,4.643815268421053,6.580624052631579,1.082167705263158,-1.4999052210526316
168,1747679353880,5.110844678947369,-1.1540760263157894,3.6312602263157894,6.7234253157894734,1.817031347368421,-1.796272789473684
169,1747679353890,4.862400111111111,-1.1769660666666666,2.326387488888889,6.1102041555555555,2.8301687166666665,-2.0473479388888887
170,1747679353900,4.58527352631579,-0.9592413684210527,1.5632219421052633,4.5234317684210525,4.382914973684211,-2.376617147368421
171,1747679353910,4.491581368421053,-0.892600894736842,1.5911472263157895,3.8479424947368424,5.022073210526316,-2.613105742105263
172,1747679353920,4.219932666666667,-0.8608306,1.7819228999999999,3.052956866666667,5.882208333333334,-3.0613013666666666
173,1747679353930,3.6954151842105265,-1.0648538210526315,2.038260052631579,2.7460113157894734,6.598215052631579,-3.481071284210526
174,1747679353940,3.254724868421053,-1.3078064368421052,2.193300757894737,2.9121924842105265,6.918579157894737,-3.611145684210526
175,1747679353950,2.8769942555555557,-1.5512414777777779,2.2215514888888888,3.2868413555555556,6.985703222222223,-3.533213166666667
176,1747679353960,2.6465343368421053,-1.7189015578947369,2.164656205263158,3.728072305263158,6.947789631578948,-3.3656864157894737
177,1747679353970,2.5435678421052628,-1.8508979263157894,2.0530834315789472,4.220055789473684,6.803474347368422,-3.131048126315789
178,1747679353980,2.549425221052631,-2.124190810526316,1.8034770526315789,5.205200584210527,6.344009494736842,-2.7344897736842104
179,1747679353990,2.615757368421052,-2.2619161368421055,1.6678840052631578,5.7900864789473685,5.9661773315789475,-2.5718968631578947
180,1747679354000,2.720213842105263,-2.4233535368421055,1.5037747315789474,6.176104263157894,5.6167708,-2.5426301157894735
181,1747679354010,2.8462244684210525,-2.657520052631579,1.244431742105263,7.050180973684211,4.49471152631579,-2.7242296578947367
182,1747679354020,2.8904374315789476,-2.821398094736842,0.8861043999999999,7.391850278947369,3.818101094736842,-2.981238552631579
183,1747679354030,2.9357035,-2.8926885,0.5401597,7.548836410526316,3.2218338842105263,-3.382955
184,1747679354040,2.79862475,-2.8642151666666664,0.17122649583333333,7.453324222222221,3.0281894,-3.742714988888889
185,1747679354050,2.650721789473684,-2.789413763157895,-0.09652142131578949,7.116339631578947,3.155282810526316,-4.087710842105263
186,1747679354060,2.438751642105263,-2.661091010526316,-0.40868348263157894,6.5761948,3.607122868421053,-4.318144126315789
187,1747679354070,2.0897240684210523,-2.4705979947368424,-0.6495294621052632,5.5597650631578945,4.740675515789474,-4.350550578947369
188,1747679354080,1.8135027315789474,-2.331100110526316,-0.7323033810526315,4.833760052631579,5.575337721052631,-4.264096263157895
189,1747679354090,1.5994903,-2.221043,-0.67963838,4.244040066666667,6.194212277777778,-4.0189735777777775
190,1747679354100,1.4267982764705882,-2.1205199647058826,-0.5932421188235294,3.6078756058823527,6.676853176470589,-3.594434564705882
191,1747679354110,1.0548186526315788,-1.8343534368421053,-0.19350207210526316,2.995787710526316,6.502509421052632,-2.7795671789473686
192,1747679354120,0.9820125052631579,-1.7138149842105264,0.044363825,2.7869959315789474,5.665436610526316,-2.0564213473684214
193,1747679354130,1.256538452631579,-1.5654281842105264,0.22933352,2.8658816736842105,4.4368512631578945,-1.510501847368421
194,1747679354140,1.4405832315789475,-1.5280745,0.26082976736842106,2.9413471052631577,3.794104578947368,-1.3299677105263157
195,1747679354150,1.5764132555555554,-1.4923964888888888,0.26508007222222224,3.0005222,3.3862954555555556,-1.2511817333333333
196,1747679354160,1.607749605263158,-1.444093147368421,0.27380333842105264,3.0383981736842105,3.250988442105263,-1.219628757894737
197,1747679354170,1.5838833842105262,-1.4109269894736842,0.2968217863157895,3.073383757894737,3.326622089473684,-1.1716358105263158
198,1747679354180,1.5322973842105263,-1.3952045684210526,0.3110541705263158,3.09850152631579,3.4665640684210524,-1.1151207789473685
199,1747679354190,1.4453273333333334,-1.3725373,0.32620284666666666,3.137822766666667,3.6305961,-0.9946899666666665
200,1747679354200,1.2887539157894736,-1.325121742105263,0.3642586557894737,3.282624036842105,3.715667605263158,-0.6679343368421052
201,1747679354210,1.2534042105263157,-1.2741522684210527,0.3482279484210526,3.3963268947368417,3.5735389421052632,-0.46945887315789475
202,1747679354220,1.64659325,-1.1336052333333333,-0.002379561666666665,3.6537655000000004,2.6940516333333333,-0.14798287
203,1747679354230,1.9201685894736842,-1.0304031736842105,-0.4096597078947369,3.5912702210526315,2.193349710526316,-0.4020669321052632
204,1747679354240,1.8662703947368424,-0.904649552631579,-0.6408975368421053,3.407428052631579,2.050996994736842,-0.7700874884210527
205,1747679354250,1.5418384055555556,-0.6217629494444444,-0.9021101222222223,3.1285905222222223,2.167752377777778,-1.1501000888888888
206,1747679354260,0.8870871,-0.2235500089473684,-1.161124794736842,2.945776352631579,2.3826303263157897,-1.2262445894736842
207,1747679354270,0.4424661526315789,0.12958796631578945,-1.3481754421052632,2.7735961105263156,2.6551695263157895,-1.0217700315789475
208,1747679354280,0.27034157894736843,0.3343648494736842,-1.4835116105263157,2.7912009631578947,2.648329563157895,-0.8026621342105262
209,1747679354290,0.49513115,0.24491144999999998,-1.7599171722222222,2.9009200833333333,2.499759527777778,-0.6596053277777778
210,1747679354300,0.7980190315789474,0.10721178052631579,-2.2312259631578946,3.0981651052631576,2.1366665789473682,-0.8505429447368421
211,1747679354310,0.9256481333333332,0.08123038866666667,-2.7923606666666667,3.2326311999999997,1.7153703777777778,-1.3843396666666665
212,1747679354320,0.6184956789473685,0.22389684210526314,-3.339785389473684,3.1464383315789473,1.5345683210526315,-2.002148905263158
213,1747679354330,-0.7403380894736843,0.30834064210526313,-3.7350297842105262,2.8378483578947367,1.7662912263157893,-3.1140598842105263
214,1747679354340,-2.0126727,0.13446911368421052,-3.8793573736842104,3.2156244210526315,2.082506310526316,-3.5145991052631578
215,1747679354350,-3.078765968421053,-0.13699961052631582,-4.256567226315789,3.7358654999999996,1.769486957894737,-3.3809927263157893
216,1747679354360,-4.687591589473684,-0.4734903526315789,-5.496377921052632,4.141899094736842,-0.12948559999999998,-1.9156384157894735
217,1747679354370,-4.998272216666667,-0.7224501499999999,-6.4623307500000005,3.838411177777778,-1.238487311111111,-0.6783066277777778
218,1747679354380,-4.224062484210527,-1.0130109684210526,-6.927734947368422,2.7298642842105267,-2.014049010526316,0.9043387594736841
219,1747679354390,-3.3305560105263154,-1.2322771263157895,-6.875969421052631,0.08593595789473683,-2.6777644473684212,3.068561952631579
220,1747679354400,-2.590240555555555,-1.3652698333333335,-6.358688,-1.138781591111111,-3.2121842,3.9107307000000002
221,1747679354410,-1.54279828,-1.5149468368421053,-5.376635915789474,-2.2278657684210526,-4.021062021052631,4.670606489473684
222,1747679354420,-0.3374637326315789,-1.6151129842105265,-4.181551757894737,-2.8325500789473685,-4.786818426315789,5.161300626315789
223,1747679354430,0.9842732621052632,-1.6042974263157894,-3.0707057789473686,-3.1060634736842103,-5.943806631578948,5.478637010526316
224,1747679354440,1.8859491315789474,-1.5816387210526315,-2.394847,-3.0501792210526317,-6.632751894736842,5.379960157894737
225,1747679354450,2.3835434263157893,-1.5632187578947367,-1.9838032421052632,-2.949708036842105,-6.907029605263158,5.132370157894736
226,1747679354460,2.8161413368421053,-1.5637582842105264,-1.4795039210526315,-2.8296835894736843,-6.995838842105264,4.669260636842105
227,1747679354470,2.9041560473684207,-1.5771942684210525,-1.228947042105263,-2.780218905263158,-6.948911263157894,4.363585905263157
228,1747679354480,2.8995832,-1.6194418,-1.09868473,-2.7986473000000003,-6.805437,4.110053300000001
229,1747679354490,2.8759240529411763,-1.7769163294117647,-0.8801099482352941,-3.019834411764706,-6.308084129411765,3.7492425176470583
230,1747679354500,2.8629371461538464,-1.8833428307692306,-0.8249463753846153,-3.265698784615384,-5.8800505923076924,3.6182294307692304
231,1747679354510,2.826222482352941,-2.0537632470588236,-0.7604357441176471,-3.4605793647058825,-5.605824805882353,3.5690875411764704
232,1747679354520,2.7555894,-2.2755898,-0.6707303524999999,-4.1717056,-4.73349915,3.48474375
233,1747679354530,2.578696653333333,-2.7506473066666666,-0.4470030733333334,-5.0493763666666664,-3.8731210866666665,3.5296268266666666
234,1747679354540,2.5357836210526314,-3.0749093368421057,-0.19938513631578947,-5.942706505263158,-3.1402570421052634,3.617957768421053
235,1747679354550,2.5808442631578945,-3.2674061842105266,0.10355414210526315,-6.553887499999999,-2.698172589473684,3.616051489473684
236,1747679354560,2.6294280666666667,-3.3526876800000003,0.42639648399999996,-7.069897553333333,-2.3479474733333334,3.49582236
237,1747679354570,2.6403172842105262,-3.3582983052631583,0.7686486810526315,-7.295647468421053,-2.217682594736842,3.2763445052631575
238,1747679354580,2.549836357894737,-3.2676888578947367,1.064497477894737,-7.260213378947369,-2.2676378684210525,2.9922555789473684
239,1747679354590,2.4248919,-3.13991845,1.300154,-7.049515250000001,-2.4160179,2.75716865
240,1747679354600,2.3049827263157896,-2.980600463157895,1.4644944000000002,-6.606477684210526,-2.7108997210526313,2.5595901894736843
241,1747679354610,2.1149519789473685,-2.7761832736842105,1.5199853631578948,-5.823509136842105,-3.281432515789474,2.3717113157894736
242,1747679354620,2.0209769,-2.688982011111111,1.4925253777777778,-5.535006366666667,-3.501758288888889,2.3402954166666667
243,1747679354630,1.9374837000000003,-2.6106097526315786,1.4438908842105265,-5.0816929368421055,-3.874840294736842,2.359544947368421
244,1747679354640,1.8236247263157894,-2.5057680263157893,1.3686698368421053,-4.50639467368421,-4.380784394736843,2.457324894736842
245,1747679354650,1.7461686166666668,-2.3570641666666665,1.2227064333333333,-3.955220472222222,-4.941107038888889,2.718464011111111
246,1747679354660,1.820362,-2.3025582,1.1546959,-3.57417682631579,-5.414426757894738,2.9905172736842105
247,1747679354670,1.8964050315789474,-2.2733740315789475,1.1181129105263157,-3.3684687157894735,-5.5698991736842105,3.2336218789473685
248,1747679354680,1.9793246333333334,-2.2063994666666664,1.0962848,-3.196101566666667,-5.4497112166666675,3.5095998166666664
249,1747679354690,2.1897619526315792,-2.114377147368421,1.0425579263157894,-3.1068623684210523,-5.0276799789473685,3.7319408894736843
250,1747679354700,2.424776252631579,-2.0132604105263154,0.9978569394736843,-3.132933252631579,-4.304870673684211,3.7358655157894733
251,1747679354710,2.4466643368421055,-1.9248859473684212,0.9961613826315788,-3.1761044631578947,-3.8089624368421053,3.680639989473684
252,1747679354720,2.292558588888889,-1.6552368666666668,1.1145077944444444,-3.2477668833333335,-3.248403172222222,3.575172694444445
253,1747679354730,2.169775,-1.4445812105263158,1.2778548894736843,-3.240020347368421,-2.998016263157895,3.491359542105263
254,1747679354740,2.0849458315789478,-1.2870487157894737,1.4681681315789472,-3.1254764578947367,-3.030927294736842,3.4391616210526315
255,1747679354750,2.0315099473684213,-1.2813712052631578,1.6879223210526315,-2.8408408578947366,-3.379212484210526,3.475829147368421
256,1747679354760,1.9333733473684211,-1.1655083263157895,1.7566437631578946,-2.407453705263158,-3.885156694736842,3.916063284210526
257,1747679354770,2.2447904736842106,-0.7513816421052631,1.7073185947368419,-2.186551778947368,-4.174908263157896,4.512947294736842
258,1747679354780,2.6973239210526314,-0.22575937789473682,1.640857852631579,-2.1272614368421054,-4.41930217368421,4.936978442105263
259,1747679354790,3.424768547368421,0.13701246684210525,1.5972615052631578,-2.275501231578947,-4.772297073684211,5.275564126315789
260,1747679354800,4.581855205882353,0.3689499670588235,1.6819169,-2.5668780117647056,-5.148450635294118,5.14173005882353
261,1747679354810,5.5500446199999995,0.5336800079999999,1.83024632,-2.92630576,-5.6306642,4.809718660000001
262,1747679354820,6.409265792857143,0.9243319999999999,2.1399898428571427,-3.7140226285714286,-6.553730428571428,3.9285020285714287
263,1747679354830,7.020803628571429,1.1735144285714285,2.4689790285714284,-4.156868028571429,-6.662996,3.437263285714286
264,1747679354840,8.296665257142857,1.069894642857143,3.2557499142857145,-5.043319707142857,-5.494629892857143,2.2175364285714285
265,1747679354850,8.408687500000001,0.360350515,4.2988855,-5.765568314285715,-1.9119199428571427,0.3731085885714286
266,1747679354860,7.003499492307692,0.10914052692307694,5.755588123076923,-5.593463676923077,2.1147532153846154,-1.0838443015384616
267,1747679354870,5.278021623529412,0.23374224588235293,7.647307405882352,-4.030182176470588,4.310338770588236,-1.3959809823529412
268,1747679354880,4.866576055555556,0.21817362444444444,8.288895583333334,-0.07143185555555553,4.425992944444444,-0.9388227222222222
269,1747679354890,5.149335160000001,-0.06276338933333334,7.796990159999999,3.5835290866666663,3.6624118733333333,-0.8381672093333333
270,1747679354900,5.6109615999999995,-0.56037983,6.49808512,6.142789680000001,2.8288075999999998,-1.350487972
271,1747679354910,5.717196955555556,-1.1230565222222222,4.637229777777778,8.303759777777778,1.8203580333333333,-2.363672133333333
272,1747679354920,5.71698,-1.1784304,4.443611,8.818615727272727,1.2022468727272726,-3.2227373545454543
273,1747679354930,5.0622560000000005,-1.4664180000000002,2.6060229333333336,8.840747266666666,0.8871870826666667,-3.8077671533333333
274,1747679354940,4.447313077777777,-1.6049069222222223,1.2147611388888888,7.98696186111111,0.9857831544444444,-4.359798388888889
275,1747679354950,3.878810571428571,-1.565574914285714,0.3318742834285714,6.344520071428571,1.7544131,-4.713373
276,1747679354960,3.4079544375,-1.4565337,0.05979402825,3.754122125,3.720300225,-4.80820075
277,1747679354970,3.07763,-1.4230618588235293,0.4508922017647059,1.7797578117647057,5.848579176470588,-4.7025592941176475
278,1747679354980,2.8437752999999995,-1.4683703666666665,0.8062471586666667,1.1637472666666668,6.843288933333334,-4.5496167000000005
279,1747679354990,2.6360622874999997,-1.5497025,1.1673867875,0.88470146875,7.67349325,-4.349737875
280,1747679355000,2.4180853222222223,-1.6505998333333334,1.533038811111111,1.1963206416666667,8.177555888888888,-4.021636677777778
281,1747679355010,2.231316869230769,-1.7960829769230768,1.912775253846154,2.0010772999999995,8.296560153846153,-3.5950803
282,1747679355020,2.2909585777777774,-1.9193339444444446,2.0035812666666666,2.883639122222222,8.114586833333332,-3.2486692777777777
283,1747679355030,2.5856107352941176,-2.1823958117647058,1.8885329352941176,4.243085947058823,7.6088336705882345,-2.8654181470588234
284,1747679355040,2.727393582352941,-2.3167708,1.7539855235294117,5.020101688235294,7.210550282352941,-2.747612570588235
285,1747679355050,2.956846594736842,-2.519101152631579,1.4843786736842104,5.979142578947369,6.630453031578948,-2.706792894736842
286,1747679355060,3.1740663000000002,-2.7449524999999997,1.0507274999999998,6.269343,6.43579,-2.7193518
287,1747679355070,3.2155730578947366,-2.851918005263158,0.6572558394736842,6.945505105263158,5.677546631578947,-3.0806443263157894
288,1747679355080,3.1254174666666668,-2.875875722222222,0.29181792444444443,7.375560122222222,4.938621322222222,-3.536645711111111
289,1747679355090,3.015497505263158,-2.8590599631578946,0.05525649415789474,7.27568075263158,4.761308089473684,-3.7787283631578945
290,1747679355100,2.827188042105263,-2.7825031315789475,-0.26304553763157895,6.905977994736842,4.864582615789474,-3.9590381842105264
291,1747679355110,2.6878954842105265,-2.7135762157894736,-0.41526019999999997,6.485310910526316,5.131907647368421,-4.014880494736842
292,1747679355120,2.452752847368421,-2.571843142105263,-0.5358244868421053,5.717536142105263,5.665548657894737,-3.9094755368421055
293,1747679355130,2.198214005263158,-2.3810160263157893,-0.5502110447368421,4.973757989473684,5.955860894736841,-3.6354224736842102
294,1747679355140,1.9588781555555554,-2.245123233333333,-0.4695864999999999,4.3495011111111115,5.991338444444445,-3.2730522000000004
295,1747679355150,1.792411063157895,-2.116226763157895,-0.30268558210526314,3.9472362631578948,5.822086305263158,-2.8743196
296,1747679355160,1.7071193736842105,-1.9927081052631577,-0.12904527,3.6789580105263155,5.620583315789474,-2.493515863157895
297,1747679355170,1.7216086473684211,-1.8820602684210526,0.028101905263157898,3.4866499263157897,5.343839105263157,-2.0494691473684212
298,1747679355180,1.8559429315789473,-1.755433110526316,0.17176170842105262,3.4423013421052637,4.845127684210526,-1.5345543210526316
299,1747679355190,2.063468636842105,-1.6442971736842105,0.22416980315789475,3.524046252631579,4.348490168421052,-1.2529883000000002
300,1747679355200,2.248207047368421,-1.4983509473684211,0.19529396842105265,3.6227794105263165,3.9626404789473684,-1.1305391157894737
301,1747679355210,2.3645324105263157,-1.3686409631578946,0.16577588105263158,3.6938718210526313,3.924571547368421,-1.1445557157894737
302,1747679355220,2.4359513789473684,-1.3285897894736842,0.10360551315789474,3.7655247684210527,4.127252052631579,-1.2739011421052633
303,1747679355230,2.4353320666666667,-1.3399962611111111,0.04922499261111111,3.8340909777777776,4.3418371944444445,-1.4206770333333334
304,1747679355240,2.17848397368421,-1.3997261315789473,-0.09004749052631579,4.004199900000001,4.630897215789473,-1.7029781473684211
305,1747679355250,1.7408250368421052,-1.3908373315789475,-0.36637169315789475,4.248649789473684,4.482545300000001,-1.8873248421052633
306,1747679355260,1.2016383842105263,-1.2345636315789474,-0.9745109947368421,4.480036331578947,3.6972777578947373,-1.8734203263157896
307,1747679355270,0.8466506789473685,-0.9736021684210527,-1.7739911315789474,4.240071636842106,2.6488340105263157,-1.6262791684210527
308,1747679355280,0.7163240726315789,-0.6109844536842105,-2.6945236210526318,3.5428285789473684,2.1578596,-1.4348681105263157
309,1747679355290,0.7534207610526316,-0.40780038,-3.1390161368421055,2.4690428421052633,2.3854336000000003,-1.4040875894736844
310,1747679355300,0.5797033905263159,-0.2300239642105263,-3.2710125368421052,0.8249485431578948,3.3917152526315792,-1.5797999789473685
311,1747679355310,0.31946130631578945,-0.17042261,-2.8221784947368422,0.27056294578947365,3.752615468421052,-1.6150097421052632
312,1747679355320,0.15293719315789475,-0.021290785368421054,-2.2308404947368423,0.4590024915789474,3.9213196736842106,-1.6442203894736842
313,1747679355330,-0.23896735684210527,0.03818211252631579,-2.205021915789474,1.7523447789473685,3.7022117368421052,-1.9334113578947372
314,1747679355340,-0.7860152736842106,-0.008728257789473684,-2.5716217,3.0575168999999995,2.8930598526315787,-2.1995031
315,1747679355350,-1.3686697789473685,-0.07007654115789473,-3.1434862157894736,4.4507695,1.6793321263157894,-2.3670296789473686
316,1747679355360,-2.300865747368421,-0.35487850400000004,-4.311467236842105,5.263453599999999,0.49492711663157896,-2.293470589473684
317,1747679355370,-3.208810105263158,-0.6327441021052632,-5.663184868421053,5.408105221052631,-0.655557644631579,-1.8742053052631578
318,1747679355380,-3.756454622222222,-0.8125072472222222,-6.964492377777778,4.450937833333334,-1.8558668333333332,-0.7557158
319,1747679355390,-3.7988121999999995,-0.87335885,-7.7006774,2.9510467,-2.3877885,0.44022019999999995
320,1747679355400,-2.306260742105263,-1.021874109473684,-7.147438231578947,-1.0792381242105265,-1.3330653684210525,1.988945357894737
321,1747679355410,-1.4241607210526315,-1.1144617263157894,-5.971852842105263,-3.5608539684210525,-0.9661660842105263,2.5280809368421053
322,1747679355420,-0.5246427936842105,-1.2394447,-4.517014842105263,-4.474156284210526,-1.3248795842105263,2.659837147368421
323,1747679355430,0.2031616010526316,-1.3237086789473684,-3.398821589473684,-4.939396284210527,-2.0959062368421058,2.61341407368421
324,1747679355440,0.78641349,-1.47730903125,-2.35545746875,-4.9450871,-3.2321430500000004,2.3928484625
325,1747679355450,0.9772526555555555,-1.6228586722222222,-1.8463134222222222,-4.775532616666667,-3.8951365388888886,2.3143149111111114
326,1747679355460,1.0855955631578946,-1.7496528263157896,-1.4429980894736842,-4.6054640000000004,-4.477050847368421,2.327026368421053
327,1747679355470,1.173610347368421,-1.8177576210526316,-1.2091655157894738,-4.5241675,-4.751944868421053,2.4116867157894735
328,1747679355480,1.4114034055555555,-1.9555086555555556,-0.7469981638888888,-4.366352888888889,-5.252163955555556,2.670823011111111
329,1747679355490,1.59851395,-2.05581615,-0.28719434499999996,-4.213250749999999,-5.3886361,3.04212665
330,1747679355500,1.6726260333333334,-2.068018883333333,-0.06127870333333333,-4.1028183333333335,-5.31513275,3.3309905833333335
331,1747679355510,2.0008016444444445,-2.101617577777778,0.2185464888888889,-3.821411322222222,-4.930809777777777,4.004947222222222
332,1747679355520,2.248335705263158,-2.0723221789473683,0.26314188263157895,-3.6861416421052637,-4.787659263157894,4.314583736842105
333,1747679355530,2.7219095,-2.037512,0.26925614,-3.5872403894736844,-4.623160105263158,4.5944682631578955
334,1747679355540,3.175676094736842,-2.0672098368421055,0.22732968421052635,-3.639830652631579,-4.581334484210527,4.415952421052631
335,1747679355550,3.4150063684210523,-2.0961370315789476,0.17040013105263158,-3.8315781368421056,-4.595126957894737,3.9624864578947365
336,1747679355560,3.5434062666666666,-2.1374126666666666,0.09418576333333334,-4.202775533333334,-4.6376252,3.2684952333333332
337,1747679355570,3.402803605263158,-2.1666825052631578,0.06604638789473685,-4.32244,-4.6514735,3.073552
338,1747679355580,3.1694847684210528,-2.218730978947369,0.10268066842105264,-4.781288421052632,-4.607068826315789,2.697233557894737
339,1747679355590,2.836025347368421,-2.361054821052632,0.25810660526315793,-5.778880105263158,-4.4506994526315795,2.073830015789474
340,1747679355600,2.6223882222222223,-2.495688677777778,0.45376346111111115,-6.358632866666667,-4.345387911111111,1.9654410111111114
341,1747679355610,2.499817489473684,-2.629877442105263,0.7533629631578947,-6.810503947368421,-4.463426315789474,1.9855253105263158
342,1747679355620,2.5191365,-2.706203189473684,0.9050123947368423,-7.009315842105263,-4.632410894736842,2.0122130631578945
343,1747679355630,2.5473185684210526,-2.775977757894737,1.0410935789473685,-7.131372636842105,-4.669751357894737,1.9920851105263155
344,1747679355640,2.5810755999999997,-2.8210127631578943,1.2531665210526315,-7.203025568421053,-4.5193809684210535,1.9000798315789473
345,1747679355650,2.585956647368421,-2.8232221052631576,1.3915598789473684,-7.15318224736842,-4.325054405263158,1.7956840421052631
346,1747679355660,2.5274858157894737,-2.782836957894737,1.6523671421052633,-6.905143815789474,-4.128373152631579,1.5864438842105262
347,1747679355670,2.432945666666667,-2.7387697666666666,1.8201585,-6.831136,-4.0975366,1.5331807
348,1747679355680,2.2753874842105266,-2.654000615789474,1.9990311210526315,-6.341114947368421,-4.19453154736842,1.4373069631578947
349,1747679355690,2.0655583,-2.528392466666667,2.1297859666666668,-5.570574333333333,-4.4068179999999995,1.3794276333333333
350,1747679355700,1.7832111999999998,-2.3460545666666666,2.200779522222222,-4.795417277777777,-4.693492444444444,1.4795624222222221
351,1747679355710,1.4034865578947369,-1.914866857894737,1.9972585894736843,-3.4010153105263154,-5.0139435789473685,2.1322513578947366
352,1747679355720,1.5169717111111112,-1.7146513444444444,1.755619066666667,-2.8318258,-4.802386,2.589212
353,1747679355730,1.9144595555555557,-1.548150011111111,1.411660988888889,-2.5719755555555555,-4.263717766666667,2.778947411111111
354,1747679355740,2.0442523157894734,-1.4602779947368423,1.2532949947368421,-2.6499203789473684,-3.5495425631578943,2.561945089473684
355,1747679355750,1.9038038736842104,-1.3205488210526317,1.2678613684210525,-2.8332017473684212,-3.1056639789473683,2.2220698894736843
356,1747679355760,1.438222577777778,-1.2092901111111112,1.4995758333333333,-2.9065717777777778,-3.1949032,2.0776486999999997
357,1747679355770,1.0084477263157894,-1.230453147368421,1.8469193421052632,-2.703653084210526,-3.5363107789473682,2.4555868894736843
358,1747679355780,0.9749990684210526,-1.1694902105263156,2.0913876842105266,-2.4250095789473685,-3.874560115789474,2.9179673684210528
359,1747679355790,1.4372949157894737,-0.9710845157894736,2.311373210526316,-2.0532535999999997,-4.214771742105263,3.339643557894737
360,1747679355800,2.929486642105263,-0.568158852631579,2.6768938842105263,-1.0721738315789475,-5.049153457894737,3.5488838
361,1747679355810,4.029619436842105,-0.4592579347368421,2.641184263157895,-0.54739133,-5.749031684210526,2.7511134736842107
362,1747679355820,3.954696561111111,-0.4486178844444444,2.390683,-0.5321287716666666,-6.205693444444444,2.088952388888889
363,1747679355830,2.8729319450000004,0.22643629549999997,2.250024885,-1.3394825049999999,-6.1904599,2.360997055
364,1747679355840,3.1699984,1.4471375,2.7264245,-2.3517027,-5.772131,4.1792955
365,1747679355850,4.988456168421053,1.6399170368421052,2.8813881210526318,-3.0352655631578944,-5.030259,4.749828468421053
366,1747679355860,6.528534978947369,1.9087653789473682,3.1406282631578946,-3.914612736842105,-3.6227093684210527,4.118968031578947
367,1747679355870,6.7810693,2.7299025,4.318654,-5.0819736,-1.6879102,2.6463811
368,1747679355880,6.788391273684209,3.0898226052631577,4.956028947368421,-5.462664842105263,-1.0576105705263157,2.388923752631579
369,1747679355890,8.65738132631579,2.3411063000000003,6.302479863157894,-5.745800868421053,0.4702017242105263,1.5039139631578946
370,1747679355900,8.947972666666665,0.38662734666666665,7.865131666666666,-5.187908055555556,2.508399911111111,-0.7617522888888888
371,1747679355910,6.710755789473684,-1.121783482631579,9.184256684210526,-2.9160681842105265,4.499645526315789,-3.4636345263157895
372,1747679355920,3.611064480555555,-1.7238442111111112,9.624919555555557,-0.04626498888888881,5.000525011111112,-4.070697677777777
373,1747679355930,0.5773784550000001,-1.6932285499999997,7.1585045,7.520140333333334,4.141922666666667,-0.46418862750000006
374,1747679355940,2.301000578947368,-1.6569881263157895,4.898482789473684,8.832143368421052,3.805261947368421,0.7027796251052632
375,1747679355950,3.8043930789473683,-1.5317482578947368,3.3430671578947373,9.725506842105263,3.698343110526316,1.5848179736842105
376,1747679355960,5.198268389473685,-1.1162344052631579,1.6096699263157894,8.983522105263157,4.400295921052631,0.8632420157894737
377,1747679355970,5.335220088888889,-0.7561571444444444,0.9542434888888889,7.511795177777777,5.393133777777778,-0.48241645555555557
378,1747679355980,5.135841052631579,-0.468403647368421,0.5711164484210527,6.166180531578948,6.183266736842105,-1.713238194736842
379,1747679355990,4.559497677777778,-0.43253722111111115,0.49427696000000004,5.194314333333334,6.671331944444444,-2.6180925444444445
380,1747679356000,4.092688952631579,-0.46544927315789475,0.5539296789473684,4.2059271473684205,7.109093052631579,-3.4941909
381,1747679356010,3.90998,-0.4843315999999999,0.5938523,3.693591442105263,7.206536684210526,-3.8797042789473686
382,1747679356020,3.0845243333333334,-0.7094066222222222,0.8951274111111113,3.368393277777778,7.013518355555556,-4.034715644444444
383,1747679356030,2.3183160105263156,-1.025316602105263,1.1612211421052632,3.3472125315789474,6.654169305263157,-3.8874973263157897
384,1747679356040,2.225188847368421,-1.4182488105263156,1.2197177736842104,3.535203505263158,6.1832664842105265,-3.402017494736842
385,1747679356050,2.2982518789473687,-1.6039892210526314,1.2455622052631579,3.716410442105263,6.130339894736842,-3.161380105263158
386,1747679356060,2.4026055684210528,-1.7711041789473683,1.2627232894736842,4.0262340105263155,6.111781784210526,-2.849650352631579
387,1747679356070,2.6016791578947367,-1.914429989473684,1.2837636315789474,4.3347119473684215,6.189826426315789,-2.6969251421052634
388,1747679356080,2.6785215,-1.9629388777777779,1.2762906333333333,4.443836,6.2554056,-2.672835216666667
389,1747679356090,2.9074957736842104,-2.257497352631579,1.0582547315789474,5.014518389473684,6.779758189473684,-2.7379097736842106
390,1747679356100,2.846918305263158,-2.3445874315789474,0.9542092210526316,5.164159747368421,6.8141272105263155,-2.7778850894736844
391,1747679356110,2.6544469368421053,-2.3742851789473685,0.8141460505263158,5.491476263157895,6.383312042105263,-2.7865193631578946
392,1747679356120,2.542206263157895,-2.3803481368421053,0.7493809389473685,5.556569394736843,6.1711564368421055,-2.765830878947368
393,1747679356130,2.3801266368421055,-2.371562147368421,0.6652197315789474,5.686082989473684,5.5192711368421055,-2.6751714263157895
394,1747679356140,2.1737840166666667,-2.32837395,0.5630468388888888,5.7294318111111115,4.87245665,-2.5484953666666668
395,1747679356150,1.9430071315789474,-2.2542862,0.4737504289473684,5.661750052631579,4.292255605263158,-2.344491147368421
396,1747679356160,1.8516013000000002,-2.2111779210526317,0.4471353542105263,5.560830263157895,4.031546268421052,-2.144558
397,1747679356170,1.695790052631579,-2.0746341894736844,0.4153822063157895,5.389042705263158,3.868224494736842,-1.8403971631578948
398,1747679356180,1.6336581333333333,-1.9482682500000001,0.3736313,5.162237755555555,3.870457922222222,-1.4985595944444445
399,1747679356190,1.6328489631578946,-1.8966266999999999,0.35621759578947365,5.031001710526316,4.009680336842106,-1.3467315631578947
400,1747679356200,1.6784233631578949,-1.8550085631578948,0.3376692589473684,4.859886836842105,4.213650336842105,-1.171019089473684
401,1747679356210,1.6934521,-1.8490998,0.33368728,4.8301716,4.2509346,-1.1438268
402,1747679356220,1.6934521,-1.8490998000000003,0.33368728,4.8301716,4.2509346,-1.1438268
403,1747679356230,1.6934521,-1.8490998000000003,0.33368728,4.8301716,4.2509346,-1.1438268
404,1747679356240,1.6934521,-1.8490998000000003,0.33368728,4.8301716,4.2509346,-1.1438268
405,1747679356250,1.3987665944444445,-1.6029273055555557,-0.029307202777777788,4.2770630333333335,2.3957779111111113,-1.3855825
406,1747679356260,1.1902575368421053,-1.4833991894736842,-0.21685449368421056,3.7725330789473683,1.4592149789473683,-1.4805062210526316
407,1747679356270,0.9954227894736841,-1.3191615842105262,-0.36305762736842107,3.0815694315789472,1.761469589473684,-1.3383775736842105
408,1747679356280,0.8587507442105262,-1.1100172789473683,-0.47311463,2.4329360315789472,2.5042385578947366,-1.2104338315789474
409,1747679356290,0.8505041463157895,-0.928746947368421,-0.653562804736842,1.7646232578947367,3.729796368421052,-1.1056455631578945
410,1747679356300,0.7674219710526315,-0.8721771315789475,-1.0141766789473683,1.0481493378947369,4.963652057894737,-1.164459252631579
411,1747679356310,0.4775590333333333,-0.7978638333333333,-1.3784556666666665,0.5324838716666667,5.367449188888888,-1.140216788888889
412,1747679356320,0.3350296,-0.76158065,-1.5514109,0.37950018,5.4461603,-1.1257174
413,1747679356330,0.13514671,-0.40306054799999996,-1.9975475999999999,-0.1453196924444444,5.179666805555556,-1.0204930038888889
414,1747679356340,-0.06473618,-0.044540446,-2.4436843,-0.7422224,4.8741136,-0.9105340999999999
415,1747679356350,-0.4903976768421053,0.2453481762105263,-2.4075381052631584,-1.110355089473684,4.635494542105263,-0.6778020273684211
416,1747679356360,-1.3468073421052633,0.8280027421052631,-2.1317790842105264,-1.7414397000000001,4.2264333,-0.27883276
417,1747679356370,-1.7321096263157894,1.2086806947368423,-1.3670321157894738,-0.43167706263157896,3.4938685315789475,0.9319235242105264
418,1747679356380,-1.5478593105263159,1.5665970315789473,-0.8974145347368422,1.3735032363157895,2.475812910526316,1.833024394736842
419,1747679356390,-0.8983272944444445,1.6258416666666666,-0.9503250622222222,4.7869694,0.8706163244444444,2.687216388888889
420,1747679356400,-0.008782860526315798,1.3463546842105263,-2.033642342105263,6.863367631578948,0.07011116947368419,2.6836093736842104
421,1747679356410,0.5235188631578948,0.9546299199999999,-3.2806976,8.524842657894737,-0.8169731210526315,2.3204105894736844
422,1747679356420,0.6781741,0.78037304,-3.7942967,8.890957,-1.0476868,2.1979053
423,1747679356430,0.5685110395,0.6299524249999999,-4.456098683333334,8.744305666666667,-1.4038399333333331,2.0185858999999997
424,1747679356440,-0.0059312331578947365,-0.255097617368421,-8.240480736842105,6.707614894736842,-3.1227082105263158,1.0910402263157895
425,1747679356450,-0.07205790200000001,-0.366451945,-8.57171775,3.396267777777778,-2.7036983277777775,1.1176687444444444
426,1747679356460,-0.0631690772631579,-0.3476595410526316,-8.19940197368421,1.009071,-2.1789968,1.2263848
427,1747679356470,0.57786655,-0.683970435,-5.7357726499999995,-4.651725377777778,-1.376853288888889,1.4111488611111112
428,1747679356480,1.0148204937499998,-1.066438625,-3.59831889375,-6.408626243750001,-1.63524621875,1.21193709375
429,1747679356490,1.2195186315789472,-1.3211910684210526,-1.7075817631578944,-6.895781157894738,-2.5471855105263157,0.917794714736842
430,1747679356500,1.3284239833333333,-1.4486560055555555,-0.7307547888888889,-6.594174177777777,-3.433403816666667,0.74376113
431,1747679356510,1.4219320578947368,-1.5665071,-0.013696099999999994,-5.968048389473685,-4.31899912631579,0.6612904105263158
432,1747679356520,1.5331965315789473,-1.6565256631578948,0.22291096736842106,-5.154467357894737,-5.214437463157895,0.63292077
433,1747679356530,1.6065679,-1.7124275999999998,0.33759218,-4.680369,-5.702889,0.62664133
434,1747679356540,1.6100388777777779,-1.8330461777777778,0.34561895333333337,-4.355581888888889,-5.775800333333333,0.6787208722222222
435,1747679356550,1.598538315,-1.989188665,0.34625622,-3.7960935499999997,-5.480248855,0.8563121685
436,1747679356560,1.553928542105263,-2.0238189631578947,0.3142654542105263,-3.6149931736842107,-4.818495936842106,1.0192751084210527
437,1747679356570,1.4414224333333334,-2.0832321166666663,0.27787951166666663,-3.6039201333333333,-4.312542166666666,1.1427615500000001
438,1747679356580,1.3467623842105265,-2.073606747368421,0.3305530705263158,-3.687150757894737,-4.066475921052631,1.3051581789473685
439,1747679356590,1.358682757894737,-2.0629452105263155,0.349512467368421,-3.7639057736842103,-3.990393631578948,1.4211597947368422
440,1747679356600,1.40147835,-2.0643580833333335,0.381197095,-3.9091180555555556,-4.015748088888889,1.5351928888888888
441,1747679356610,1.4088814,-2.0653343,0.38640365,-3.9432065,-4.026164,1.5576818
442,1747679356620,1.4088814,-2.0653343,0.38640365,-3.9432065,-4.026164,1.5576818
443,1747679356630,1.4580011473684211,-2.1331566157894732,0.38825333842105264,-4.20021542631579,-4.152649894736842,1.6141968315789472
444,1747679356640,1.5679297052631578,-2.2812352,0.41283888842105265,-4.6565968,-4.38084055263158,1.7091734947368422
445,1747679356650,1.6295862526315787,-2.353167831578947,0.47634516631578944,-4.874583242105262,-4.490282447368422,1.7450560631578949
446,1747679356660,1.6852312894736845,-2.397457794736842,0.5673143078947368,-5.122004689473684,-4.608470584210527,1.7874423315789472
447,1747679356670,1.7793346736842104,-2.386205410526316,0.7878906578947368,-5.423754778947368,-4.691561221052631,1.8281466
448,1747679356680,1.8021931777777778,-2.3586911,0.9545146666666666,-5.514588866666667,-4.635613266666667,1.802810722222222
449,1747679356690,1.733708789473684,-2.310753310526316,1.088594852631579,-5.479653178947369,-4.5371541578947365,1.7682675473684213
450,1747679356700,1.6371136,-2.2183455684210527,1.2070268578947367,-5.316611557894737,-4.421096368421052,1.7908062315789475
451,1747679356710,1.5376666631578948,-2.0714230842105263,1.339742657894737,-5.02226254736842,-4.408145131578947,1.8949218157894738
452,1747679356720,1.536035238888889,-1.99002915,1.3635818,-4.950946,-4.4085937,1.9209366999999997
453,1747679356730,1.5619866666666669,-1.9569729333333337,1.3544974666666667,-4.8128166666666665,-4.407883466666666,1.9926644
454,1747679356740,1.6877490315789474,-1.9555344210526313,1.3199097947368421,-4.420836736842106,-4.338734705263157,2.1966717157894737
455,1747679356750,1.841703472222222,-1.9457192777777779,1.2526170388888889,-4.186855833333333,-4.099134377777777,2.3261510111111114
456,1747679356760,1.8833288333333331,-1.8856541111111111,1.2234657333333334,-4.155312333333334,-3.8212780555555557,2.374975555555556
457,1747679356770,1.85116211,-1.78749976,1.2626667299999998,-4.175434,-3.590471,2.39924
458,1747679356780,1.686101811764706,-1.5017919294117645,1.5292805705882353,-4.2149741647058825,-3.1753316,2.438592029411765
459,1747679356790,1.5168575210526316,-1.2907481105263159,1.8498993263157895,-4.004038747368421,-2.9444166631578943,2.4719583
460,1747679356800,1.1692429578947368,-1.1565680210526317,2.2684960999999997,-3.478471315789474,-2.863849142105263,2.614255142105263
461,1747679356810,0.8826940166666666,-1.0040921999999999,2.4240376333333336,-2.7028180333333336,-2.8992925333333335,3.173686716666667
462,1747679356820,0.890555247368421,-0.9271798736842104,2.3600819000000004,-2.558497,-2.9076371,3.2823436
463,1747679356830,1.359119547368421,-0.9219904526315789,1.8805221473684213,-1.663114852631579,-3.99936417368421,4.761602294736842
464,1747679356840,1.7552115421052632,-0.9280533999999999,1.6814484578947368,-1.5506243842105263,-4.7820525789473685,5.290421684210526
465,1747679356850,2.967919111111111,-0.8214560666666667,1.256494822222222,-1.878311322222222,-6.07336411111111,5.4642402444444444
466,1747679356860,4.25895325882353,-0.43744392117647063,1.0414245882352942,-2.8434236999999998,-8.309025411764706,5.4051005941176475
467,1747679356870,4.929831115789473,-0.13348005368421054,1.0806822947368422,-3.7257806736842105,-9.35679942105263,5.201051531578948
468,1747679356880,6.794377026315789,0.1106542705263158,1.8118520421052633,-6.437997821052631,-8.107356894736842,4.200488631578947
469,1747679356890,7.6841842105263165,-0.44692662921052634,3.278687510526316,-8.542229736842106,-4.205240252631579,2.240796007894737
470,1747679356900,6.477028888888889,-1.3163498999999999,6.435823,-9.71083988888889,0.34455363333333333,-0.09075453611111109
471,1747679356910,4.5349724894736845,-0.977892447368421,8.661511147368422,-8.782923736842106,1.7034967631578948,-0.9443422052631579
472,1747679356920,3.065189627777778,-0.27335767805555555,10.176162944444444,-4.342206777777778,-0.2047081622222222,0.04855826444444444
473,1747679356930,3.3354179210526316,-0.10527216894736842,10.069489947368421,-2.459805771578947,-0.5956225315789474,0.5156296394736842
474,1747679356940,4.233034605263159,-0.13461042315789476,9.371897315789473,0.06502314000000002,-0.06601830210526316,0.7034524342105263
475,1747679356950,4.6845151052631575,-0.09384001368421054,8.570593421052632,1.6931944842105267,1.244872694736842,0.32836751210526316
476,1747679356960,4.4022310000000004,-0.17761587210526317,7.645103052631579,2.8896537473684214,2.5215070789473684,-0.18520169842105264
477,1747679356970,3.9305081666666672,-0.3905593855555556,6.778913666666667,4.068271338888889,3.3538050555555556,-0.5911917472222222
478,1747679356980,3.5008376,-0.7433662394736842,5.632272652631579,5.432942473684211,3.4625834315789477,-0.8710633052631579
479,1747679356990,3.414338463157894,-0.948682605263158,4.783159247368421,6.280668210526316,3.2539038,-1.0702115315789473
480,1747679357000,3.2988607,-1.0788550666666665,3.2900341,6.69267872,3.17160938,-1.4067338999999999
481,1747679357010,3.250588884210526,-1.1123807736842106,2.6802590789473686,6.545862726315789,3.3937897315789476,-1.556756705263158
482,1747679357020,3.257268410526316,-1.1613206684210526,2.304154105263158,6.222919557894737,3.820175473684211,-1.773621894736842
483,1747679357030,3.1714885578947367,-1.319469805263158,1.7221931684210525,5.729926957894737,4.512540726315789,-2.1248226210526315
484,1747679357040,3.040853784210526,-1.3698740210526317,1.5478335368421052,5.4581167052631585,4.9397678421052635,-2.323185842105263
485,1747679357050,2.8697054894736844,-1.4188910526315788,1.3778669263157897,5.283133021052632,5.311769015789474,-2.4342535789473683
486,1747679357060,2.7918725666666666,-1.4693466666666666,1.2905544000000002,5.172831333333334,5.685134433333333,-2.5173067333333337
487,1747679357070,2.757656664705882,-1.5718794,1.1993439235294117,5.2253217,5.8732682647058825,-2.6102562176470587
488,1747679357080,2.70092055,-1.72975575,1.08416325,5.3553465,5.942573,-2.70816645
489,1747679357090,2.6108634499999996,-1.9210966500000002,0.9784865,5.6104772,5.852558350000001,-2.8141602000000003
490,1747679357100,2.5269426142857143,-2.0709129714285717,0.8902772285714287,5.919936514285714,5.646125614285714,-2.9068382285714285
491,1747679357110,2.3480136,-2.2971888,0.6509617,6.3716083,5.1809096,-2.9963202
492,1747679357120,2.3480136,-2.2971888,0.6509617,6.482395633333333,4.983480933333333,-3.0268578666666666
493,1747679357130,2.1132307,-2.4265392,0.2638869,6.5473766,4.623777,-3.071954
494,1747679357140,1.97594845,-2.4280035,0.08267439224999999,6.39557645,4.483161975,-3.03600125
495,1747679357150,1.7858278374999998,-2.3601555875,-0.16394545087499998,5.928525025,4.4143194249999995,-2.89418815625
496,1747679357160,1.6766788,-2.2832997,-0.22192014363636361,5.523851945454545,4.515216845454545,-2.7519875363636364
497,1747679357170,1.59735465,-2.213111075,-0.209096045,5.1934266,4.620314725,-2.626141175
498,1747679357180,1.522154525,-2.1321146375,-0.10735467834375,4.7054694,4.8303713375,-2.39531190625
499,1747679357190,1.4503712666666668,-2.0380000333333337,0.07108167553333333,4.300143833333333,5.006502538888889,-2.1268283944444444
500,1747679357200,1.426482317647059,-1.9542166529411764,0.2884936188235294,4.039495447058823,5.004765323529411,-1.8231517529411765
501,1747679357210,1.4341239214285715,-1.9243391714285714,0.3996176,4.010222921428571,4.8260248571428574,-1.6460225428571427
502,1747679357220,1.519032688888889,-1.8546316722222222,0.4811249716666667,4.0621166,4.559861,-1.5070817
503,1747679357230,1.54673315,-1.8268498833333335,0.4747116875,4.2634514,3.87516275,-1.38244595
504,1747679357240,1.4979136199999998,-1.7868163799999999,0.41246894,4.44220244,3.2088936000000006,-1.2548273399999998
505,1747679357250,1.41820453,-1.72394724,0.27565044699999997,4.54766358,2.6085109799999997,-1.0730934
506,1747679357260,1.43338482,-1.6445797800000002,0.132193604,4.55618576,2.17580092,-0.8853939000000001
507,1747679357270,1.51665718,-1.54246616,-0.042160890000000006,4.4275020000000005,1.79017552,-0.6751108219999999
508,1747679357280,1.6482528600000002,-1.4556794,-0.19679555999999998,4.1795087,1.67310306,-0.622912921
509,1747679357290,1.7962003,-1.33926415,-0.386037555,3.9736997888888888,1.7324737277777777,-0.7054116777777778
510,1747679357300,1.8456411842105265,-1.1814875842105264,-0.6599853878947368,3.442357515789474,2.1825289368421052,-1.0324227
511,1747679357310,1.499996222222222,-0.9927842222222222,-0.8982594544444444,2.630639011111111,3.177148822222222,-1.4871968333333332
512,1747679357320,1.000252594736842,-0.7906619710526316,-0.9454295621052631,2.1762636157894737,3.6647030842105264,-1.4782635631578946
513,1747679357330,0.6682319421052632,-0.5510234394736843,-1.0723393789473683,1.9434193526315788,3.6333059263157894,-1.1829612789473682
514,1747679357340,0.7405242494736841,-0.2516294263157895,-1.5393878736842106,1.6589378789473683,3.1434528894736844,-0.7824781789473685
515,1747679357350,1.01342739,-0.15729490000000002,-1.878284866666667,1.286986488888889,3.0541700222222223,-0.8802332722222223
516,1747679357360,1.0361161157894738,-0.06843237052631579,-1.9129239315789475,1.00256728,3.30133612631579,-1.2858432868421052
517,1747679357370,0.7347439578947368,0.06405218394736842,-1.8183838842105264,1.0547090589473684,3.655620368421053,-1.9271320210526317
518,1747679357380,0.35463123684210524,0.10764851368421054,-1.7629442631578949,1.1496857,3.7768922000000003,-2.1771326
519,1747679357390,0.16272517,0.101405784,-1.7573951000000003,1.7632776105263157,3.157245231578947,-2.2038763368421055
520,1747679357400,-0.19642432210526312,0.14649215663157894,-2.052704415789474,2.635392215789474,2.091701310526316,-2.1295882315789476
521,1747679357410,-1.2374697894736841,0.28460287578947363,-3.206144778947368,3.2468536,0.6493903277894738,-1.6868870842105264
522,1747679357420,-1.4881808631578948,0.31689548842105264,-4.189875031578947,3.344241115789474,0.02486549547368421,-1.4204590105263157
523,1747679357430,-1.9924630666666667,0.4063146266666667,-4.692752933333334,2.935067666666667,0.5928192166666667,-1.3845764
524,1747679357440,-2.798691305263158,0.39476260105263156,-5.375376884210526,2.48737657368421,0.7294532894736843,-1.1734300210526316
525,1747679357450,-3.588075042105263,0.18944622368421052,-6.004992994736842,1.7479714736842105,-0.22154680000000002,-0.3767809536842105
526,1747679357460,-3.608807063157895,0.0969613732631579,-6.055859952631579,0.9667968263157896,-1.3785912947368422,0.5988323884210526
527,1747679357470,-2.9824019789473684,-0.027944556947368415,-5.746344084210527,0.009741556842105264,-2.6284258736842108,1.7449439631578947
528,1747679357480,-1.667216,-0.20041166333333332,-5.158739866666667,-0.9024854055555556,-3.4338182222222224,2.441968977777778
529,1747679357490,-1.114850247368421,-0.27580394052631574,-4.923665657894737,-1.2492878789473685,-3.6823641842105266,2.622721147368421
530,1747679357500,-0.34280728736842103,-0.5015183857894737,-4.491350289473684,-1.9940192947368423,-3.964715136842105,2.644587063157895
531,1747679357510,0.32950619284210525,-0.7991911526315789,-3.903557642105263,-3.0366882105263158,-4.145921989473685,2.545685757894737
532,1747679357520,0.6869059222222222,-1.0383957666666666,-3.3778811555555555,-3.8675728555555557,-4.165950011111111,2.430961266666667
533,1747679357530,0.9556029631578946,-1.3516339210526316,-2.4369790736842107,-4.487444063157894,-4.154331931578947,2.3773741789473686
534,1747679357540,1.1899749473684211,-1.6483563263157894,-1.2841553684210527,-4.901102631578947,-4.243590015789474,2.631018978947368
535,1747679357550,1.423190905263158,-1.7596720210526315,-0.6794071736842104,-4.7242128,-4.382635052631579,2.9933768210526317
536,1747679357560,1.745551957894737,-1.8887398526315788,-0.2499178336842105,-4.2641871947368415,-4.457651884210527,3.4239676578947367
537,1747679357570,2.019076063157895,-2.005964347368421,-0.07226984947368421,-3.9398986210526314,-4.422217621052631,3.6543448315789475
538,1747679357580,2.3571852210526316,-2.106053521052632,-0.008403918973684211,-3.6669107894736843,-4.437748263157895,3.7304271421052637
539,1747679357590,2.6102854315789474,-2.159283689473684,0.007215745594736843,-3.5146901842105267,-4.582960631578947,3.5678343000000003
540,1747679357600,2.9200068736842106,-2.238409584210526,0.014280560263157894,-3.4971973947368418,-4.763214210526316,3.3125073736842103
541,1747679357610,2.9742646,-2.2659495,0.015924735,-3.593744052631579,-5.065244684210526,2.904343094736842
542,1747679357620,2.862486422222222,-2.3356414111111112,0.0017151799444444444,-3.720566555555555,-5.194758422222222,2.756103222222222
543,1747679357630,2.6344086736842107,-2.5312784052631576,-0.0975233447368421,-4.394429763157895,-5.278745936842105,2.716071884210526
544,1747679357640,2.733495789473684,-2.7257535210526314,-0.15455567210526314,-5.173642315789474,-5.086381389473684,2.7209496368421053
545,1747679357650,2.8294746210526314,-2.926291342105263,-0.11540375421052632,-5.965973684210526,-4.778800789473684,2.5815683210526315
546,1747679357660,2.831812352631579,-3.0742927684210524,0.057594299473684205,-6.703977431578947,-4.359984105263158,2.382364
547,1747679357670,2.7453388333333333,-3.2065462,0.37485158999999996,-7.312280433333334,-3.9256740999999997,2.1464173666666664
548,1747679357680,2.560292152631579,-3.2533281578947366,0.77440325,-7.671460947368421,-3.6256808210526317,1.9443723789473681
549,1747679357690,2.3818991210526317,-3.2072911684210523,1.1102260315789472,-7.692093305263158,-3.556102242105263,1.847377357894737
550,1747679357700,2.230622155555556,-3.0869309833333336,1.454181227777778,-7.433187733333333,-3.699246405555556,1.8433499444444443
551,1747679357710,2.1516890421052635,-2.9261372789473685,1.6981214736842105,-6.909012789473684,-4.0774088157894735,1.8867921684210525
552,1747679357720,2.1223251210526315,-2.734924842105263,1.8109529578947368,-5.898806368421052,-4.874225947368421,1.9651170315789475
553,1747679357730,2.1217871,-2.57573,1.7671072235294119,-5.545363,-5.161735,1.9848523999999999
554,1747679357740,2.1039307894736843,-2.363212747368421,1.6102093842105263,-4.361686947368421,-6.0855986842105265,2.0021210315789477
555,1747679357750,2.0297117578947366,-2.261556394736842,1.5513530473684212,-3.5456950052631577,-6.5835253157894735,2.049889694736842
556,1747679357760,1.8915182555555556,-2.1537375,1.4842274111111111,-3.0589192,-6.5424350222222225,2.2287977444444445
557,1747679357770,1.844587947368421,-2.111859357894737,1.396441005263158,-2.6549663999999997,-6.062331357894737,2.5743918263157894
558,1747679357780,1.8922583588235293,-2.028324005882353,1.1977073529411766,-2.4161824588235294,-5.275906176470588,2.9339396764705885
559,1747679357790,1.9759729266666668,-1.9646202466666665,1.0266796666666667,-2.3875666,-4.623847946666667,3.106930173333333
560,1747679357800,2.0861789578947367,-1.8859909578947367,0.8105494052631579,-2.5211566894736843,-3.7778453842105257,3.196449810526316
561,1747679357810,2.1394533,-1.8299277444444444,0.6851296877777778,-2.832979894444444,-3.1814690277777777,3.1120790333333335
562,1747679357820,2.1372398125,-1.7458635875,0.6480635225,-3.3754876,-2.5598285499999998,2.88393495
563,1747679357830,1.9850878315789473,-1.7122221736842107,0.8580763684210526,-3.6638831368421054,-2.320340384210526,2.7467402052631575
564,1747679357840,1.8275039052631576,-1.7381692894736842,1.1616835473684208,-3.8532197421052636,-2.1080726631578948,2.7013824315789474
565,1747679357850,1.9053752888888889,-1.6095711722222223,1.7503852555555557,-3.537932977777778,-2.2772377222222224,2.968919388888889
566,1747679357860,2.000557483333333,-1.2148762833333333,1.8790577000000002,-2.792070788888889,-3.2364484944444443,2.9974447388888894
567,1747679357870,1.9480937578947368,-0.7431093368421052,1.6944220631578948,-2.474544410526316,-4.235852536842105,3.0467520421052634
568,1747679357880,2.052344705263158,-0.41345223157894734,1.5840053947368422,-2.4706967368421053,-5.515851026315789,3.3188989684210526
569,1747679357890,2.493184823529412,-0.20191429529411764,1.500970005882353,-2.918932070588235,-7.0055181705882354,4.136810329411765
570,1747679357900,3.580451778947369,-0.22103237894736844,1.5919693052631578,-3.464174263157895,-7.455023105263159,4.694883168421053
571,1747679357910,5.370804221052632,-0.4218786589473684,1.8809844736842103,-4.461373289473684,-7.407871431578947,5.080620831578948
572,1747679357920,7.014979094736843,-0.5484544652631579,2.387596015789473,-5.4089533,-6.662467331578948,4.8064554
573,1747679357930,7.931419444444444,-0.3636588822222222,3.0423974388888886,-6.207305944444444,-5.369757388888889,4.055724722222222
574,1747679357940,8.101161842105261,0.2759195715789473,5.176245526315789,-7.089714863157894,-1.7906241473684212,2.0392369557894736
575,1747679357950,5.197703463157896,0.6445744536842105,8.163865315789474,-6.094086068421053,3.974414631578947,-0.5861893452631579
576,1747679357960,3.2847055333333333,0.8321673999999999,9.790038222222222,-2.9652945222222225,4.332841555555556,-0.3415649377777778
577,1747679357970,3.433400694736842,0.40665718947368423,9.871906947368421,0.8991806631578947,2.6826982526315786,0.4704400526315789
578,1747679357980,4.54791734117647,-0.26551273,8.698936117647058,3.673796623529412,1.840994888235294,0.7032149970588235
579,1747679357990,5.031770294736842,-0.5340935868421053,7.939436021052631,5.659002831578948,1.500087447368421,0.6326965210526316
580,1747679358000,5.632330884210527,-0.8824532394736843,6.251895663157894,7.652447678947368,1.6579706736842106,0.054650822631578944
581,1747679358010,5.514087133333334,-1.1035862333333333,3.721852566666667,8.611147055555556,2.0244151777777777,-1.05351608
582,1747679358020,5.24610374736842,-0.9864472894736842,1.9796606842105262,7.571207073684211,2.3625585578947366,-1.7908904263157892
583,1747679358030,5.030511421052632,-0.7441883547368421,0.734660452631579,6.112917084210526,2.9519295894736843,-2.325092121052631
584,1747679358040,4.9854592222222225,-0.6690558444444444,0.6123464111111111,4.264871666666667,4.1238131000000005,-2.8248127999999997
585,1747679358050,4.838157111111111,-0.7686854511111111,0.9461625333333333,2.81096445,5.30661085,-3.3430636
586,1747679358060,4.263349147368421,-1.1052132736842104,1.4947831842105264,1.431588147368421,6.724476578947368,-4.079300910526316
587,1747679358070,3.668526066666667,-1.3284442666666667,1.7073228166666665,1.241771927777778,7.013163166666667,-4.240133916666667
588,1747679358080,3.0696782631578947,-1.4758205894736842,1.8494369052631578,1.2941131631578948,7.141723694736842,-4.180612947368421
589,1747679358090,2.5061370947368418,-1.5625765,1.9838739263157894,1.6028713157894736,7.20855502631579,-3.826497063157895
590,1747679358100,2.215554915789474,-1.6101805421052633,2.0804435789473685,2.0316680315789473,7.3125582736842105,-3.3647332842105264
591,1747679358110,2.0604373473684214,-1.6967823631578949,2.1287926157894734,2.7425352894736843,7.389313468421053,-2.720585194736842
592,1747679358120,2.078163494736842,-1.7692288263157896,2.1069045210526314,3.3134043105263156,7.3761940263157895,-2.259382152631579
593,1747679358130,2.273486389473684,-1.8669544315789472,2.030784363157895,3.4868739999999994,7.3561783,-2.130261
594,1747679358140,2.492213147368421,-2.000800526315789,1.8801110947368422,4.434398210526315,7.0422055105263155,-1.8370331578947368
595,1747679358150,2.671479510526316,-2.151268294736842,1.6450453368421052,5.62070952631579,6.526505605263158,-1.583724652631579
596,1747679358160,2.7632363888888887,-2.285474133333333,1.4260331888888889,6.323671355555556,5.955474588888889,-1.7034453555555555
597,1747679358170,2.753174536842105,-2.4622486631578946,1.140694594736842,7.139439136842106,5.132748389473684,-2.041395663157895
598,1747679358180,2.6279345736842106,-2.5726137894736842,0.8622638631578947,7.623068694736842,4.534743315789473,-2.383625578947368
599,1747679358190,2.4656750157894733,-2.6494790526315786,0.5426773410526317,7.810779368421053,4.250597947368421,-2.6417558947368422
600,1747679358200,2.2793949894736842,-2.651020436842105,0.22938490631578945,7.836345699999999,4.209389,-2.683133
601,1747679358210,2.173294347368421,-2.6281561736842103,0.09967490368421052,7.6314786526315785,4.322419289473684,-2.8118055263157897
602,1747679358220,1.9547943999999997,-2.5430263294117648,-0.09803564470588236,7.130890458823529,4.5895632529411765,-2.9186812941176474
603,1747679358230,1.789225447368421,-2.4372263000000003,-0.18063127105263158,6.682272684210526,4.794331084210526,-2.8261583263157894
604,1747679358240,1.6331829842105263,-2.2984989631578947,-0.21752244999999998,6.11140352631579,4.9179014210526315,-2.596061410526316
605,1747679358250,1.4961769210526317,-2.1279672210526317,-0.21171645315789475,5.310605505263158,4.955241947368421,-2.182795242105263
606,1747679358260,1.5179622421052632,-2.014699036842105,-0.09405516842105263,4.8418894,4.930573,-1.9097514000000002
607,1747679358270,1.7004400315789474,-1.9312314789473681,0.18396458231578947,4.290755715789474,4.580157210526316,-1.5912936631578947
608,1747679358280,1.946089905263158,-1.8365887105263157,0.6338262894736842,3.6889377789473685,3.9435779315789468,-1.2608376263157894
609,1747679358290,1.970213,-1.8266466,0.6856178,3.676491,3.9057891000000002,-1.2556795
610,1747679358300,2.0281188421052634,-1.824848189473684,0.9931299368421053,4.077591000000001,3.539226363157895,-1.3082699105263158
611,1747679358310,2.0108350833333333,-1.8213585666666665,1.1163788666666667,4.36080475,3.385230322222222,-1.3202463666666668
612,1747679358320,1.7844471263157895,-1.8170383421052634,1.055454494736842,4.7247105,3.3252203,-1.3025512
613,1747679358330,1.5836264722222222,-1.8084778277777778,0.8615288583333334,5.2057955,3.0387828055555555,-1.0760050694444443
614,1747679358340,1.4735694157894739,-1.7834612157894736,0.5703200247368422,5.687708805263158,2.4482281684210525,-0.6863801684210525
615,1747679358350,1.4846676263157896,-1.731207247368421,0.026611870000000006,5.7803866157894745,1.4291072736842105,-0.23588579489473685
616,1747679358360,1.6197983105263158,-1.5617288,-0.636812792631579,5.4599106684210525,0.5091679842105263,0.13123767594736843
617,1747679358370,1.7812266647058823,-1.3798207823529414,-1.0557162764705883,4.965146988235294,0.18049951705882353,0.3693488305882353
618,1747679358380,2.615134225,-1.062991325,-1.845865925,3.2290805249999996,1.1600721075,0.7174550625
619,1747679358390,3.486622033333333,-0.7580825166666667,-2.27723715,1.4189016166666668,3.922715172222222,-0.30871932
620,1747679358400,3.3806504875,-0.4023588875,-2.75406411875,0.43342914375,5.2820431375000005,-1.8202026431249998
621,1747679358410,2.069120563157895,-0.09581815684210528,-3.322341557894737,-0.7804037100000001,6.184668157894737,-3.6254425578947367
622,1747679358420,0.7097659283333333,0.02756490777777778,-3.2154202499999998,-1.4796807472222224,5.8524400666666665,-4.3216265555555555
623,1747679358430,-0.5546810825,0.042710016,-2.55253365,-1.7822027125000002,4.525772425,-4.433361125
624,1747679358440,-0.8900606947368421,0.02346160754736842,-2.1412843789473683,-1.6397070578947368,3.8443961894736844,-4.276150536842105
625,1747679358450,-0.979642592631579,0.0045022141210526315,-1.3922085105263158,-0.7241690173684211,2.3820696789473685,-3.8712940631578947
626,1747679358460,-1.3318813929411764,0.004701691358823529,-1.1093514176470587,0.6601658270588234,1.9510930294117648,-3.7619941882352945
627,1747679358470,-2.2885857789473683,0.017141809868421055,-1.3815470578947369,2.217752742105263,1.9222682368421053,-3.5758797894736842
628,1747679358480,-3.24119006,0.08246694400000001,-2.1225048799999997,3.3288602,1.7060197,-3.029698533333333
629,1747679358490,-3.8521192315789476,-0.08173989999999999,-3.7963520105263155,4.46484247368421,1.3461848368421052,-1.823633305263158
630,1747679358500,-4.080967894736842,-0.17355681473684212,-4.9269793368421055,4.3206953684210525,0.9916202736842105,-0.5315805815789474
631,1747679358510,-3.8569586375,-0.176575428125,-6.1298335,3.3623049,0.5557347225,0.26944514062499997
632,1747679358520,-3.3259574105263154,-0.1594271947368421,-6.556074789473684,2.0230337157894738,0.13262532315789474,0.8982835526315789
633,1747679358530,-2.7498024263157896,-0.14103298263157893,-6.3713104000000005,1.1954921,-0.08788425,1.1859047
634,1747679358540,-2.3681483,-0.12654369,-6.0010624,0.6211374527777778,-0.3799440416666666,1.2802988944444444
635,1747679358550,-1.874202294736842,-0.13789876842105264,-5.158602615789474,-0.8721846299999999,-1.1392995,1.5257238
636,1747679358560,-1.583594342105263,-0.20127657842105262,-4.705221410526316,-0.9212077799999999,-1.655111342105263,1.621317194736842
637,1747679358570,-0.8001962368421053,-0.43896265,-3.6385115894736844,-1.0499574631578947,-3.533339394736842,2.0645790263157893
638,1747679358580,-0.3003670289473684,-0.686231194736842,-3.3898300210526315,-1.1404067631578947,-4.278911894736842,2.4468966105263155
639,1747679358590,0.17284712894736842,-0.9482716157894737,-3.1285602315789474,-1.5378482368421054,-4.632130789473685,2.8965500315789474
640,1747679358600,0.6118932631578947,-1.2163749263157895,-2.782409994736842,-2.115697736842105,-4.597706031578947,3.304265652631579
641,1747679358610,1.2805073315789475,-1.579711847368421,-2.3513792105263156,-2.9466944526315793,-4.430851978947368,3.5912700105263156
642,1747679358620,1.5609933684210526,-1.7262490000000001,-2.1983424631578945,-3.286443457894737,-4.453390594736843,3.587962110526316
643,1747679358630,2.1145323333333335,-2.0710291333333335,-1.7652050666666665,-4.1157793666666675,-4.7384701,3.3245989666666667
644,1747679358640,2.404712210526316,-2.344690205263158,-1.2883685789473684,-4.766711431578948,-5.104266984210526,2.9449354210526315
645,1747679358650,2.4600490105263155,-2.430007457894737,-1.1058651263157895,-5.018730384210526,-5.291865368421052,2.8247288210526316
646,1747679358660,2.5481408111111112,-2.60483655,-0.7028509555555555,-5.207852161111111,-5.426393683333333,2.7340879333333334
647,1747679358670,2.595146115,-2.773320075,-0.1935984177,-5.33502692,-5.420061275,2.62784559
648,1747679358680,2.5672856333333334,-2.82969455,0.12721483666666666,-5.213237500000001,-5.188899066666667,2.6732494722222224
649,1747679358690,2.5849034947368423,-2.8774799157894737,0.24240986315789476,-5.099578210526316,-5.010579578947368,2.696672763157895
650,1747679358700,2.647484936842105,-2.9559122842105263,0.3088962010526316,-4.979876226315789,-4.847370057894737,2.679740610526316
651,1747679358710,2.909833557894737,-3.281561547368421,0.20269275052631577,-4.861687947368421,-5.052349194736841,2.284079431578947
652,1747679358720,2.925658852631579,-3.483641026315789,-0.009354455789473687,-5.026579536842105,-5.522242505263158,1.9558661368421049
653,1747679358730,2.565661394736842,-3.7800550947368423,-0.3436872010526316,-6.092179642105263,-6.585375884210526,1.7709586736842104
654,1747679358740,2.3809229842105264,-3.9128734736842103,-0.25849836842105267,-6.842013263157895,-6.8231537736842105,2.0185484105263156
655,1747679358750,2.2955415111111113,-3.981644794444444,-0.03323924055555556,-7.408686866666667,-6.612505716666666,2.3718983
656,1747679358760,2.239138542105263,-4.014426921052632,0.23596160684210524,-7.886644368421053,-6.223971142105263,2.740685
657,1747679358770,2.2519322631578946,-3.9985246473684213,0.7386167568421051,-8.221921947368422,-5.285417773684211,3.2071583684210525
658,1747679358780,2.2442252315789473,-3.8716406105263155,1.4478727684210526,-8.176339842105264,-4.296460584210526,3.588522873684211
659,1747679358790,2.205458647368421,-3.5898701578947367,1.9919662105263158,-7.379074052631578,-3.4655549894736843,3.869247763157895
660,1747679358800,2.162298994736842,-3.2437713263157892,2.311861052631579,-6.549289842105264,-3.3020650631578947,3.970728131578947
661,1747679358810,2.173320121052632,-2.7852263631578946,2.3182066263157894,-4.363088636842105,-3.6370061999999996,4.195722894736842
662,1747679358820,2.395523611111111,-2.6319812777777774,2.0644327444444444,-3.8547897,-3.752391,4.254929
663,1747679358830,2.8824734736842106,-2.433886631578947,1.3906864105263157,-1.6454328157894735,-5.937639421052631,4.066545842105263
664,1747679358840,3.1142449444444447,-2.274410222222222,0.7927861222222222,-0.9611340944444444,-7.108267472222222,3.8350379666666665
665,1747679358850,3.0674430684210527,-2.0796439578947368,0.23018131263157898,-0.9144587568421052,-7.626979231578947,3.593400621052632
666,1747679358860,2.8118852666666667,-1.8121657333333334,-0.04085925333333334,-1.34542798,-7.240419566666666,3.480127533333333
667,1747679358870,2.711171,-1.7168207,-0.078281365,-1.9749077473684211,-6.2855320894736835,3.584990710526316
668,1747679358880,2.4161328333333336,-1.3141262333333334,0.12455732666666666,-2.6924094666666667,-4.8647630444444445,3.8917927777777783
669,1747679358890,2.1978799526315793,-0.9582650747368422,0.33774633473684207,-3.147174168421053,-3.8690094105263158,4.148627105263158
670,1747679358900,2.548782968421053,-0.5381526610526316,0.8539916605263157,-4.018223368421053,-2.1498422631578946,4.753472736842106
671,1747679358910,3.405603926315789,-0.16382020263157895,1.076854405263158,-4.643196689473685,-2.103026694736842,4.666962263157894
672,1747679358920,4.155827266666666,0.08611153,1.2441834666666667,-4.974736666666667,-2.5031920333333333,4.358615133333334
673,1747679358930,4.741342105263159,0.47355456842105265,1.5083219736842104,-5.728308015789473,-3.687297915789473,3.398120905263158
674,1747679358940,5.077929733333334,0.3317416011111111,1.9506479444444444,-6.726740544444444,-4.649698444444444,2.4314348
675,1747679358950,5.292192,-0.054585323684210534,2.533028457894737,-7.201679836842106,-4.516633805263157,2.1720586684210526
676,1747679358960,6.087870221052632,-0.5891221157894737,4.605228768421052,-7.584950342105263,-3.268537284210526,1.9598468789473686
677,1747679358970,6.300251205263158,-0.6153775368421053,5.038134947368421,-7.403575284210525,-2.793037236842105,1.7721922578947367
678,1747679358980,6.822559077777778,-0.5559217333333334,6.444338611111111,-6.773197788888889,-2.0006243388888887,1.2096364666666666
679,1747679358990,6.640158605263158,-0.24335717894736844,7.606953036842106,-5.290148242105263,-1.581439947368421,0.2074320536842105
680,1747679359000,5.780434875,0.22422759999999997,8.6355385,-2.066827875,-1.5703318124999999,-1.27232426
681,1747679359010,5.3675415,0.14148255710526314,8.508911315789472,-0.1386665157894737,-1.3927762,-1.9044250578947368
682,1747679359020,4.966670952631579,-0.37602157236842104,7.4730810000000005,2.050954868421053,-0.43858025263157896,-2.5173441631578948
683,1747679359030,4.484653361111111,-1.0028176277777778,5.856105833333334,3.5844642611111115,0.7498272511111111,-2.8984936777777772
684,1747679359040,4.086297777777777,-1.2956863666666667,4.652795555555556,4.240844155555555,1.889481782222222,-2.853811611111111
685,1747679359050,3.97402066,-1.34517028,3.9942532,4.24773875,2.6333318,-2.6386579249999995
686,1747679359060,4.086821194117647,-1.402762,3.3252549529411763,4.010795882352942,3.77538845882353,-2.3510838823529414
687,1747679359070,4.259675794736842,-1.4827569105263156,2.7782930789473683,3.6475608210526316,4.8033018210526315,-2.308664636842105
688,1747679359080,4.308384331578947,-1.5306435368421052,2.482110442105263,3.6104448,4.9007454,-2.3092253
689,1747679359090,4.24409435,-1.60455435,2.19071895,3.2812783999999997,5.42751835,-2.6016401499999997
690,1747679359100,3.8614768473684213,-1.6874310736842106,1.9819727789473682,2.803423536842105,6.11845382631579,-3.142317505263158
691,1747679359110,3.466540905263158,-1.7323375789473685,1.8754096736842105,2.6660605473684207,6.297418147368421,-3.3577810789473683
692,1747679359120,2.784767688888889,-1.7892785777777778,1.7537750444444444,2.5872590499999997,6.5039673,-3.4346763499999997
693,1747679359130,2.1518173789473685,-1.798412852631579,1.7196499157894738,2.696168263157895,6.625070894736843,-3.1810594736842104
694,1747679359140,1.7843699263157895,-1.7706674210526314,1.7067790421052633,2.975659847368421,6.749931094736842,-2.6991677631578948
695,1747679359150,1.648952488888889,-1.7400875055555556,1.7338437166666667,3.2020938333333335,6.818219933333333,-2.399062433333333
696,1747679359160,1.6465419263157894,-1.7381435842105262,1.709938889473684,3.643468010526316,6.857690626315789,-1.9404758157894735
697,1747679359170,1.8327703263157893,-1.8110010736842104,1.6654690578947366,4.2074972736842104,6.771067757894737,-1.5547382368421052
698,1747679359180,2.0296816833333335,-1.8976670833333331,1.6107845944444443,4.642685500000001,6.6381902,-1.37072795
699,1747679359190,2.3019358399999996,-2.0427835799999996,1.5188292,5.441846,6.32521593,-1.20039229
700,1747679359200,2.430813489473684,-2.128198542105263,1.4432999421052632,5.917245121052631,6.084253263157894,-1.1944548684210528
701,1747679359210,2.578566566666667,-2.246262333333333,1.3050351333333332,6.438009566666667,5.7632536666666665,-1.2716584666666666
702,1747679359220,2.7070863,-2.4251005473684213,0.9611969736842106,7.172518236842106,5.1871331052631575,-1.5435249736842105
703,1747679359230,2.6991223842105265,-2.500398589473684,0.7020338815789473,7.543902931578947,4.792537315789474,-1.7775466052631577
704,1747679359240,2.4716866684210523,-2.5219015315789473,0.057106185052631576,7.651213900000001,4.245159610526316,-2.174889989473684
705,1747679359250,2.3514820105263157,-2.4653313684210527,-0.1713314073157895,7.357201394736843,4.178776789473685,-2.303057884210526
706,1747679359260,2.244302242105263,-2.4025958105263157,-0.30188918210526317,6.942701552631578,4.267810505263158,-2.3566013947368423
707,1747679359270,1.9824159999999997,-2.246913,-0.45803446,6.1628165,4.5332294,-2.3390527
708,1747679359280,1.809392184210526,-2.160593842105263,-0.42450867842105267,6.1628165,4.5332294,-2.3390527
709,1747679359290,1.6168696789473684,-2.0285974842105263,-0.32529297,6.1628165,4.5332294,-2.3390527
710,1747679359300,1.524359152631579,-1.9559197894736842,-0.24611566842105265,5.475048578947368,4.816309052631579,-1.9868428631578947
711,1747679359310,1.4149187315789475,-1.8462738736842106,-0.09716368694736842,4.540644210526316,5.093838294736843,-1.3519457157894736
712,1747679359320,1.3900620111111113,-1.7779435666666668,-0.02084655577777778,4.421465588888889,5.0327197111111115,-1.1602792555555557
713,1747679359330,1.5128242,-1.6626913684210527,0.04914221342105263,4.242426594736842,4.594678515789473,-0.7128435842105263
714,1747679359340,1.9551586736842104,-1.5381194105263158,0.05759429936842105,4.105343726315789,3.697333910526316,-0.5395980842105264
715,1747679359350,2.347146,-1.4808987111111112,0.06950886111111111,4.037970505555555,3.3043886555555555,-0.7371920444444444
716,1747679359360,2.4414528142857144,-1.4556794714285712,0.03991207714285715,3.9740040142857143,3.1254074142857142,-1.0762587142857143
717,1747679359370,2.237072342857143,-1.4135621285714284,-0.05910543571428571,3.8075185,3.1419952,-1.6956334
718,1747679359380,1.8796678833333333,-1.3961294833333333,-0.13116044166666666,3.650392083333333,3.3062233666666665,-1.8607493166666667
719,1747679359390,1.5726787000000002,-1.3333718857142856,-0.18434166142857142,3.4920483714285715,3.410289342857143,-1.8965116714285715
720,1747679359400,1.394415481818182,-1.2667791636363637,-0.2625667636363636,3.421505781818182,3.4698057818181813,-1.844092381818182
721,1747679359410,1.05229164,-1.1075207272727272,-0.5387064409090909,3.2301456363636363,3.623591163636364,-1.620968090909091
722,1747679359420,0.8470617233333334,-0.9166383333333333,-1.0126951416666667,2.8372408,3.8141765499999996,-1.1860823166666667
723,1747679359430,0.8551968833333333,-0.7034136916666668,-1.4895017166666669,2.3152618333333335,4.089724783333334,-0.8313495166666667
724,1747679359440,0.9182450433333335,-0.6581275027777778,-1.6754733611111112,2.071494038888889,4.150918277777778,-0.7430509955555555
725,1747679359450,1.2454493294117646,-0.7024326411764706,-1.9576083882352942,1.4015267235294118,3.9542273647058823,-0.7497419588235295
726,1747679359460,1.48063432,-0.66659356,-1.5686901800000002,1.18505258,3.1711833000000005,-1.249501026
727,1747679359470,1.5121177000000001,-0.645165325,-1.11039945,1.5024064666666666,2.717073272222222,-1.6452109833333333
728,1747679359480,1.3433927833333332,-0.6121091022222223,-0.5043239533333334,2.4474135722222226,2.2461084555555555,-2.1632249055555555
729,1747679359490,1.0772686875,-0.42847298875,-0.6138344925,3.853591075,2.326802225,-2.635462225
730,1747679359500,1.00480405,-0.6463855833333333,-1.2085104833333333,4.973272055555555,3.3204267944444448,-2.9746007499999996
731,1747679359510,0.9978890999999999,-0.6976376,-1.3151635,5.542241222222222,3.8144131333333338,-3.2021528888888886
732,1747679359520,-0.21588901111111106,-1.158363488888889,-3.1138654444444445,6.759837611111111,3.829326833333334,-3.7306420555555553
733,1747679359530,-1.8910883823529412,-1.4788505823529412,-5.368265352941176,6.842141529411765,3.0194898529411764,-3.5557717529411765
734,1747679359540,-3.537645078947368,-1.3384549263157894,-7.709823263157896,5.333088421052632,0.6996258724210527,-1.8486389315789473
735,1747679359550,-2.2578347,-1.253112,-8.033083,1.995445916666667,0.2566101754444444,0.09939501388888888
736,1747679359560,-1.7489110473684213,-1.3067018631578948,-7.597890789473684,0.5922725505263159,0.5831757836842105,0.19997521736842105
737,1747679359570,-1.623465694736842,-1.2929574789473686,-6.467468789473684,-1.0193591536842106,0.7555242,0.13348034131578948
738,1747679359580,-1.9710802315789473,-1.327485189473684,-5.481066515789474,-1.6877,0.3010490968421053,0.2882239018421052
739,1747679359590,-2.1144317999999998,-1.346213389473684,-4.774662184210526,-1.927167052631579,-1.0250359599999999,1.189829416842105
740,1747679359600,-1.8982484421052632,-1.4035282473684212,-4.412018863157894,-1.9751599789473684,-2.172044494736842,1.9925896736842104
741,1747679359610,-1.1554009444444444,-1.5305235777777777,-3.872449611111111,-2.173115672222222,-4.335918833333333,3.4489390666666666
742,1747679359620,-0.3580416157894737,-1.6832949000000001,-3.3286102263157895,-2.416158126315789,-5.709504873684211,4.449311842105263
743,1747679359630,0.26381624,-1.8050408947368421,-2.8274964842105264,-2.720283836842105,-6.551343610526316,5.334601973684211
744,1747679359640,0.453336325,-1.8442185000000002,-2.67819285,-2.8158912375,-6.75829910625,5.585643281249999
745,1747679359650,1.3063261000000002,-2.0774346,-2.038780515789474,-3.303375510526316,-7.275049921052631,6.577988978947368
746,1747679359660,2.112588442105263,-2.344613089473684,-1.4067748789473684,-3.7352559157894736,-7.190277421052632,7.217931989473684
747,1747679359670,3.1763442,-2.6500955,-0.66499496,-4.207559957894737,-6.681193421052632,7.589765421052632
748,1747679359680,3.6742210526315793,-2.7706342684210528,-0.3055628863157895,-4.50280647368421,-6.074441705263157,7.549733631578948
749,1747679359690,4.239842347368421,-2.8354762842105266,-0.05539136168421053,-4.789025947368421,-5.483332536842106,7.249385421052632
750,1747679359700,4.590823105263158,-2.7919572421052634,0.05600150547368421,-5.20515152631579,-5.1304498315789475,6.6238516315789475
751,1747679359710,4.632723573684211,-2.7411162,0.11259709894736841,-5.629574947368422,-4.982546136842106,6.1300175368421055
752,1747679359720,4.587560026315789,-2.770402957894737,0.25517791263157896,-6.275685263157895,-4.7230702631578945,5.504651768421053
753,1747679359730,4.522075625,-2.821301675,0.37182121875,-6.8564361875,-4.461057625,4.989961375
754,1747679359740,4.382063936842106,-2.8927655105263157,0.5495623263157895,-7.382774684210526,-4.197222889473684,4.5234318315789475
755,1747679359750,4.0547702947368425,-2.990080194736842,0.871152652631579,-8.064767736842105,-3.888744910526316,3.850297189473684
756,1747679359760,3.7723830421052633,-3.0341646736842107,1.116931157894737,-8.390850736842106,-3.8197270210526315,3.4245281368421048
757,1747679359770,3.321545347368421,-3.0861360631578947,1.5803573999999998,-8.483023684210526,-4.030985631578948,2.882925884210526
758,1747679359780,3.184487784210526,-3.0504780736842103,1.8010878736842106,-8.177348894736841,-4.185392884210526,2.6096576
759,1747679359790,3.0069682,-2.9757222555555556,1.9260251222222224,-7.734479666666666,-4.309701483333333,2.3635536666666663
760,1747679359800,2.8050431789473684,-2.8930738473684214,1.9733922789473686,-7.252980705263157,-4.450699468421052,2.2008205736842106
761,1747679359810,2.4182509210526315,-2.746742263157895,1.9130973999999998,-6.552429842105263,-4.699129947368421,2.1203652631578946
762,1747679359820,2.1874497210526314,-2.6181883263157895,1.8283709789473683,-5.8634283789473685,-5.020671731578948,2.2102398421052634
763,1747679359830,2.0595637421052633,-2.5068982,1.766329052631579,-5.345485957894737,-5.304816584210526,2.3657683684210524
764,1747679359840,1.985498842105263,-2.4153895999999997,1.7184167315789474,-4.9382746736842105,-5.542819105263158,2.5173161
765,1747679359850,1.9447798421052631,-2.3342085368421053,1.688333394736842,-4.601539157894737,-5.727670499999999,2.6676303789473685
766,1747679359860,1.9367130789473683,-2.2023662105263155,1.6541910631578947,-4.162202168421053,-5.838682121052631,2.9202660631578947
767,1747679359870,2.0853566789473685,-1.9206727210526318,1.5838512631578947,-3.4296374,-5.418519521052631,3.4113525368421054
768,1747679359880,2.296056666666667,-1.7449685444444445,1.5734438777777777,-3.1391693333333333,-4.717460694444444,3.538007
769,1747679359890,2.427884631578947,-1.572929657894737,1.5055731578947367,-2.916103210526316,-3.7978610526315784,3.4854165578947365
770,1747679359900,2.4568632,-1.2864321210526315,1.449774,-2.784402915789474,-2.908085547368421,3.187366936842105
771,1747679359910,2.2891573894736843,-1.0273974684210527,1.4170960263157895,-2.7395147263157895,-2.4739626578947367,2.8095908
772,1747679359920,1.8820185263157896,-0.7010030526315789,1.3719582210526315,-2.7473640842105262,-2.267918247368421,2.3849430210526315
773,1747679359930,1.5750202,-0.6174841105263159,1.397006157894737,-2.7650319999999997,-2.285242789473684,2.247299789473684
774,1747679359940,1.2361431888888887,-0.6132480777777778,1.4902203055555556,-2.7602460444444445,-2.4300439555555555,2.2418177777777775
775,1747679359950,1.0832063684210527,-0.5137469315789474,1.5780452368421052,-2.687036452631579,-2.902871542105263,2.5734387368421054
776,1747679359960,1.1984784,-0.17910590642105262,1.6863039210526316,-2.601836368421053,-3.80329947368421,3.254871052631579
777,1747679359970,1.9457560526315791,0.1616493969473684,1.780432994736842,-2.744805915789474,-4.672890936842106,3.784531347368421
778,1747679359980,3.699525657894737,0.40077413263157896,2.165452463157895,-3.4041831000000005,-5.2885013,3.9896785999999995
779,1747679359990,4.645414589473685,0.5108824789473685,2.5954299263157896,-3.979425584210526,-4.6315139,3.6546251789473687
780,1747679360000,5.704343033333334,0.5799206777777778,3.3570685444444446,-4.554076155555555,-3.8725292000000002,3.138888055555556
781,1747679360010,6.142538526315789,0.5694048368421052,4.242020368421052,-5.112585778947368,-2.720262736842105,2.287275278947368
782,1747679360020,6.028217199999999,0.6730135894736842,5.3719538894736845,-5.301081310526317,-1.056377052631579,1.293776742105263
783,1747679360030,5.315056231578947,0.7754148578947369,6.434912773684211,-4.9833524421052635,0.6839833842105264,0.46545012736842106
784,1747679360040,4.3167422,0.8116123666666666,7.5354909999999995,-4.1354866999999995,2.0820578,-0.036485279999999995
785,1747679360050,3.964109457894737,0.7845348631578947,7.968953957894738,-3.1727125578947373,2.421596531578947,-0.017674967368421047
786,1747679360060,3.8584197842105263,0.5802461305263158,8.339099210526317,-0.621959752631579,2.3333478736842106,0.3754073105263158
787,1747679360070,4.724746052631579,0.19594586210526313,7.469510442105263,3.050396463157895,1.669071842105263,0.5576234578947369
788,1747679360080,5.308916,0.0076878034,5.540405,5.874186178947368,1.868500452631579,-0.2912234663157895
789,1747679360090,5.203049777777778,-0.12724873295555553,4.401904555555555,6.565012588888888,2.480939888888889,-0.8739600411111111
790,1747679360100,5.1495856,-0.22735217210526315,3.6912725999999996,6.621496510526316,2.836600894736842,-1.209424657894737
791,1747679360110,4.944089436842105,-0.4173314715789474,2.5144030368421055,6.110730852631579,3.5564947631578945,-1.9391302105263157
792,1747679360120,4.704784773684211,-0.5159305715789474,1.8922369842105264,5.6556389052631575,3.905564921052631,-2.194625242105263
793,1747679360130,4.283062283333333,-0.5397325833333333,1.4007869166666667,4.461945466666666,4.9511679,-2.510204933333333
794,1747679360140,4.118456557894737,-0.5885055231578947,1.3629922631578948,3.515804542105263,5.881741115789474,-2.692944426315789
795,1747679360150,3.9926514210526314,-0.6601299115789473,1.4124459736842105,3.0549378736842105,6.40243072631579,-2.768914547368421
796,1747679360160,3.7196668210526322,-0.8149906315789475,1.5310321,2.6991396842105266,7.068388684210526,-2.7950414842105262
797,1747679360170,3.4311656263157895,-0.9424141968421053,1.6450966684210526,2.6163854894736844,7.573491894736842,-2.715314936842105
798,1747679360180,3.3048209842105263,-1.0040193884210524,1.6711466052631578,2.7580095421052633,7.744606842105264,-2.5866984210526316
799,1747679360190,3.2310128,-1.0671403,1.6447629,3.2102607333333335,7.749970666666666,-2.3138414
800,1747679360200,3.2775120842105263,-1.2087449421052632,1.3435191315789474,3.6919094526315788,7.879446905263158,-1.9682847684210527
801,1747679360210,3.4721672631578953,-1.4262898421052632,0.933323105263158,3.924080884210526,8.102367589473683,-1.7652680157894736
802,1747679360220,3.6086337368421053,-1.5877015210526315,0.6160743736842106,3.980427763157895,8.295909052631579,-1.7260774947368422
803,1747679360230,3.5610595,-1.7599374666666665,0.3935626583333333,3.9262954333333338,8.340659333333333,-1.9033598166666665
804,1747679360240,3.306233789473684,-1.835971994736842,0.36035375421052634,3.917633110526316,8.204632631578948,-2.0704940789473683
805,1747679360250,2.9942773333333332,-1.8726919,0.40446389,4.009208633333333,7.905499333333334,-2.2012785
806,1747679360260,2.7622945894736843,-1.9071596,0.46974277315789476,4.125976505263158,7.676654473684211,-2.233030842105263
807,1747679360270,2.482527947368421,-1.9688675368421051,0.6066717284210527,4.43008107368421,7.264957894736842,-2.1794873684210527
808,1747679360280,2.247570677777778,-2.028508911111111,0.7492896555555555,4.921310888888889,6.641386222222222,-2.0658716888888886
809,1747679360290,2.1215286,-2.0790017,0.869637,5.456606077777778,5.956954277777778,-1.9641389944444445
810,1747679360300,2.012293757894737,-2.301967105263158,1.0387814421052632,6.9317124473684215,4.122374078947368,-1.9574639842105264
811,1747679360310,1.9137749,-2.41058379375,0.8425160781250001,7.6286192625,3.195790875,-2.060885625
812,1747679360320,1.7167532210526317,-2.4757873842105265,0.4045409410526316,8.103278263157895,2.3685015736842105,-2.174385384210526
813,1747679360330,1.5664396736842106,-2.427335515789474,0.05893019052631578,8.077207052631579,1.9782787315789474,-2.1830755684210525
814,1747679360340,1.464587575,-2.31848275,-0.239969286,7.6788196875,1.9417758812500001,-2.0928435625
815,1747679360350,1.410628442105263,-2.1755454526315785,-0.4998324410526316,6.7586352105263146,2.2436413684210526,-1.8588990105263157
816,1747679360360,1.487622063157895,-1.9847954736842102,-0.6421820431578947,5.985534263157895,2.5968042842105263,-1.6663666105263157
817,1747679360370,1.521473188888889,-1.9053414,-0.6213358772222223,5.3003082,2.927521933333333,-1.5045960999999999
818,1747679360380,1.526928047368421,-1.8095111789473683,-0.4990103968421053,4.353718557894736,3.410890073684211,-1.2770408894736842
819,1747679360390,1.500826752631579,-1.679518547368421,-0.2038552463157895,3.4855285368421054,3.8158585210526317,-1.0148738421052632
820,1747679360400,1.4447192842105263,-1.590501794736842,0.25885161736842105,2.9927039210526316,3.853759384210526,-0.7522583394736843
821,1747679360410,1.4488811210526316,-1.5297700315789473,0.7293683,2.9750430631578944,3.494653305263158,-0.5522691184210526
822,1747679360420,1.453012782352941,-1.5281213352941176,0.8172651764705883,3.296630741176471,3.3059830470588234,-0.609377814117647
823,1747679360430,1.3488434333333332,-1.5082331,0.6122379333333333,3.6713423333333335,3.3784834999999998,-0.7743578816666666
824,1747679360440,1.160045847368421,-1.438595405263158,0.24104827147368424,3.7600862842105265,3.6920635789473684,-0.8877149921052633
825,1747679360450,0.7790596263157895,-1.3026426157894737,-0.40937712621052635,3.520682284210526,4.3993427894736845,-0.9297649
826,1747679360460,0.28228610666666665,-1.1512587222222224,-1.1767558777777778,2.789481566666667,5.582159266666667,-0.7706295
827,1747679360470,0.18859524,-1.125226,-1.3136991,2.536659,5.9020934,-0.6857635
828,1747679360480,0.022636311111111116,-0.8232457911111112,-1.524347588888889,1.55898372,6.167699133333333,-0.04045043333333331
829,1747679360490,0.02903922411764708,-0.41085599588235294,-1.6950887647058823,0.13668272,6.080806947058823,0.9168943705882353
830,1747679360500,1.0734183473684211,-0.2539158773684211,-1.2941232368421052,-0.3213872336842105,4.743983447368421,1.0906477694736842
831,1747679360510,1.3123889157894737,-0.032054992105263164,-1.115370605263158,0.22481268684210526,4.621253736842105,0.1762590842105263
832,1747679360520,0.6870143888888889,0.4245375844444445,-1.2665689555555557,1.2714809777777778,5.071365055555556,-0.6021994616666667
833,1747679360530,-0.6288680368421053,0.8765830284210526,-2.1908406736842103,2.6310750789473683,4.990732263157895,-0.9043667931578947
834,1747679360540,-0.8400788888888889,0.853536038888889,-2.7159977333333334,3.2936472500000002,4.502573611111111,-0.8376227383333333
835,1747679360550,-1.0119608552631578,0.7784206421052632,-3.4145439526315786,4.041147736842105,3.211797894736842,-0.5616883131578948
836,1747679360560,-1.0275805789473684,0.5564569631578947,-4.258314105263158,4.427502068421052,1.0729727873684212,-0.3359645315789474
837,1747679360570,-1.2538344421052632,0.4055525,-5.239295631578948,4.483064063157895,-0.9966662715789475,-0.04324129263157895
838,1747679360580,-1.4572183555555556,0.4244291,-5.728152333333333,4.261320966666667,-1.3882160666666667,0.16431692
839,1747679360590,-1.4787781894736842,0.3434591789473684,-6.163116631578947,3.4119693368421053,-1.5133191105263157,0.7065921631578947
840,1747679360600,-1.0913494111111113,0.11366288333333333,-6.425396888888889,2.2431788999999998,-1.4828469499999999,1.3206605999999999
841,1747679360610,-0.4073668661052632,-0.027456438947368423,-6.16011092631579,1.0043053242105264,-1.7667957473684208,1.8620668789473684
842,1747679360620,0.4580858578947368,-0.2403771263157895,-5.657661157894737,-0.7437362315789473,-2.9310167894736843,2.3491726421052634
843,1747679360630,0.8191877889473684,-0.45011221842105265,-5.361992273684211,-2.2129590526315788,-4.735629415789473,2.517764605263158
844,1747679360640,1.27165618,-0.7176177833333333,-4.698317346666667,-3.1367665333333337,-5.6496967866666665,2.5977340533333333
845,1747679360650,1.8165855421052632,-1.060820457894737,-3.821374684210526,-4.5671146315789475,-6.469598410526316,2.5196148210526315
846,1747679360660,2.140565052631579,-1.3431047947368422,-3.0902303368421054,-5.4409113157894735,-6.461076500000001,2.2869387105263157
847,1747679360670,2.183031,-1.3844147,-2.9825625,-6.035029277777777,-6.171960155555556,1.9829586444444445
848,1747679360680,2.282221042105263,-1.574239857894737,-2.2990994684210526,-6.499446668421053,-5.882918578947369,1.6854573263157895
849,1747679360690,2.379073263157895,-1.930435052631579,-0.9001377,-6.667477968421053,-5.732548,1.3505720526315788
850,1747679360700,2.3658570444444447,-2.0799236555555556,-0.1819243388888889,-6.544461822222222,-5.795684888888889,0.95817505
851,1747679360710,2.3472571400000004,-2.2036417349999997,0.3517719155,-6.14654455,-6.0120815,0.6721281115
852,1747679360720,2.2907416055555556,-2.301093877777778,0.6540259583333333,-5.665205333333334,-6.210072805555556,0.47093532777777775
853,1747679360730,2.0099674,-2.335966844444444,0.8637796111111111,-4.858623000000001,-6.367613333333334,0.34186085555555557
854,1747679360740,1.9599628,-2.3259876,0.8764706,-4.360789736842105,-6.312499936842106,0.4240730352631579
855,1747679360750,1.7667722315789471,-2.3103679789473683,0.7445255642105263,-3.7590840736842104,-6.0179267473684215,0.7130398078947369
856,1747679360760,1.6377558210526315,-2.273630847368421,0.5773592057894736,-3.5092517894736837,-5.5987176052631575,1.091993402631579
857,1747679360770,1.5947503473684208,-2.2475809473684207,0.45147702842105264,-3.4599692578947367,-5.261309178947369,1.4055173315789473
858,1747679360780,1.635443647368421,-2.2434706157894735,0.2845161526315789,-3.640783652631579,-4.651585626315789,1.8890908578947367
859,1747679360790,1.7079928631578947,-2.2812609263157895,0.23105477684210526,-3.765251336842105,-4.424404215789473,2.014904163157895
860,1747679360800,1.8407271555555553,-2.3965472055555557,0.24045740888888892,-4.138682305555555,-3.9582237944444447,2.189028138888889
861,1747679360810,1.8940415473684211,-2.431343215789474,0.27616683842105266,-4.394766036842105,-3.729740305263158,2.2542521315789474
862,1747679360820,1.9719857894736843,-2.448041942105263,0.4054401089473684,-4.756394963157895,-3.649565210526316,2.2247611210526315
863,1747679360830,1.9332600470588237,-2.460563694117647,0.6262114117647058,-5.0309658529411765,-3.8942592941176466,2.0957651764705885
864,1747679360840,1.801916447368421,-2.439050363157895,0.7871456052631579,-5.083879584210526,-4.118841789473684,2.0668216842105265
865,1747679360850,1.624756552631579,-2.376571689473684,0.9730401105263159,-5.022206589473684,-4.4218252,2.2192665789473685
866,1747679360860,1.564373,-2.3286993999999996,1.102901477777778,-4.8921790000000005,-4.5486759,2.4152190499999997
867,1747679360870,1.5578847842105261,-2.3097000315789473,1.156340057894737,-4.648635315789474,-4.513606052631579,2.650978636842105
868,1747679360880,1.5570370210526314,-2.2663092052631577,1.266088757894737,-4.468325342105262,-4.440775631578947,2.791425231578947
869,1747679360890,1.572996388888889,-2.2219108000000003,1.3284645666666668,-4.211475266666667,-4.306683416666667,2.9553076666666667
870,1747679360900,1.60827625,-2.0931569499999996,1.4173014499999999,-3.8347863333333336,-4.191279922222222,3.124447888888889
871,1747679360910,1.67182873,-1.9923124799999996,1.43433668,-3.3794690000000003,-4.109467499999999,3.3189887999999996
872,1747679360920,1.9045617,-1.8910776,1.31772615,-2.9010458687500003,-4.05545853125,3.49466396875
873,1747679360930,2.0818371421052633,-1.8259528210526317,1.1551840315789472,-2.6519948578947368,-4.030424942105263,3.5230370526315786
874,1747679360940,2.203300652631579,-1.7442321157894736,0.9442157368421052,-2.5091374578947367,-3.894631868421053,3.4382645473684206
875,1747679360950,2.1274722,-1.750787694117647,0.8607648117647059,-2.6846914823529415,-3.5203517411764707,3.374144376470588
876,1747679360960,2.0250446222222225,-1.8082066555555558,0.9961129,-2.8690656666666667,-3.1956133666666666,3.405677533333334
877,1747679360970,1.9700038857142859,-1.8051694857142857,1.0500999142857144,-2.9071805714285714,-3.1286031714285714,3.4683082428571432
878,1747679360980,1.6608027333333333,-1.6869372,1.296140577777778,-2.8967255611111113,-3.120275488888889,3.9316809166666666
879,1747679360990,1.8289168736842105,-1.3911713052631578,1.2945278000000002,-2.816942457894737,-3.5035680315789475,4.851420915789474
880,1747679361000,2.3757079210526313,-0.9015410684210525,1.137380610526316,-2.858712073684211,-4.04332037368421,5.738056736842105
881,1747679361010,3.554470111111111,-0.3675095277777778,0.8767417222222222,-3.1506504,-4.3750379,6.0040922
882,1747679361020,5.018025736842105,-0.14922816473684208,0.7055534052631579,-3.704475331578947,-4.565916236842106,5.496690405263158
883,1747679361030,5.712587,-0.14899695,0.6602358,-4.1818256,-4.6386905,4.7960835
884,1747679361040,5.0631235,0.3932711241666667,1.486857718888889,-6.531797161111111,-5.635954783333333,2.3336671944444443
885,1747679361050,5.021519757894737,0.3965095157894737,2.2210461315789476,-7.945121394736843,-5.916166,2.1215986736842103
886,1747679361060,5.76224632631579,-0.03752702105263159,3.1196650315789474,-9.020981578947369,-5.268934421052632,2.1233367263157894
887,1747679361070,6.638279866666666,-0.87592959,4.250773686666666,-9.8767956,-3.8134664666666667,1.5862307866666667
888,1747679361080,6.9516014526315795,-1.7486508789473687,5.777525768421052,-10.294420105263159,-2.2158885578947367,0.6535532421052631
889,1747679361090,6.1735983894736846,-1.9752901526315791,7.971112189473684,-9.064769684210527,-1.3238704210526315,-0.5578196947368421
890,1747679361100,5.035880410526316,-1.7123506263157897,10.157093842105263,-5.132265157894738,-1.5067032863157894,-1.5224439736842104
891,1747679361110,4.609114052631579,-1.5142275105263159,10.726081210526317,-3.8723386105263162,-1.7058515263157894,-1.5794075526315787
892,1747679361120,4.2174150842105265,-1.4294496684210527,10.281255631578947,-0.37227459473684216,-1.691498494736842,-1.6226909105263156
893,1747679361130,4.038517033333333,-1.4532388833333334,9.332322233333333,2.2996379,-1.0567414833333333,-1.6523127166666667
894,1747679361140,4.096722205263158,-1.5696156421052632,6.766856442105262,5.496970663157894,1.6985068368421052,-1.6703473789473684
895,1747679361150,4.167370894736842,-1.8603264315789474,4.556494184210527,6.331184242105263,3.6469302736842106,-1.6125988789473684
896,1747679361160,4.116289666666667,-1.9099513833333335,3.3307915833333333,6.328761155555556,4.551339011111112,-1.4812787
897,1747679361170,4.048887063157895,-1.7521446842105262,2.539348231578947,6.049057684210527,4.781716031578947,-1.342975042105263
898,1747679361180,4.118404684210526,-1.634945905263158,2.1497815263157896,5.718882042105263,4.993984110526315,-1.2967201421052632
899,1747679361190,4.288602421052632,-1.5697954736842106,1.7283075,5.192305268421053,5.47924,-1.4591448789473684
900,1747679361200,4.221396842105262,-1.637617642105263,1.611211394736842,4.93798752631579,5.866491157894736,-1.7002869473684212
901,1747679361210,4.013794326315789,-1.7028451999999998,1.5708776842105265,4.70632072631579,6.3761915263157904,-2.051823947368421
902,1747679361220,3.691440566666666,-1.7457279555555556,1.576670838888889,4.683697855555556,6.6529856388888895,-2.2164881666666667
903,1747679361230,3.1810967368421053,-1.7876743473684211,1.5885269315789474,4.8436275,7.093954884210525,-2.3672541894736843
904,1747679361240,2.9584393894736842,-1.8981936842105263,1.5150014789473685,5.349235373684211,7.277404726315789,-2.1885140789473683
905,1747679361250,2.9360376,-2.0725276315789474,1.4020157947368421,5.5779867,7.306110999999999,-2.0844545
906,1747679361260,3.067802757894737,-2.3423521315789473,1.1974187421052631,6.47678904736842,6.84003005263158,-1.8804846526315788
907,1747679361270,3.186748610526316,-2.4752219736842105,1.0081330736842105,7.0084115421052635,6.247294473684211,-1.9422700421052632
908,1747679361280,3.287471288888889,-2.629269277777778,0.7736953866666667,7.2972039111111116,5.7509439888888885,-2.1185429333333334
909,1747679361290,3.311037968421053,-2.780704852631579,0.48993529368421057,7.525176552631579,5.24258267368421,-2.4097525263157893
910,1747679361300,3.2034472947368418,-2.863633094736842,0.29032214842105264,7.587634436842106,4.9121268421052635,-2.7224355157894737
911,1747679361310,3.1831777,-2.876581,0.25802952,7.527363000000001,4.7911354210526325,-2.9051562684210523
912,1747679361320,2.9038734684210525,-2.9098754421052635,0.07490951810526315,7.279661168421053,4.717127789473684,-3.0801957631578945
913,1747679361330,2.6595593315789476,-2.9087193157894737,-0.06289291052631579,7.169210115789473,4.718809763157895,-3.090287710526316
914,1747679361340,2.4877772,-2.84084,-0.11141891333333333,6.883644844444444,4.751726944444445,-3.0270945888888887
915,1747679361350,2.3746801736842102,-2.764905305263158,-0.10579560157894737,6.5565155684210525,4.801115368421053,-2.9100339263157893
916,1747679361360,2.265959142105263,-2.6789970526315785,-0.07126792094736843,6.257793126315789,4.857181768421053,-2.7725588315789476
917,1747679361370,2.084971447368421,-2.5629030368421053,-0.029829575947368417,5.820810821052631,4.970379863157895,-2.4532040368421053
918,1747679361380,2.0253701,-2.5261147,-0.014826477,5.583986105263158,5.037884178947368,-2.1819543842105262
919,1747679361390,1.8866427842105262,-2.448786963157895,0.054794063526315794,5.496634368421053,5.027680136842105,-1.989758352631579
920,1747679361400,1.648031894736842,-2.317227094736842,0.1456604352631579,5.405470368421052,4.931638026315789,-1.5889388368421054
921,1747679361410,1.6306139631578946,-2.253669715789474,0.1356669357894737,5.391790263157895,4.660051794736842,-1.2271977842105262
922,1747679361420,1.6735209,-2.212094416666667,0.052858735000000004,5.389080222222223,4.256734344444443,-1.0576588
923,1747679361430,1.7156228736842105,-2.195095989473684,-0.02903317542105263,5.375250263157895,3.9829366210526316,-1.0065759789473685
924,1747679361440,1.7234069894736843,-2.1816085578947373,-0.08105590463157895,5.362466994736843,3.82129687368421,-1.0269281368421053
925,1747679361450,1.6312606352941177,-2.1045558705882352,-0.2417135823529412,5.305780464705883,3.1876135647058823,-1.2055494470588235
926,1747679361460,1.4640385,-2.0131063,-0.3857935,5.238168,2.6296034,-1.374989
927,1747679361470,0.92808867,-1.5650171,-0.8685387999999999,4.6607947,2.308959,-1.3334438
928,1747679361480,0.9027067679999999,-1.4317618133333334,-1.1447790933333335,4.145633213333333,2.5443822399999996,-1.1598768133333333
929,1747679361490,0.9367206315789472,-1.3412037684210527,-1.3482012,3.6788459842105263,2.8349188421052633,-1.0766591263157896
930,1747679361500,0.9951230666666666,-1.1550009333333333,-1.6337395333333333,2.6580991666666667,3.4775532000000005,-1.0586056666666668
931,1747679361510,0.9463929999999999,-1.000268615,-1.6802731499999999,2.0258651,3.7044542999999996,-1.1454247
932,1747679361520,0.7373130289473684,-0.7563655273684211,-1.7258476263157896,1.4347279157894737,3.2156104315789475,-1.2670610157894737
933,1747679361530,0.6629911447368421,-0.6981000821052632,-1.7819036210526316,1.3444047789473685,2.829312263157895,-1.2305617263157895
934,1747679361540,0.64742285,-0.6888516000000001,-1.8013254,1.365629942857143,2.2835448285714284,-1.0575404857142856
935,1747679361550,0.64742285,-0.6888516,-1.8013254,1.5150712,1.9872493499999997,-0.9861678000000001
936,1747679361560,1.0291283666666666,-0.33350424333333334,-2.4051230333333335,1.4442312,2.68020335,-1.4570143
937,1747679361570,1.6617518277777776,0.41306689333333335,-3.9318096833333334,0.9009467644444444,4.044924477777778,-2.4093599888888892
938,1747679361580,1.385426212105263,0.46348399473684215,-4.4495266,0.3105383757894737,5.216456042105263,-3.297845947368421
939,1747679361590,-1.075621287368421,0.2637937731578947,-4.77237555263158,-0.6754472421052632,6.153215042105263,-4.7688068947368425
940,1747679361600,-2.5570487,0.218309215,-4.405416150000001,-0.52837077375,4.5646547625,-4.6637240625
941,1747679361610,-3.4125409941176468,0.0819960611764706,-3.2648365294117645,1.279648,1.844504,-3.5587795
942,1747679361620,-3.5511426999999998,-0.030775616,-3.3076469599999996,2.05729048,1.228355504,-3.04148746
943,1747679361630,-3.7368217,-0.18511742,-3.4423664,3.2237542,0.30413276,-2.2655494
944,1747679361640,-3.5786724,-0.3867087,-4.250684,3.9662428,-2.308959,1.445829
945,1747679361650,-3.59600045,-0.73717493,-6.2880738,3.25837515,-2.8202855,2.41948
946,1747679361660,-3.2555406,-0.7396154999999999,-6.6077886,2.5505075,-3.331612,3.393131
947,1747679361670,-0.916593608,-0.90986978,-5.81352916,0.135341748,-4.46803548,5.046633
948,1747679361680,0.71527076,-0.9231465,-4.7685738,-1.4037511,-4.9614654,5.418197
949,1747679361690,1.90451282,-0.940913908,-3.2935891400000004,-2.51703156,-5.47108744,4.8576554199999995
950,1747679361700,2.3924322,-1.0978914,-2.1678996,-3.0387976,-5.8221984,3.9087186
951,1747679361710,2.4085398,-1.2648267,-1.7139531000000001,-3.2049787,-5.967074399999999,3.425089
952,1747679361720,2.3699788,-1.3517111,-1.55238715,-3.3056462,-6.0038259,3.27222365
953,1747679361730,2.3231199,-1.5144972499999998,-1.2761143000000001,-3.4824800500000004,-5.9670742,3.1236193
954,1747679361740,,,,,,
955,1747679361750,2.6994562,-1.8022408,-1.1428591,-4.2990046,-5.118059,3.082074
956,1747679361760,2.89457995,-1.9863818500000001,-1.107348775,-5.0702553,-4.498076,2.851977
957,1747679361770,3.0196593,-2.323547,-0.8236322,-6.1088877,-3.6533217,2.4823306
958,1747679361780,3.0196593,-2.323547,-0.8236322000000001,-6.40247422,-3.3929712199999997,2.36387328
959,1747679361790,2.9869556499999996,-2.6496076,-0.5127032650000001,-7.1113005000000005,-2.8437212499999998,2.0402462
960,1747679361800,2.8742013,-3.2729297,0.08718945,-7.706783,-2.6764748,1.5832481
961,1747679361810,2.839545,-3.38983325,0.213855155,-7.76270925,-2.8447864999999997,1.4287849000000001
