id,timestamp,acc_x,acc_y,acc_z,gyro_x,gyro_y,gyro_z
0,1747679553720,-0.3919503890909091,0.9422495399999999,-0.22720064636363635,0.21609115545454544,-0.30632382272727277,-0.054255817272727276
1,1747679553730,-0.42057166,0.93120044,-0.19005957,-0.083889505,-0.26658222,0.20825903375
2,1747679553740,-0.17647685215384618,0.9478714038461539,-0.10753067692307691,-0.15006901,-0.19853851,0.269778
3,1747679553750,0.041672774,0.94974875,-0.0358154,-0.1798964,0.07097319,0.112119
4,1747679553760,,,,,,
5,1747679553770,0.003910463636363637,1.0054381454545456,0.09282495727272727,0.07237740181818181,-0.017831060727272727,-0.2447443181818182
6,1747679553780,-0.08084396,0.9619516,0.16382343,0.2515354,-0.053662658,-0.3619233
7,1747679553790,-0.22288527,0.96780896,0.18139556000000004,0.36293153714285714,-0.10844764771428571,-0.3521837571428571
8,1747679553800,-0.38923471000000004,0.956875232,0.140784424,0.6477424386666667,-0.417272638,-0.19808576933333333
9,1747679553810,-0.43082207,0.9541418,0.13063164,0.6787061,-0.45846283,-0.17550218
10,1747679553820,-0.43082207,0.9541418,0.13063164,0.6787061,-0.45846283,-0.17550218
11,1747679553830,-0.41247923315789475,0.9886695578947369,-0.030137857368421058,0.4427782378947368,-0.3921922247368421,0.09058945894736842
12,1747679553840,-0.24411825999999998,0.9840795727777779,-0.28990609972222225,0.023805679999999996,-0.250085435,0.20385002777777778
13,1747679553850,-0.16246184,0.9507506878947368,-0.2183702252631579,-0.2499795357894737,-0.16366514705263158,0.1836037936842105
14,1747679553860,-0.13095704333333333,0.9146859083333333,-0.07592214444444445,-0.30985856,-0.05685844599999999,0.15366428
15,1747679553870,-0.15886521631578948,0.8934358368421054,0.003156687631578947,-0.2578288336842105,-0.007519920105263158,0.11957584210526316
16,1747679553880,-0.16235909,0.8911751000000001,0.011531705,-0.047330255555555555,-0.08349003849999999,0.13022848222222222
17,1747679553890,-0.30976966,0.82723206,0.05887881,0.22277325,-0.26458487,0.22077589
18,1747679553900,-0.3015744689473684,0.81677612,0.025532883505263157,0.29812665,-0.3163903163157895,0.2564341805263158
19,1747679553910,-0.2538933942105263,0.7760828000000001,-0.11632860300000002,0.3420828,-0.34661016,0.27723485
20,1747679553920,-0.23899305999999998,0.7642653,-0.15833214,0.3420828,-0.34661016,0.27723485
21,1747679553930,-0.23899305999999998,0.7642653,-0.15833214,0.3420828,-0.34661016,0.27723485
22,1747679553940,-0.23899305999999998,0.7642653,-0.15833214,0.3420828,-0.34661016,0.27723485
23,1747679553950,-0.21024853777777777,0.6311184888888889,-0.24754861777777779,-0.07100278044444444,-0.3831250227777778,0.5314186222222222
24,1747679553960,-0.1585826242105263,0.4510755684210526,-0.24955815578947368,-0.36631754,-0.43715757,0.7352982
25,1747679553970,-0.12878765222222224,0.3866815933333333,-0.19320520666666666,-0.4286946294444445,-0.456273135,0.8288638861111111
26,1747679553980,-0.0920706,0.2634598,-0.11293749000000002,-0.47525476263157895,-0.4554913073684211,0.9716185473684211
27,1747679553990,-0.08035585,0.18682583,-0.058268666000000004,-0.47119274850000004,-0.4785430755,1.105157865
28,1747679554000,-0.055950122500000005,0.08310149666666666,0.0035591681666666663,-0.40058352166666666,-0.5534488550000001,1.2595855666666667
29,1747679554010,-0.03226372584210526,0.01919703052631579,0.026098067842105263,-0.34013448421052633,-0.5949287368421053,1.3694665157894736
30,1747679554020,-0.005039783149999999,-0.059574369875,0.02588227065,-0.208924842,-0.66203473,1.622023695
31,1747679554030,0.03163930977777778,-0.18229720222222223,-0.01715858155555556,-0.10355250666666667,-0.782303,1.9422419
32,1747679554040,0.08760977244444444,-0.2808421044444444,-0.085820022,-0.0706476911111111,-0.9433945222222222,2.3160311222222223
33,1747679554050,0.19640507,-0.37108904,-0.15784402,-0.1842135147368421,-1.012455942105263,2.777184457894737
34,1747679554060,0.27645585,-0.40672138,-0.17590426,-0.32120050352941176,-0.9393353735294118,3.026178941176471
35,1747679554070,0.4248426766666667,-0.4388284733333333,-0.17069771777777779,-0.5791335,-0.7503450677777779,3.350993911111111
36,1747679554080,0.502350124736842,-0.4725141021052631,-0.1426867894736842,-0.7775093,-0.5777724,3.5337458
37,1747679554090,0.5483356,-0.54681027,-0.040208433,-0.9261727666666667,-0.4897105688888889,3.7013472222222226
38,1747679554100,0.5663701789473684,-0.593052677368421,0.029617631210526314,-0.9810868052631578,-0.4181510105263158,3.9029436947368423
39,1747679554110,0.6297993210526315,-0.6709968610526316,0.12783140194736842,-0.9457648631578949,-0.3532260063157895,4.077478663157895
40,1747679554120,0.7113658333333333,-0.717487645,0.2103570183333333,-0.8575224277777778,-0.31980103277777777,4.193558027777779
41,1747679554130,0.7528813,-0.7482474263157894,0.27796515157894736,-0.5471880831578947,-0.3961729663157895,4.441911147368421
42,1747679554140,0.7731936666666667,-0.71065402,0.24127092999999997,-0.26529503000000004,-0.5502530866666666,4.781702050000001
43,1747679554150,0.844133,-0.63808769,0.07075626504,-0.14888538666666667,-0.5844007000000001,5.252015977777778
44,1747679554160,1.0810121000000001,-0.5586972811764707,-0.15669552292705882,-0.28191106588235293,-0.32235974411764706,5.932092935294118
45,1747679554170,1.6617248,-0.48774838,-0.30915952,-0.5491877688888889,0.04256616,6.520508511111111
46,1747679554180,2.452355388235294,-0.4578872976470589,-0.33488603294117647,-0.796684,0.24674170000000004,6.7998443
47,1747679554190,2.9214711684210526,-0.42850672157894737,-0.34566534157894735,-0.8547128421052633,0.10965908421052631,6.687150642105263
48,1747679554200,3.1664190666666667,-0.4168091166666667,-0.3438156433333333,-0.8714892333333334,-0.3669685255555556,6.409721222222221
49,1747679554210,3.252978,-0.4042808,-0.27987266,-0.8744483000000001,-1.1402316,6.1148796
50,1747679554220,3.252978,-0.4042808,-0.27987266,-0.8744483,-1.1402316,6.1148796
51,1747679554230,3.2780259842105264,-0.21093610082631575,-0.30792639052631576,-1.074213242105263,-1.2112678015789473,6.528089821052632
52,1747679554240,3.6117425,-0.0030507157,-0.3286841,-1.261139,-0.46165863,7.131141000000001
53,1747679554250,4.324552072222222,0.1467733206388889,-0.5014223944444445,-1.3542312055555557,0.19537231166666666,7.268855777777778
54,1747679554260,5.261999882352941,0.2842764347058824,-1.0601955117647057,-1.7354319823529412,0.2273163011764706,6.612294929411765
55,1747679554270,5.300374333333334,0.3352397427777778,-1.6252518777777778,-2.5067280833333334,-0.4808333388888889,5.600001983333334
56,1747679554280,4.531118557894736,0.3214683515789474,-1.9175225157894737,-4.678000121052631,-1.7619530315789471,4.451498536842106
57,1747679554290,3.6416196947368427,0.18238140631578947,-1.1149595136842105,-6.562843831578948,-2.1583992736842106,4.774441715789473
58,1747679554300,3.4715764736842103,0.13143767368421053,-0.1903678452631579,-7.459908000000001,-2.0606194,5.215797
59,1747679554310,3.782094,0.1253234,1.0682997,-8.124633,-1.8986992999999999,5.8826523
60,1747679554320,4.2306714,0.3649876,2.050386,-7.876426,-2.116013,5.911414
61,1747679554330,4.307468111111111,0.4613088711111112,2.2280596444444445,-7.489735361111111,-2.3230293333333334,5.743457444444444
62,1747679554340,4.4153329999999995,0.7798078621052632,2.6849861842105263,-6.5220835263157895,-2.5762629842105262,5.1604595263157895
63,1747679554350,4.090916642105263,1.0770952157894738,2.9381377105263162,-5.239281947368421,-2.7061691684210527,4.22162597368421
64,1747679554360,3.4265926105263156,1.263400852631579,3.00929962631579,-3.9480142421052635,-2.9862213631578944,3.4373114684210524
65,1747679554370,2.3343465,1.4032072,2.8850617,-2.4904532,-3.4060473,2.8445203
66,1747679554380,1.6688666684210525,1.4130722105263156,2.556637784210526,-1.3902601315789473,-3.445125731578947,2.714389810526316
67,1747679554390,1.1643362,1.4163862,2.221226,-0.7103977,-3.3133695,2.690057
68,1747679554400,0.8128937,1.3880756,1.9293336,-0.15219954,-3.057706,2.690057
69,1747679554410,0.531593289,1.34285169,1.726033915,0.21632842349999998,-2.83043215,2.727181345
70,1747679554420,0.2234055,1.351903747368421,1.494500652631579,0.6169208,-2.4622238,2.871152
71,1747679554430,0.1391872022222222,1.3912212888888886,1.3014013111111113,0.8593866622222223,-2.115125261111111,2.9868511666666664
72,1747679554440,0.15799815842105264,1.4095526684210526,1.1783566315789473,0.9843246210526315,-1.8089928999999998,2.957550263157895
73,1747679554450,0.16927618157894736,1.468075,1.0516780315789473,1.107951289473684,-1.3840087842105262,2.7495435894736846
74,1747679554460,-0.02817897778947369,1.5618187263157894,0.8593865468421054,1.2047781526315788,-0.8329871063157895,2.2535791894736845
75,1747679554470,-0.354342224,1.5849656210526315,0.7107942578947369,1.2203085684210526,-0.44932398631578946,1.7991040684210524
76,1747679554480,-0.69551575,1.569816872222222,0.6272067711111111,1.19855475,-0.23315957499999998,1.42665435
77,1747679554490,-1.0167134631578947,1.5692430578947367,0.5723752705263159,1.1806695894736843,-0.18732520947368422,1.0642404210526315
78,1747679554500,-1.1058844,1.5833215,0.5572437,1.1761842,-0.20706062,1.0005488
79,1747679554510,-0.9497391589473684,1.5937259842105262,0.5788748742105263,1.1671575578947369,-0.1272779852631579,0.9644981184210526
80,1747679554520,-0.6993364157894737,1.6042589736842103,0.6052844505263157,1.1772494,0.11997532,0.85247725
81,1747679554530,-0.3576049,1.6384783,0.6441281,1.2416386944444444,0.29000322833333336,0.6130296527777778
82,1747679554540,0.04753015,1.7204815,0.6582834,1.4089162263157895,0.3545015089473684,0.25077146631578945
83,1747679554550,0.43843279421052633,1.780082847368421,0.5542893452631579,1.523964810526316,0.2475266189473684,-0.0662846257894737
84,1747679554560,0.8011275347368422,1.7970384684210527,0.3725565942105263,1.6022897,-0.16125429,-0.92970884
85,1747679554570,1.087984747368421,1.7921059315789472,0.05882742905263159,1.4273621631578948,-0.35703852789473683,-1.4491089831578947
86,1747679554580,1.1662629263157895,1.7615345684210526,-0.15928267031578947,0.9176054747368422,-0.5028674968421052,-2.1840286736842107
87,1747679554590,1.197707747368421,1.6491141263157894,-0.22977668210526314,-0.05884881157894737,-0.23952312368421053,-2.8857571210526314
88,1747679554600,1.3080216684210526,1.4193406789473684,0.054871130000000004,-0.7527839710526316,0.19235717105263156,-3.3328876052631577
89,1747679554610,1.362793247368421,1.254537742105263,0.48330720736842103,-1.1630786631578949,0.743939447368421,-3.777439
90,1747679554620,1.4234992157894737,1.1151425263157895,0.9895590552631578,-0.9698174157894737,1.165727752631579,-4.354755684210526
91,1747679554630,1.5809032789473685,1.1026056894736842,1.1604248315789474,-0.47951579747368417,0.9654021789473684,-4.632172747368421
92,1747679554640,1.9394620000000002,1.1074098,1.155184,0.106659524,0.4278365,-4.9457526
93,1747679554650,2.363864705263158,1.1566836105263156,1.0631101263157896,0.5264855248421053,-0.14807865789473684,-5.361990410526316
94,1747679554660,2.9154341263157897,1.2609859789473683,0.9535412315789474,0.7094305631578948,-0.45094992947368423,-5.725581857894737
95,1747679554670,3.573823273684211,1.484079957894737,0.9489170315789475,0.7342119678947369,-0.5700912663157894,-6.519259457894736
96,1747679554680,4.026536442105263,1.7928509368421053,1.009366152631579,0.5510426747368421,-0.23313155131578947,-7.133748294736841
97,1747679554690,4.437503315789473,2.3260519105263158,1.122737157894737,-0.18096165,1.2938958,-7.595063
98,1747679554700,5.080812736842105,2.3984212578947366,1.4865880684210526,-0.20445351578947368,1.4733086368421053,-7.585027121052631
99,1747679554710,5.792637763157894,2.321376236842105,1.9753960894736842,-0.48086138842105264,4.787960784210527,-7.4493466368421055
100,1747679554720,6.3900895,2.1109731,2.4355083,0.76392716,5.51234,-7.831551999999999
101,1747679554730,6.3900895,2.1109731,2.4355083,2.3096247,5.45375,-8.223569
102,1747679554740,6.406737131578947,1.1056627736842106,1.4292730578947368,4.2383127,4.33600852631579,-8.524085210526316
103,1747679554750,6.198466531578947,0.8847267657894736,0.46190726,5.29208267368421,3.1449877631578946,-8.507265947368422
104,1747679554760,6.028830855555555,0.8243033677777778,-0.45586504222222224,5.559329844444445,2.276542361111111,-8.395964277777779
105,1747679554770,5.810235468421053,0.7702510889473684,-1.612296714736842,5.015674631578948,1.4892876631578948,-8.334188052631578
106,1747679554780,5.485690605263158,0.6467067421052631,-2.270480536842105,3.4195732421052636,1.5195635789473683,-8.427483
107,1747679554790,5.059258289473684,0.4806964421052632,-2.287975557894737,1.75254792,1.8172767263157894,-8.617548157894737
108,1747679554800,4.267177078947369,0.20863682631578948,-1.6969974736842106,0.3099566631578948,2.2149004,-8.778458894736842
109,1747679554810,3.7469499999999996,-0.0665056,-1.2600065,-0.38868806,2.4284017,-8.705069
110,1747679554820,3.0609948947368424,-0.4404526852631579,-0.6395873615789474,-0.5915366668421053,2.2361495789473684,-8.151467368421052
111,1747679554830,2.4735620736842105,-0.6592821,-0.14402267842105265,-0.46538704999999997,1.8222666,-7.460840000000001
112,1747679554840,2.012345168421053,-0.795722972631579,0.12215386736842107,0.0420709052631579,1.4306981421052634,-6.505523136842106
113,1747679554850,1.6817374,-0.88263303,0.25754142,0.48163231999999995,1.3705949,-5.8363132
114,1747679554860,1.3771541,-0.9504810000000001,0.33856842,1.00449922,1.4469388166666666,-5.303681366666667
115,1747679554870,1.3771541,-0.9504810000000001,0.33856842,1.1090726,1.4622076,-5.197155
116,1747679554880,0.954395505263158,-0.9915339421052632,0.16518501736842103,1.9029743631578948,1.1972933105263157,-4.5218336842105264
117,1747679554890,0.8137157473684211,-1.0561705631578946,-0.029392834210526325,2.2573146368421053,1.0674432684210526,-4.088103242105263
118,1747679554900,0.7332795999999999,-1.1892460105263158,-0.2829554863157895,2.2311875736842106,1.1181834263157895,-3.798015347368421
119,1747679554910,0.7503636447368421,-1.4853773210526318,-0.5123949600000001,1.8425346157894735,1.3463179736842106,-3.6639042473684214
120,1747679554920,0.78214246,-2.0160348,-0.64742285,1.2614053,1.581517,-3.6322827
121,1747679554930,0.5251887287368422,-2.464997452631579,-0.5637240384210527,0.7659455842105264,1.5851053105263158,-3.632843415789474
122,1747679554940,0.059244893,-2.5597944,-0.44192669999999995,0.5114597,1.3258537,-3.4746237000000004
123,1747679554950,-0.4937888000000001,-2.416777,-0.33649394,0.35593122,0.72184926,-2.9228172
124,1747679554960,-0.8545055,-2.1756482,-0.22422758000000004,0.22827712499999997,0.026587202844444446,-2.023320416666667
125,1747679554970,-0.8861557578947369,-1.9655021368421053,-0.14145366294736844,0.15459639,-0.3050649,-1.3558143
126,1747679554980,-0.5845781,-1.6016257,-0.012385906,0.06679623631578947,-0.5301158684210526,-0.17303526157894736
127,1747679554990,-0.08932173921052632,-1.550091094736842,-0.014569574789473683,0.002263685894736843,-0.6784117736842105,0.42171826447368427
128,1747679555000,0.327630785,-1.4913118210526317,-0.03404277394736842,-0.12018556400000001,-0.8434715526315789,0.852421152631579
129,1747679555010,0.5830688310526316,-1.2617952105263157,0.019033254315789474,-0.34428338315789475,-1.0098208894736842,1.1737382789473685
130,1747679555020,0.6408461915789474,-1.0544236884210527,0.10383672789473684,-0.5595787894736842,-1.0161003210526314,1.3336399631578948
131,1747679555030,0.6482192905263158,-0.9530242868421052,0.1605093910526316,-0.7102855578947369,-0.8868670421052631,1.4269346263157896
132,1747679555040,0.6093499,-0.8543224300000001,0.23606437000000002,-0.7567086236842105,-0.70453875,1.4711711736842106
133,1747679555050,0.47316600000000003,-0.76206875,0.3312467,-0.70826715,-0.51705235,1.5097449
134,1747679555060,0.28231320500000007,-0.69245817,0.37965136666666666,-0.5564671083333335,-0.4051996666666667,1.6056186499999998
135,1747679555070,0.18548670894736843,-0.6531164184210526,0.38285838210526313,-0.40231223684210526,-0.36937316368421047,1.7243674631578947
136,1747679555080,0.06204513052631579,-0.5707792263157895,0.3702701636842105,-0.1705332947368421,-0.38114712,1.9415130210526315
137,1747679555090,0.012816594329411764,-0.5156570764705882,0.3196755111764706,0.12539562176470587,-0.3010544741176471,2.2323070705882353
138,1747679555100,0.03345190220526315,-0.5098934294736842,0.19724641842105264,0.3948974331578948,-0.05814797747368421,2.5028509368421052
139,1747679555110,0.06605281105263158,-0.4953270368421052,0.022295912631578946,0.5350637252631579,0.0911571325263158,2.6870854105263158
140,1747679555120,0.08999611,-0.47945046,-0.3389345,0.4800063873684211,0.21898876421052632,2.949588852631579
141,1747679555130,0.0820578275263158,-0.48268741947368426,-0.5247263157894737,0.1445044115789474,0.2943982231578947,3.2507221368421058
142,1747679555140,0.06618125952631577,-0.43839744789473684,-0.6690026989473684,-0.3808387578947368,0.25918844631578947,3.7848116315789477
143,1747679555150,0.1252174189473684,-0.3771005515789474,-0.556119785263158,-0.73489875,0.21797957,4.254929
144,1747679555160,0.2583956,-0.36230296,-0.34772056,-0.9948231,0.32770172,5.017658
145,1747679555170,0.541450672631579,-0.3076341684210526,-0.13192257568421054,-0.9591087199999999,0.5026292273684211,5.5920032684210526
146,1747679555180,0.9675446283333332,-0.24377251666666666,0.04277103216666667,-0.79082511,0.7493685833333333,6.229040533333333
147,1747679555190,1.74160483,-0.144872386,0.06395520130000001,-0.31561098000000004,0.9973264199999999,6.6707342999999995
148,1747679555200,2.196595631578947,-0.06925445736842105,-0.09644435631578947,0.175341,0.8330852052631579,6.768390842105263
149,1747679555210,2.354641947368421,0.0015478352631578928,-0.23239709315789475,0.4896498263157895,0.4593458831578947,6.829839768421052
150,1747679555220,2.6517752368421053,0.15753896,-0.5654196368421052,0.7910073368421052,-0.41159125315789474,7.030894357894736
151,1747679555230,2.8107463315789474,0.15173296421052632,-0.8448265505263158,0.7204756368421051,-0.8635994184210526,7.215353252631578
152,1747679555240,2.9225247,-0.013301121,-1.0037465,0.2948747989473684,-0.7610538094736842,7.750563889473685
153,1747679555250,3.1594142421052633,-0.25782080210526315,-0.9990965368421054,-0.18853062736842108,-0.4021720752631579,8.326423289473684
154,1747679555260,3.419343666666667,-0.47505741,-0.8780569666666667,-0.7198075,0.06428570166666667,9.04518336111111
155,1747679555270,3.7825819999999997,-0.64101636,-0.7792138,-1.2419642,0.5482113,9.837976
156,1747679555280,4.227613905263158,-0.7554406757894737,-0.7067159221052632,-1.5692805157894736,0.8362809736842105,10.190409789473684
157,1747679555290,5.559036294736843,-0.7873993305263158,-0.6246613073684211,-2.047696,1.2719738631578945,10.320764894736842
158,1747679555300,6.178068315789473,-0.6053840084210527,-0.5149896810526315,-2.5684978315789473,1.5505683210526318,9.403909157894736
159,1747679555310,5.98898827368421,-0.2911410336842105,-0.2616839568421052,-2.8810685789473687,1.3375716947368421,8.601541105263157
160,1747679555320,5.533243642105264,0.017655608421052637,0.1000345694736842,-2.9600101263157894,0.9197079842105262,7.936872831578947
161,1747679555330,4.828046621052632,0.42967563210526316,0.7359449800000001,-2.561209152631579,0.49685437184210524,7.621106378947369
162,1747679555340,4.260703578947369,0.7742844868421053,1.3433649010526316,-1.7383771,0.036884755,7.498657
163,1747679555350,4.189182,0.81991035,1.424135,-1.7383771,0.036884755,7.498657
164,1747679555360,3.807835736842105,1.0753997789473684,0.807851994736842,-0.1458640242105263,-0.6628252152631579,7.12284307368421
165,1747679555370,3.501171315789474,1.2482950105263158,0.07478106947368422,-0.06496005789473684,-0.7828636168421053,6.4728641210526305
166,1747679555380,2.9950738684210525,1.3570930894736843,-0.21988595684210524,-0.6909426,-0.6508270168421052,5.75885717368421
167,1747679555390,2.5134847,1.3919805,-0.26376486,-1.2568779,-0.56605446,5.3138013
168,1747679555400,1.8462322,1.3719678,-0.092924796,-1.9663435,-0.6427534,4.94522
169,1747679555410,1.3566532,1.3290137,0.08670134,-2.3615563,-0.68642926,4.826976
170,1747679555420,1.1911053242105263,1.3003433947368421,0.16747144210526316,-2.456420815789474,-0.6837380736842106,4.867007368421053
171,1747679555430,0.7209226210526316,1.231750505263158,0.42771351631578947,-2.677603263157895,-0.7041462863157895,5.021358289473684
172,1747679555440,0.8100163452631579,1.3119811157894736,0.5460684242105264,-2.5607605894736842,-0.36090712010526316,4.968319447368422
173,1747679555450,1.002770194736842,1.4851846157894737,0.610730787368421,-2.4403858,0.045406863,4.654403
174,1747679555460,0.9637211,1.7375655,0.6538904,-2.1100979368421053,0.612968147368421,3.728857326315789
175,1747679555470,0.6204138777777778,2.0845065166666665,0.6343115588888888,-1.7383771,0.7559377,2.9787436
176,1747679555480,0.42777133,2.2930398,0.63875884,-1.1642,0.40546596,2.2309284
177,1747679555490,0.4051125605263158,2.514078663157895,0.7062727284210526,-0.4547344052631579,-0.43519524,1.5840330315789475
178,1747679555500,0.40385374,2.5263586,0.7100235,0.2985751915789474,-1.307309714736842,0.8875748521052632
179,1747679555510,0.49469440105263157,2.491959368421053,0.5263383373684211,0.6303767910526316,-1.6952339473684213,0.49499718
180,1747679555520,0.5152466031578947,2.361812652631579,0.2023331005263158,0.9252866184210525,-2.174826884210526,-0.2523693694736842
181,1747679555530,0.4600896547368421,2.203432347368421,-0.021480243684210525,0.6843127589473684,-2.2860627210526316,-0.8027742810526316
182,1747679555540,0.41944771578947365,1.9589383315789473,-0.24208230631578948,-0.15219954,-2.1021647,-1.2791153
183,1747679555550,0.5063578,1.8864403999999997,-0.1739518,-0.9968976284210527,-1.6611455631578949,-1.3971913210526317
184,1747679555560,0.8486801631578947,1.7763321210526317,0.07758130236842105,-1.8734414,-1.0046627499999998,-1.6081136421052633
185,1747679555570,1.3180922,1.6697177,0.67195064,-2.2528994,-0.69282085,-2.0077558
186,1747679555580,1.6875691263157895,1.6400197736842106,1.4567616884210526,-1.821187347368421,-0.6130942500000001,-2.8336153789473686
187,1747679555590,2.0029168,1.5633087,2.204142,-0.7775093,-0.7141261,-3.6418700000000004
188,1747679555600,2.0317412842105265,1.4598026789473686,2.374904942105263,-0.023975442105263152,-0.8495267578947369,-4.073301578947368
189,1747679555610,1.9503031578947367,1.2799710684210526,2.3492403789473686,1.5074251410526316,-1.1135439157894738,-4.789663368421053
190,1747679555620,1.718371642105263,1.0389453189473683,1.7483457894736842,2.726871663157895,-1.3180185000000002,-5.246044905263158
191,1747679555630,1.6016866736842106,0.9466916315789474,0.901801147368421,3.585810694736842,-1.4171440578947367,-5.523238042105263
192,1747679555640,1.6984960333333334,0.9579382555555556,0.19777449444444442,3.386251266666667,-1.2045025,-5.501110333333333
193,1747679555650,2.183750305263158,1.0742436631578947,-0.6405378715789474,2.4247293052631576,-0.7122198515789474,-5.335415
194,1747679555660,2.669193,1.2162592,-1.1160128,1.0888326084210525,-0.11101869578947368,-5.128417684210525
195,1747679555670,3.422815947368421,1.3406513789473686,-1.3596846631578947,-0.4421194494736842,0.6500841557894738,-4.921363794736842
196,1747679555680,4.314627,1.4163862,-1.3039368,-1.5508907,1.2161316,-4.8935547
197,1747679555690,5.4036107,1.4881392,-0.88367033,-2.3860574,1.6912392,-5.2600055
198,1747679555700,6.105627855555556,1.4820647999999998,-0.40727053444444444,-2.52898015,1.9761971999999999,-5.923132166666667
199,1747679555710,6.577191789473685,1.3776453157894737,0.03031125578947369,-2.2640567789473685,2.190455273684211,-6.458595210526315
200,1747679555720,6.879514578947369,1.2187254842105262,0.3127497421052632,-1.7255939789473684,2.357085042105263,-6.729284452631578
201,1747679555730,7.526034710526316,0.8927421052631579,0.5534929684210527,-0.47968401663157895,2.314866936842105,-6.978556252631578
202,1747679555740,7.935486263157895,0.5095208631578947,0.21553788542105262,0.8961320075789474,1.5963185684210526,-7.63330052631579
203,1747679555750,7.245163989473684,-0.06321724210526315,-1.115961451263158,1.6911550947368421,0.19757135789473682,-8.932922526315789
204,1747679555760,5.87482415,-0.359252275,-2.3675383749999996,0.46352285,-0.020639483,-9.936513
205,1747679555770,4.9433184,-0.5702398,-2.2752845,-1.375626847368421,1.6112322912631578,-9.803242473684211
206,1747679555780,4.363438,-0.8479769,-1.3551888,-2.3210764,2.8353324,-9.653152
207,1747679555790,3.798717266666666,-0.9922689333333332,-0.5300041722222222,-2.430443277777778,4.125781011111111,-9.339492499999999
208,1747679555800,3.2856817,-1.0627472,0.25607708,-1.6456991,4.350137,-8.987363
209,1747679555810,3.0012907789473684,-1.0669861210526315,0.6186947536842106,-0.37708229578947366,4.179526789473685,-8.559407684210527
210,1747679555820,2.8019603352941176,-1.1017964117647059,0.7819199317647059,0.5735583,4.054871305882353,-8.205020552941178
211,1747679555830,2.6623595,-1.2379804,0.7188096,2.4630227,3.9634466000000006,-7.4299474000000005
212,1747679555840,2.5102218684210524,-1.3548708947368422,0.352672352631579,3.722052278947369,3.689505652631579,-6.904043736842105
213,1747679555850,2.192253884210526,-1.3851083210526314,-0.17479957736842106,4.7525545,2.7839754105263155,-6.3818403578947365
214,1747679555860,1.9223779421052634,-1.2975303368421052,-0.5842248968421052,4.996836315789473,1.7890752526315792,-6.100947
215,1747679555870,1.3844501,-0.9750151136842106,-1.461443732631579,3.9238355842105266,-0.01407969105263158,-5.570389631578947
216,1747679555880,1.2002125333333333,-0.85611215,-1.7054110333333332,2.7101638,-0.24221432000000004,-5.35801
217,1747679555890,1.1251328684210526,-0.8694539473684211,-1.6271200210526315,0.9993504457894736,0.09328765842105263,-5.196538284210526
218,1747679555900,1.1086911,-0.9319326,-1.4894204,0.07896267,0.37989965,-5.166262
219,1747679555910,1.1086911,-0.9319326,-1.4894204,0.07896267,0.37989965,-5.166262
220,1747679555920,1.1086911,-0.9319326000000001,-1.4894204,0.07896267,0.37989965,-5.166262
221,1747679555930,0.43552979736842107,-1.9908584684210529,0.1504131147368421,-2.059469934736842,1.405860642105263,-5.007145684210527
222,1747679555940,0.021685771210526315,-2.3865909736842106,0.8785771463157895,-2.0188217736842105,1.3163224894736842,-4.722608194736843
223,1747679555950,-0.3941592273888889,-2.2734339777777777,1.2614844111111112,-0.8723177833333333,0.6680534666666667,-3.8059206999999997
224,1747679555960,-0.5017528152631578,-1.9801456789473684,1.1168284473684211,0.3134327831578948,0.027521641052631576,-2.6847026789473687
225,1747679555970,-0.1804963942105263,-1.9006601736842104,0.6093949136842105,1.1394045789473686,-0.5085302442105263,-1.587032594736842
226,1747679555980,0.3598691711111111,-1.8911318555555556,0.020263527777777776,1.2260149444444446,-0.7400475555555555,-0.7677887888888889
227,1747679555990,0.5815016547368421,-1.8501530210526314,-0.2303161663157895,0.7972307305263158,-0.5791179857894736,-0.6262208642105263
228,1747679556000,0.522234332368421,-1.8762801105263158,-0.3332569489473684,0.16951008,-0.23901853,-0.6857635
229,1747679556010,-0.007572559444444442,-1.8197044333333332,-0.15046806777777777,-0.43360670000000007,0.13932760333333333,-0.5598848416666667
230,1747679556020,-0.3712721,-1.7236544000000003,0.07010544,-0.8392946,0.43848914,-0.10626004999999998
231,1747679556030,-0.5987848052631579,-1.663539042105263,0.27773393368421057,-0.8859419263157896,0.5389603484210527,0.4158312763157895
232,1747679556040,-0.6692017368421053,-1.6398270684210525,0.42185617157894734,-0.7592316263157894,0.52191614,1.1389770421052632
233,1747679556050,-0.5802878305263158,-1.6448367,0.5508725452631579,-0.37792330210526315,0.29720156,2.0077276368421053
234,1747679556060,-0.14072790315789474,-1.6461468894736841,0.5132876799999999,0.2535537642105263,-0.16276809736842104,3.0238209631578945
235,1747679556070,0.21096716555555553,-1.6002969111111112,0.39589475888888886,0.7607313766666667,-0.5550467666666666,3.5440432333333334
236,1747679556080,0.33014846,-1.5830773,0.35467622,1.4318475,-0.45739758,3.8330848
237,1747679556090,1.0943558789473684,-1.2791617894736842,-0.04645115968421053,1.591581042105263,-0.14011721421052634,3.710467494736842
238,1747679556100,1.0257115,-1.074462,-0.18908335,1.6417044,0.24674169999999998,3.5135057
239,1747679556110,0.8114293,-0.8933714999999999,-0.30769518,1.5768916315789472,0.4592898368421053,3.540193552631579
240,1747679556120,0.6618864368421052,-0.764509294736842,-0.39278124000000003,1.3771266368421053,0.6535602894736843,3.8422797421052635
241,1747679556130,0.5488238,-0.6146582,-0.4814639,1.1580747,0.7420893,4.226167
242,1747679556140,0.6806146557894737,-0.4639078968421052,-0.5744112010526315,0.8368697210526316,0.7058703078947368,4.737045363157895
243,1747679556150,0.8658155721052632,-0.4046661873684211,-0.6504800094736842,0.5649471505263158,0.65922297,5.030609521052631
244,1747679556160,1.2786319347368422,-0.34917526315789477,-0.8032084605263158,-0.06580105368421055,0.6206492121052631,5.335162789473684
245,1747679556170,1.4710347333333336,-0.33317882666666665,-0.8442957033333333,-0.7916536444444444,0.6365690027777777,5.429796638888889
246,1747679556180,1.4230368,-0.35595748,-0.6757335,-1.5330054105263158,0.7106359421052632,5.457836184210526
247,1747679556190,1.359419211111111,-0.4407809161111111,-0.4724338338888889,-2.088848805555555,0.7500788,5.706350944444444
248,1747679556200,1.3941609368421053,-0.6212862605263157,-0.12562847283157896,-2.2406208526315785,0.5669935736842106,6.259643189473685
249,1747679556210,1.5540313789473685,-0.7639698489473684,0.27280140754210525,-2.005365857894737,0.3236088631578947,6.786107868421053
250,1747679556220,2.0572603333333332,-0.8066770477777777,0.44364861222222224,-1.2866461055555556,-0.2648215888888889,7.645722466666665
251,1747679556230,2.613753594736842,-0.8278358421052632,0.34879312,-0.6530977347368422,-0.8387058894736842,8.195227589473683
252,1747679556240,3.351576989473684,-0.7789729631578947,0.073368104,-0.11598058378947369,-1.3517144210526315,8.654187842105262
253,1747679556250,3.6453645411764706,-0.7379214788235293,-0.054162764470588244,0.0928737575882353,-1.5271728823529411,8.877923117647057
254,1747679556260,4.157031226666667,-0.6025204146666667,-0.30841107599999995,0.11127566600000001,-1.4736590999999999,9.046840333333332
255,1747679556270,4.797860466666667,-0.36506896666666666,-0.6708523166666667,-0.17048656083333336,-1.1412080583333333,9.1923375
256,1747679556280,5.2988610000000005,-0.2596037,-0.8513571200000001,-0.8330095949999998,-0.47625275,9.2731733
257,1747679556290,5.597961416666667,-0.13028589166666665,-0.8170426666666667,-1.7805141444444443,0.31681236444444444,9.204617555555554
258,1747679556300,5.782821155555555,0.03019530511111111,-0.7254126977777777,-2.4302657666666665,0.6373383766666667,9.047372833333334
259,1747679556310,6.110400000000001,0.15753897,-0.5039172,-2.8856661,0.75806826,8.710927
260,1747679556320,6.228188125,0.24915194437500002,-0.391284769375,-3.04845163125,0.6601971412500001,8.217577
261,1747679556330,5.9843040555555564,0.5298346666666666,-0.15369503944444443,-3.1061757,0.40546596,7.130075999999999
262,1747679556340,5.413260076923077,0.7280697076923077,0.030981191692307692,-3.0331642153846152,0.3369613192307692,6.550490484615384
263,1747679556350,5.011837375,0.8208255125,0.09676869825000001,-2.934668275,0.28189538625,6.0975692375
264,1747679556360,4.02908,0.9546299,0.12477427,-2.728007,0.058190025,5.438437
265,1747679556370,3.45403229,0.988016966,0.114230995,-2.728007,0.058190025,5.438437
266,1747679556380,3.1872219999999998,0.9927725942857143,0.13209599,-2.686461714285714,-0.22669191428571425,5.313801142857143
267,1747679556390,2.8391112555555558,1.0245387555555556,0.18676481111111112,-2.6412472222222223,-0.6299703,5.031743155555556
268,1747679556400,2.933406676470588,1.1737071764705882,0.3670800588235294,-2.6545038,-0.5830987,4.552138
269,1747679556410,2.9848597117647055,1.2777329235294117,0.6306905823529412,-2.514954205882353,-0.49913082411764703,3.7893463882352942
270,1747679556420,2.7531488,1.3836826,1.0351077,-2.227333,-0.33276173,2.9180233
271,1747679556430,2.4379895222222228,1.4549201666666667,1.4039596222222221,-1.5935012,-0.016378429,1.9283935
272,1747679556440,1.9345808,1.5042468,1.6999198,-0.36312175,0.2584596,0.8972183
273,1747679556450,1.240373511111111,1.5064162222222222,1.6504573999999999,0.66426585,0.3001232444444445,0.41240496666666665
274,1747679556460,0.7072554152631578,1.4813569526315788,1.4822463473684209,1.1615508263157897,0.2748310257894737,0.2650684410526316
275,1747679556470,-0.10194136777777779,1.440195388888889,0.8991407600000001,1.9257746333333334,0.11411637000000001,0.31611699833333334
276,1747679556480,-0.45899324142857145,1.4454639,0.37873324999999997,2.0942892714285715,0.07051664885714286,0.4982009985714285
277,1747679556490,-0.7626628615789474,1.4422563105263158,-0.2828270331578947,1.716777494736842,0.2545349341052632,0.7589582894736843
278,1747679556500,-0.8837380666666667,1.4368869999999998,-0.6053365333333334,0.9541359388888888,0.6413626911111111,0.8418245999999999
279,1747679556510,-0.9623787263157895,1.4425388736842106,-0.5198451568421053,-0.1516949405263158,1.194377847368421,0.7327191842105263
280,1747679556520,-1.028653888888889,1.4484119666666666,-0.31943704500000003,-0.3406328511111111,1.2012179888888888,0.6345716255555556
281,1747679556530,-1.1683374157894737,1.425095294736842,0.0043384385263157904,-0.38420275842105267,0.9790824315789473,0.4901754563157895
282,1747679556540,-1.205716589473684,1.4099894473684211,-0.05292509494736842,-0.06703451915789474,0.18686266105263158,0.4320905584210526
283,1747679556550,-1.1166229,1.3929567,-0.29793286,0.050200548,-0.39454702,0.44448125
284,1747679556560,-0.9031371052631578,1.3771571999999999,-0.6262541152631579,-0.11631696884210525,-0.7822469515789474,0.40579534210526313
285,1747679556570,-0.6952174622222222,1.4167658666666667,-0.7302938366666667,-0.6881455155555556,-1.1659162666666667,0.3254084511111111
286,1747679556580,-0.40351334210526313,1.4190066315789474,-0.44981353473684216,-1.137568394736842,-1.0428440210526317,0.26534876736842106
287,1747679556590,0.10006667473684212,1.4227831263157895,-0.05215438736842106,-1.4490178631578947,-0.7040341105263158,0.058519418421052634
288,1747679556600,0.4288503357894737,1.4768096578947367,0.20510764,-1.5025052842105264,-0.5873036578947368,-0.2508555636842105
289,1747679556610,0.6979812421052631,1.5751004578947367,0.3950355578947368,-1.3819062105263158,-0.6812150815789474,-0.7204686126315789
290,1747679556620,0.9519035452631579,1.6394802684210525,0.4468270621052632,-1.1373440842105262,-0.9319444889473685,-1.5239016736842104
291,1747679556630,1.1165009,1.5491533,0.3717602,-1.1450253,-0.7695198,-2.0908463
292,1747679556640,1.1258564,1.4486831333333334,0.38152249166666663,-1.2380582333333332,-0.45633230666666663,-2.4274694333333335
293,1747679556650,1.10381,1.2997268,0.5645654,-1.3382641100000001,0.30330718700000003,-3.0598102
294,1747679556660,1.1335849315789475,1.1782634157894738,0.8300225810526316,-1.1201877684210526,0.7517887994736842,-3.434311736842105
295,1747679556670,1.2741619,1.0830041,0.9779984399999999,-0.7357272444444445,0.8740636199999999,-3.689214977777778
296,1747679556680,1.35836165,1.0634794333333335,0.9694564483333333,-0.3667909888888889,0.8374895888888889,-3.9027411555555553
297,1747679556690,1.503909652631579,1.0746033157894737,0.8872091421052632,0.03321238421052632,0.5934009147368421,-4.1139500842105265
298,1747679556700,1.6968690450000001,1.1826769750000001,0.66584917,0.3833084875,0.264478328,-4.305422825
299,1747679556710,2.107244968421053,1.352263394736842,0.3969109189473684,0.3812732763157895,0.21663397842105261,-4.352737268421053
300,1747679556720,2.7822187888888887,1.474770161111111,0.29650922444444444,-0.014247902777777785,0.6479909927777778,-4.32464505
301,1747679556730,3.550779347368421,1.5477917684210525,0.4260179936842105,-0.5524022736842106,1.3977310621052632,-4.342028578947368
302,1747679556740,4.76442475,1.7877192000000002,1.11613485,-0.5362803250000001,1.99276209,-4.350270399999999
303,1747679556750,5.658586210526316,2.0612624210526316,1.6208710263157895,-0.06574499263157894,2.3218751578947368,-4.420858136842105
304,1747679556760,6.433532,2.242764,1.9156665,0.8021084526315789,2.38074497368421,-4.625108578947368
305,1747679556770,7.345411472222223,2.1568287833333333,1.77986215,1.9879152000000002,2.2132185,-5.104477
306,1747679556780,7.998915,1.7868651,1.1625057,3.0805390315789474,1.6238472157894737,-6.049982684210526
307,1747679556790,8.037064736842105,1.4238621,0.5709880184210526,3.541237584210526,1.1977417684210527,-6.648548815789473
308,1747679556800,7.754755121052631,0.8862168242105263,-0.28277564947368417,3.6454653473684204,0.5462489747368421,-7.571123042105263
309,1747679556810,7.050894178947368,0.2674674715789474,-1.2315160578947368,3.163573731578947,0.23014600684210526,-8.260572989473685
310,1747679556820,6.0432202,-0.12507933684210526,-1.6822254894736843,2.0272177315789475,0.42974276263157896,-8.634648947368422
311,1747679556830,4.665761052631579,-0.26478287263157896,-1.4144049157894738,0.3516701736842105,1.4033938105263157,-8.391768210526317
312,1747679556840,4.086985663157895,-0.2416102647368421,-0.9462260052631578,-0.2640522,1.9266624,-7.919969
313,1747679556850,3.8465252,-0.24613173000000002,-0.6108143,-0.46325654,2.1120183,-7.383076
314,1747679556860,3.7784332,-0.26101921499999997,-0.4965955,-0.39034514444444446,2.0088061222222224,-7.014731555555556
315,1747679556870,3.649583936842105,-0.3392074626315789,-0.30895399263157897,-0.19368875005789474,1.923578847368421,-6.734723
316,1747679556880,3.5931938,-0.50288,-0.268646,0.013448953727777777,1.8894966444444445,-6.6001665
317,1747679556890,3.4573696157894735,-0.7238673842105263,-0.20531958631578945,0.14927007,2.0001657,-6.69172
318,1747679556900,3.153582536842105,-0.9887593842105263,-0.03889822994736842,0.38088080789473683,2.270854731578947,-6.855658157894737
319,1747679556910,2.7302073333333334,-1.2685689444444446,0.1855716328888889,0.8480830344444444,2.5023783777777777,-6.979341133333333
320,1747679556920,2.3711092421052635,-1.4811128789473684,0.39829819736842104,1.3697258210526315,2.5847150736842104,-7.0110187999999996
321,1747679556930,2.183878863157895,-1.6982724263157896,0.47362196947368423,2.196482505263158,2.5705862736842104,-7.019092294736842
322,1747679556940,2.0741816,-1.8837558999999997,0.49622938000000005,3.313221433333333,2.3099207,-7.103621572222222
323,1747679556950,1.4212641368421053,-2.9285521263157896,0.03637416157894737,3.938412857894737,1.5708083263157895,-7.184264057894738
324,1747679556960,0.7797019,-3.3905654,-0.33698204,4.2196426,0.8092009,-7.105042
325,1747679556970,0.2918043383333333,-3.4296960499999996,-0.560836775,4.018070955555555,0.3483560133333333,-6.693436
326,1747679556980,-0.3545734542105263,-3.2801230368421055,-0.8841584078947369,3.2583260631578947,-0.19523058736842105,-5.626848842105264
327,1747679556990,-0.5949312805263157,-2.9744348473684212,-1.0453904105263156,2.4048817000000002,-0.38512783631578945,-4.686277105263158
328,1747679557000,-0.4608025705263158,-2.7561191105263156,-1.0855185210526315,1.1261729,-0.5238363905263158,-3.415249321052632
329,1747679557010,0.07545544315789474,-2.6897356789473683,-0.9587114789473684,-0.20372464736842102,-0.438839552631579,-2.3719637947368417
330,1747679557020,0.5757214047368421,-2.736825905263158,-0.7248018736842106,-0.4312986,-0.4211786,-2.1973727
331,1747679557030,0.9217757466666666,-2.7718314066666667,-0.220615552,-2.1008507733333333,0.026445173333333318,-1.38812736
332,1747679557040,0.8968493999999999,-2.6979308,0.20433694,-3.5988881,0.45329070421052625,-0.5947114657894738
333,1747679557050,0.72503304,-2.5646756,0.6836654,-3.7836832999999994,0.44701126,-0.28522435
334,1747679557060,0.6386368125,-2.485234775,1.031447,-3.611110475,0.252068005,-0.06391582075
335,1747679557070,0.5794122572222222,-2.411570161111111,1.3592971999999999,-3.117183277777778,-0.05354429722222222,0.13188555338888888
336,1747679557080,0.48482935315789466,-2.233476889473684,1.7446207263157896,-1.4581567052631579,-0.6987639068421053,0.43035248631578943
337,1747679557090,0.36480457,-2.0628939,1.662823,-0.1447427,-0.82171774,0.61811924
338,1747679557100,0.27000759368421057,-1.9569216631578947,1.5044427368421054,0.5583313,-0.751073945263158,0.7661348268421052
339,1747679557110,0.24472839999999998,-1.9286623999999999,1.462208,1.8800431,-0.5242288610526316,1.1894369815789474
340,1747679557120,0.08257162947368421,-1.6444256421052632,0.9449093894736841,2.739038042105263,-0.37683000736842104,1.6404919789473684
341,1747679557130,-0.15812019315789475,-1.0609233105263158,-0.09238530526315791,3.548358142105263,-0.32878100631578944,2.4183586842105265
342,1747679557140,-0.10933443789473685,-0.6836621473684211,-0.8493738684210527,3.7129133526315785,-0.6477994563157895,3.431200263157894
343,1747679557150,0.17471108444444444,-0.47798614,-1.5737557666666668,3.0797510166666666,-0.9574796638888888,4.491240105555556
344,1747679557160,0.47488722947368417,-0.31973427894736844,-1.8371378368421052,2.29045,-0.91546094,5.1657295
345,1747679557170,0.9064575705263157,-0.1317587982631579,-1.9600911736842106,1.4650388168421051,-0.6024977025526316,5.566493073684211
346,1747679557180,1.3166279,-0.049909707,-1.9799753,-0.03395528,0.0070573715,5.9795914
347,1747679557190,1.504474805263158,-0.046210313315789474,-1.8377541631578949,-1.0404611494736842,0.4250892607631579,6.016370852631579
348,1747679557200,1.594030994736842,-0.03318536410526316,-1.628430252631579,-1.7169596842105264,0.7036276426315788,6.040928
349,1747679557210,1.7455719777777778,0.04527262133333334,-1.2384210444444446,-2.6046140666666666,0.8727024472222222,6.14523975
350,1747679557220,1.9616839999999998,0.1929914842105263,-0.71218796,-2.767702189473684,0.5867289894736842,6.253139542105264
351,1747679557230,2.254706947368421,0.40778756263157895,-0.11560927789473684,-2.5560510578947366,-0.001408665789473693,6.5469279894736845
352,1747679557240,2.6042737894736843,0.6476573036842105,0.2115301889473684,-1.8164216578947368,-0.5573641352631579,7.14067247368421
353,1747679557250,2.9241428894736843,0.7920364421052631,0.23400914631578945,-0.699296505368421,-0.8867548705263159,8.01968307894737
354,1747679557260,4.342244005263158,1.2683334736842105,-0.17980917368421054,0.09084876368421053,-0.976461297368421,8.47219605263158
355,1747679557270,5.0590014,1.3958855,-0.5678602,0.31119013,-1.0294441,8.335955
356,1747679557280,5.4365710736842106,1.5680613894736843,-1.0004581157894736,0.17915352210526314,-1.0622431,7.738846052631579
357,1747679557290,5.1515892421052625,1.7061721578947369,-1.1446316315789473,-0.09876815000000001,-0.9993364736842105,7.163827894736842
358,1747679557300,4.5113373,1.7961392,-1.014485,-0.9759847605263158,-0.6835698631578948,6.214397536842106
359,1747679557310,3.871419,1.7551377,-0.7372359,-1.0097368,-0.6704503,6.1873174
360,1747679557320,3.827163266666667,1.7424467333333333,-0.7042068333333334,-1.1642000333333333,-0.6283723866666667,6.2088002666666675
361,1747679557330,3.460940347368421,1.5203546789473685,-0.1693532680105263,-2.013719715789474,-0.4522955284210526,6.444382605263159
362,1747679557340,3.3968690736842104,1.4256604052631578,0.2200079807789474,-1.9548498473684208,-0.5963864757894737,6.733965894736842
363,1747679557350,3.5116787052631575,1.4817935368421054,0.44202300842105263,-1.730639894736842,-0.7392439289473685,6.7924432421052625
364,1747679557360,3.936988994444445,1.6877778333333333,0.4788742283333333,-1.1325971600000002,-1.0763749222222223,6.3952214666666665
365,1747679557370,4.0822845,1.8156638000000003,0.32294875,-0.71785456,-1.2030821,5.392631
366,1747679557380,3.609584289473684,1.8900627894736841,0.24937191631578948,-0.629381567368421,-1.0304533836842105,4.511489468421053
367,1747679557390,2.703027147368421,1.8693307999999997,0.1903614347368421,-0.6040394947368422,-0.8344448321052632,3.7692811157894734
368,1747679557400,2.1805906,1.7936987999999998,0.14185826,-0.6388568336842105,-0.7099210842105264,3.414660463157895
369,1747679557410,1.737588147368421,1.6619079157894736,0.05353524421052631,-0.75087774,-0.5958818,3.207775
370,1747679557420,1.5250527333333332,1.5821824500000001,0.007138675083333333,-0.87462584,-0.53954125,3.117227805555556
371,1747679557430,1.187868310526316,1.393008,0.016746822642105263,-1.1754694252631577,-0.4208982947368421,2.926040947368421
372,1747679557440,0.9199706052631579,1.2581857368421052,0.09900696136842106,-1.4306841263157895,-0.2817412147368421,2.7328357157894736
373,1747679557450,0.6980069368421052,1.1515969631578948,0.22725262000000002,-1.6273093210526315,-0.05265346157894737,2.5381727210526317
374,1747679557460,0.4476213283333333,1.0567272166666666,0.4499398766666667,-1.70553145,0.2586371333333333,2.2220512
375,1747679557470,0.22985375236842107,1.0279497894736842,0.6213922526315789,-1.5687759789473685,0.3976727215789474,1.9259266105263158
376,1747679557480,-0.03311150368421053,1.0492983736842105,0.7052451894736841,-1.2132021789473684,0.4472915768421053,1.6073567210526314
377,1747679557490,-0.2633988,1.0839803,0.724667,-0.8723178,0.43742388000000004,1.3723259
378,1747679557500,-0.4723374842105263,1.1479489210526317,0.698411552631579,-0.4615184726315789,0.4012049236842105,1.108308742105263
379,1747679557510,-0.6338777,1.2157712,0.64364,-0.41318914,0.39694387,1.0772479
380,1747679557520,-0.7695221473684211,1.2431311999999999,0.5488430000000001,0.23942501789473683,0.33975602263157895,0.5734902842105263
381,1747679557530,-0.9080353222222222,1.2282995277777777,0.37143479500000004,0.7548132911111112,0.18531148222222224,0.10193980866666667
382,1747679557540,-1.0912152315789474,1.1920591210526315,0.23424036263157896,1.0030507842105265,0.027017046842105263,-0.18436069526315788
383,1747679557550,-1.2806294157894738,1.176054036842105,0.06591793284210526,1.1618312315789474,-0.16871112289473683,-0.4172609594736842
384,1747679557560,-1.3662121666666667,1.1632174666666666,-0.11570346866666667,1.0728536777777777,-0.31157481555555555,-0.4780370566666666
385,1747679557570,-1.2388827631578947,1.166343147368421,-0.3906232594736842,0.6750057163157894,-0.4503331957894737,-0.4506205189473684
386,1747679557580,-0.9326551368421052,1.1852255894736843,-0.4628385163157895,0.17629412210526313,-0.5029235842105263,-0.4339687905263158
387,1747679557590,-0.58409,1.2201642,-0.44680782999999996,-0.287488,-0.5298355,-0.4886897
388,1747679557600,-0.20287259,1.2338314,-0.31745747,-0.7688750736842105,-0.5278170842105263,-0.7208050431578946
389,1747679557610,0.3096476416666667,1.2522170000000001,0.015436619166666672,-1.1336624777777777,-0.5307232527777778,-1.1482062966666668
390,1747679557620,0.4463197,1.270928,0.33759218,-1.2398337,-0.4946818,-1.6732628
391,1747679557630,0.47406514842105263,1.2777103157894738,0.441791792631579,-1.1429507842105262,-0.48660823157894734,-1.8796435999999999
392,1747679557640,0.52427444,1.2830161764705883,0.6354568894117646,-0.921883844117647,-0.4983162352941176,-2.2129754529411763
393,1747679557650,0.5511615442105263,1.2681021263157894,0.7240247157894737,-0.5540842431578947,-0.5608402678947368,-2.523455284210526
394,1747679557660,0.5878472178947368,1.2371711157894738,0.45823353684210527,-0.20972377473684212,-0.5794543952631579,-2.757028494736842
395,1747679557670,0.8327707599999999,1.2305230444444444,0.146441128,-0.31719704444444446,-0.47231128666666666,-2.9153603555555554
396,1747679557680,1.1288065842105264,1.2097082736842106,-0.06687489642105264,-0.6731695578947369,-0.3851278521052632,-3.1218531
397,1747679557690,1.3141873,1.1357204,-0.13099772,-1.1535474,-0.34980595,-3.3872721000000006
398,1747679557700,1.4031597277777779,1.076712738888889,-0.0005355695444444455,-1.6269978888888887,-0.18315136333333334,-3.6353600111111106
399,1747679557710,1.3644359000000001,1.1849386166666667,0.17003332773333335,-1.9485300333333333,0.07002629666666665,-3.723303488888889
400,1747679557720,1.4298704,1.3924687,0.43521509999999997,-2.4125769263157895,0.7522373163157895,-3.5355118631578946
401,1747679557730,1.8066947000000002,1.7629474,0.9428541999999999,-2.4032199555555556,1.289753161111111,-3.0951531777777777
402,1747679557740,2.4713525526315787,2.2500343894736843,1.3362230421052632,-1.8343629736842104,1.6217728210526317,-2.498001105263158
403,1747679557750,3.3353665631578946,2.632664910526316,1.4833509842105261,-1.286481047368421,1.6557491052631579,-2.1593594421052633
404,1747679557760,5.3146108666666665,3.0362757,1.2528069,-0.28642275899999997,1.377696588888889,-2.112861644444445
405,1747679557770,6.479415084210527,3.1573108052631578,0.9219680263157894,0.26869173,1.1129692336842105,-2.622412715789474
406,1747679557780,7.353140399999999,3.2097187,0.6075195,0.6078941052631579,0.9332200315789473,-3.600773263157895
407,1747679557790,7.74062145,2.5084338666666666,-0.4183073777777778,0.649944,1.0307758,-5.152414
408,1747679557800,6.5801461578947364,0.8653820221052633,-1.2326721105263156,-0.9857403131578947,2.7562786263157895,-8.332787157894737
409,1747679557810,5.155802147368422,0.2648470684210526,-0.9986083778947368,-1.6570246315789472,3.5483301315789473,-8.951088184210528
410,1747679557820,4.0866776,0.19414754,-0.68744826,-1.9674088,4.0273623,-8.9564705
411,1747679557830,3.1359333473684208,0.3848718515789474,-0.08362493368421053,-1.9593352,4.304555142105263,-8.22805407894737
412,1747679557840,2.8808035789473685,0.42798005789473686,0.2228852889473684,-1.8225889631578946,4.351987447368422,-7.820002084210526
413,1747679557850,2.9425114736842106,0.33981116526315785,0.6256568489473683,-1.0213985947368422,4.2233148157894735,-6.8657504000000005
414,1747679557860,3.2806206421052635,0.17015284736842104,0.8097016494736842,0.32548710789473684,3.8643770842105267,-6.098872468421052
415,1747679557870,3.413953168421053,0.0459148747368421,0.6584889126315789,1.3695575868421053,3.3739072631578946,-5.750139005263158
416,1747679557880,3.2367075611111114,-0.06558360555555556,0.33081280944444447,2.093021077777778,2.8966441944444443,-5.550940888888889
417,1747679557890,2.7184412368421054,-0.25008804736842105,-0.24889023578947364,2.6674973105263162,2.3797358421052635,-5.254567473684211
418,1747679557900,2.3078855157894735,-0.37414619894736845,-0.45885651578947373,2.600722052631579,2.259473252631579,-5.0085471578947365
419,1747679557910,2.067836,-0.5023919,-0.5048934,2.488589,2.1823258,-4.860532
420,1747679557920,1.7168046210526313,-0.7147473631578948,-0.46137417684210524,2.3212866,1.9795892315789472,-4.710946421052632
421,1747679557930,1.4555778666666666,-0.9097234333333333,-0.4482721683333334,2.155871622222222,1.7440288333333334,-4.599068588888889
422,1747679557940,1.4022277578947369,-1.1784560736842105,-0.47285769157894736,2.0027726263157897,1.526403663157895,-4.637498947368421
423,1747679557950,1.4230368,-1.4688586,-0.47609466,1.9058899,1.358877,-4.7838326
424,1747679557960,1.2645023157894737,-2.1973309684210527,-0.44596004842105263,1.7695921315789473,1.021468694736842,-5.125053378947368
425,1747679557970,0.83176745,-2.6816603499999996,-0.41475496666666667,1.6496939333333334,0.77671035,-5.34629175
426,1747679557980,0.14341753555555553,-2.7473388777777776,-0.4335202722222222,1.5452388666666668,0.6213593888888889,-5.0908652666666665
427,1747679557990,-0.39100217368421053,-2.4982919842105265,-0.5192029210526317,1.2250181157894737,0.4161746668421053,-4.096457273684211
428,1747679558000,-0.7112166733333333,-2.045755688888889,-0.6724251711111111,0.5785713,0.15939008,-2.2911158
429,1747679558010,-0.1314794157894737,-2.197562157894737,-0.7363881884210527,-0.19912721684210527,0.35192247368421053,-0.9630684157894737
430,1747679558020,0.36775894210526316,-2.2759429736842107,-0.6627085810526316,-0.9371867105263159,0.6987498794736842,-0.2413242582105263
431,1747679558030,0.6368641526315789,-2.1784741736842106,-0.4511494894736842,-1.4156022263157895,0.8095373,0.06412606815789475
432,1747679558040,0.6503516,-2.1048717,-0.3008616,-1.6335888578947368,0.7548724368421053,0.21870143210526316
433,1747679558050,0.4903527263157895,-2.0188607842105264,0.013586922631578945,-1.6883097,0.6696513,0.38376123
434,1747679558060,0.35525921388888887,-1.9738942722222221,0.14386496583333333,-1.5898319555555558,0.6542641894444444,0.4791615205555555
435,1747679558070,-0.00264288252631579,-1.8086119315789473,0.36019960105263155,-1.1412127631578948,0.5756838878947368,0.8488889831578948
436,1747679558080,-0.21653980031578948,-1.6740464631578948,0.4082146626315789,-0.6595453736842105,0.43977867684210525,1.269051437368421
437,1747679558090,-0.39155595444444447,-1.5157175333333333,0.3311382394444444,-0.015964150555555556,0.174954759,1.9083311222222221
438,1747679558100,-0.4338727875,-1.2802023,0.004576071249999996,0.8283756499999999,-0.3471427925,3.1273477499999998
439,1747679558110,-0.22283104355555558,-1.1675292,-0.19184933555555558,1.0062155000000002,-0.5118443966666667,3.6819359
440,1747679558120,0.14266109557894738,-1.0466652131578946,-0.41561986631578945,1.0559215684210528,-0.6837380757894737,4.2837477368421055
441,1747679558130,0.4712906052631579,-0.9325491868421053,-0.5649315547368421,0.965542317894737,-0.7825272421052631,4.544344684210526
442,1747679558140,0.8000485542105263,-0.772678805263158,-0.6534857936842104,0.8205543763157895,-0.8771675389473683,4.733232600000001
443,1747679558150,0.94663703,-0.6210037,-0.6659712,0.70853347,-0.83982724,4.8482814
444,1747679558160,1.021858057368421,-0.4902917589473685,-0.6684374736842106,0.6681656121052632,-0.7767524136842106,4.928175821052631
445,1747679558170,1.0983379368421051,-0.3012116094736842,-0.7102611978947369,0.6151827605263158,-0.6364179463157895,5.171616736842105
446,1747679558180,1.1887418,-0.09920927,-0.86170506,0.5423524,-0.5383576,5.574791
447,1747679558190,1.5343269,-0.01964661,-1.1819082,0.22596905,-0.63103557,6.0712037
448,1747679558200,1.974979494117647,-0.004256645058823528,-1.3263901058823528,-0.3034043164705883,-0.8725997747058823,6.225228382352941
449,1747679558210,2.3687587,0.059427940000000005,-1.288886633333333,-0.9692567599999999,-1.0859032,6.209688
450,1747679558220,2.4095704,0.07119692066666666,-0.9439252777777778,-1.378318,-1.0454232,6.1585555
451,1747679558230,2.407949052631579,0.029344671473684213,-0.4959532021052631,-1.3724310210526314,-1.0418910000000001,6.296142684210526
452,1747679558240,2.543182494736842,-0.0019974158368421054,-0.043471091578947366,-1.201596389473684,-1.072671447368421,7.165173421052631
453,1747679558250,2.8785942,0.0062234597,0.19945578,-0.4579302,-1.3373053,7.886413
454,1747679558260,3.4286993,-0.009884318,0.100368544,0.28455856,-1.6888423000000001,8.500005
455,1747679558270,4.390773,-0.022575295,-0.38921028,0.9663273,-2.139449,8.896283
456,1747679558280,5.086766411764706,0.04449737794117647,-0.8789327082352942,1.1538137,-2.3329510235294117,8.761933823529413
457,1747679558290,5.554309052631579,0.2461445694736842,-1.4602877242105263,0.9091954947368421,-2.357155205263158,8.155084368421052
458,1747679558300,5.412422368421053,0.4671576631578947,-1.6969718,0.20970976000000002,-2.0061788,7.5770944947368415
459,1747679558310,5.016822823529412,0.6142418264705882,-1.7102777705882355,-0.7543868105882353,-1.4920819176470588,7.230900129411765
460,1747679558320,4.7027998875,0.6635306375,-1.5730709250000001,-1.9501648375,-1.02904468375,7.13972986875
461,1747679558330,4.148462326315789,0.6548506105263158,-0.8376333705263158,-3.033401252631579,-0.8984167168421053,7.296201047368422
462,1747679558340,4.1121406,0.6652594,-0.10748686666666665,-3.453333177777778,-0.8139057988888889,7.363427805555555
463,1747679558350,4.1467156,0.7413239,0.5494339,-3.4225590000000006,-0.7354314,7.233406499999999
464,1747679558360,4.115150933333333,0.8747418533333333,0.8989238333333334,-3.053267638888889,-0.7623588777777778,6.921047555555556
465,1747679558370,4.114834105263158,1.0151818078947368,1.1948754210526316,-2.7035059789473683,-0.8120742836842105,6.632541642105263
466,1747679558380,4.057499133333334,1.2200015,1.3747812555555556,-1.9732085333333333,-0.90421648,5.929286899999999
467,1747679558390,3.5321796000000005,1.4486017,1.445124,-0.08105114395789474,-1.1309245578947367,3.7677112684210528
468,1747679558400,2.9832134666666668,1.495677711111111,1.3187022888888889,0.5518213796888889,-1.1866297000000001,3.128590466666667
469,1747679558410,2.0246763789473685,1.4539710263157894,0.9197843384210526,1.3034551957894738,-1.1173004010526315,2.5460220526315793
470,1747679558420,1.248882682105263,1.3141390842105265,0.40012223789473683,1.7057884578947367,-0.9513435100000001,2.2629983210526317
471,1747679558430,0.9856862400000002,1.2382244,0.14039393,1.643835,-0.80360824,2.1915135
472,1747679558440,0.6004867831578947,1.1797020789473684,-0.22384224526315788,1.1799406600000002,-0.5001763105263158,2.1559675315789475
473,1747679558450,0.40159298000000004,1.1598692368421053,-0.3440211747368421,0.52211237,-0.13249217,2.1542294
474,1747679558460,0.34674433,1.155245,-0.37163818,0.52211237,-0.13249217,2.1542294
475,1747679558470,0.34674433,1.155245,-0.37163818,0.52211237,-0.13249217,2.1542294
476,1747679558480,-0.17718236157894737,1.1765165473684212,0.10234669684210526,0.04644411421052632,0.09928676578947371,2.0576828631578947
477,1747679558490,-0.382376695,1.219431975,0.3249012175,-1.0912294599999999,0.6765755525,1.6958997249999999
478,1747679558500,-0.57011771,1.2946626375,0.5538268975,-1.0543446749999998,0.7182540000000001,1.4992254624999999
479,1747679558510,-0.738090095,1.3868553000000001,0.79641983,-0.8707198425,0.7032071525000001,1.32918275
480,1747679558520,-0.8344927573333333,1.4559560066666668,1.0232954626666666,-0.11598058133333332,0.5599291933333334,0.9671706066666667
481,1747679558530,-0.7685111541176471,1.4578759470588236,1.0549483047058823,0.8603648662352941,0.32262607811764704,0.6832882835294117
482,1747679558540,-0.654280872,1.46139034,0.883694708,1.6832497,0.043276336,0.4050665
483,1747679558550,-0.5816494,1.5027825,0.5845781,2.17585805,-0.2317138581428571,0.11029283157142857
484,1747679558560,-0.51224563375,1.5824976874999999,0.23954219125,2.3288659999999997,-0.430299928125,-0.148670857375
485,1747679558570,-0.3798571594117647,1.673536494117647,-0.19907533235294117,2.0651780764705885,-0.5434959388235294,-0.45641846999999997
486,1747679558580,-0.20238447,1.7351251,-0.5478475,1.5287865,-0.56392395,-0.744353
487,1747679558590,-0.016778935500000005,1.7625814000000002,-0.717711355,0.38043228,-0.37324175,-1.1789806
488,1747679558600,0.24082349000000003,1.7688049,-0.8060601,-0.2640522,-0.15166691,-1.4058816
489,1747679558610,0.47267786,1.70535,-0.63082695,-1.220659,0.30320066,-1.8096166
490,1747679558620,0.64693475,1.6189537,-0.3301484599999999,-2.0078888,0.5748429,-2.3188126
491,1747679558630,0.7653838577777777,1.5054399111111112,-0.1771516688888889,-2.3144480444444446,0.5615863,-2.6212292444444447
492,1747679558640,1.042090562222222,1.3127974222222223,0.15661018666666668,-2.5698745333333335,0.33764419999999995,-3.1446287111111113
493,1747679558650,1.2488373647058824,1.211091,0.5401310070588236,-2.4903279352941174,0.03895262117647059,-3.5850978470588237
494,1747679558660,1.321997,1.1664716,0.8520649,-2.2113543,-0.16018902,-3.9017944
495,1747679558670,1.3660423,1.1601261470588238,1.0319781705882352,-1.6950145352941177,-0.11206417294117647,-4.136403247058824
496,1747679558680,1.389048594736842,1.2029774894736842,1.0182806894736842,-1.1872994263157894,0.15198928894736843,-4.203095942105263
497,1747679558690,1.4894746555555556,1.3630461555555555,0.6250102733333334,-0.8797746166666667,0.49388284999999993,-4.01489
498,1747679558700,1.8037661,1.5413436,0.35369998,-0.9509229684210527,0.765076577368421,-3.6873400578947364
499,1747679558710,2.792740411111111,1.8488556999999999,0.21171288222222223,-1.2997251333333333,0.9582194377777777,-3.4891822222222224
500,1747679558720,3.921386752631579,2.0596441368421052,0.3466351568421053,-1.536481552631579,1.0903183421052631,-3.6226392368421054
501,1747679558730,5.1878126,2.1781530684210524,0.791898314736842,-1.6895431315789475,1.5654820315789473,-4.440705631578948
502,1747679558740,6.0759755,2.2124237263157895,1.289569610526316,-1.1880842684210526,2.266537652631579,-5.2834974210526315
503,1747679558750,6.957794461111111,2.1988609333333335,1.4934473666666666,-0.3112788988888889,2.831899911111111,-5.735349888888888
504,1747679558760,7.605006700000001,2.059233,1.2650098,1.1378347,3.3157663,-6.235787
505,1747679558770,8.111438789473684,1.5945223736842107,0.48168869789473684,2.0848541,3.0206883,-6.856836
506,1747679558780,8.107277,0.7857423,-0.40385374,2.3279023368421052,2.553093615789474,-7.560750631578948
507,1747679558790,7.1000911473684205,-0.35924585789473684,-1.2066736210526317,2.0113509,2.3378541,-8.852075
508,1747679558800,6.2187614,-0.6195393,-1.4254774,1.2997549,2.7394586,-9.244092
509,1747679558810,6.2187614,-0.6195393,-1.4254774,0.6483741438947368,3.1527808526315786,-9.113400842105264
510,1747679558820,4.142323,-0.5346074,-0.9930079600000001,-0.014780532999999998,3.598061,-8.633696
511,1747679558830,3.667567042105263,-0.5925646210526315,-0.7151423515789473,-0.10986933047368422,3.7092970421052636,-8.275766736842106
512,1747679558840,3.207176716666667,-0.6384130583333333,-0.3384463833333333,0.04895774083333333,3.6626871333333333,-7.7674585
513,1747679558850,2.8272935,-0.6514864125,0.025564997500000002,0.745391627,3.28274306,-6.9897807
514,1747679558860,2.6621796210526316,-0.7197826426315789,0.09679759684210527,1.4797844,2.870486,-6.287985
515,1747679558870,2.604436711111111,-0.9030796011111111,-0.12481494666666666,2.384548333333333,2.3809382666666665,-5.56206711111111
516,1747679558880,2.44495332,-0.980207165,-0.406343118,2.81189653,1.9938806199999999,-5.31593172
517,1747679558890,2.126898,-1.0456634,-0.7055085,2.9221513,1.6496938,-5.1960897
518,1747679558900,1.6531441684210526,-1.1908132,-0.8348845142105263,2.7231712789473685,1.460917905263158,-5.1333513473684205
519,1747679558910,1.0499117631578947,-1.312661894736842,-0.8202410484210526,2.430392047368421,1.478298652631579,-5.0569888421052624
520,1747679558920,0.5776225,-1.3829504,-0.78653544,2.18925,1.4973612,-4.8797064
521,1747679558930,0.33983366368421053,-1.435718152631579,-0.7591497152631579,2.0062488210526315,1.418419557894737,-4.64019027368421
522,1747679558940,0.23008497,-1.4600725,-0.74651015,1.9719361,1.403618,-4.595281
523,1747679558950,-0.10673971763157895,-1.7546109789473683,-0.6096582210526316,1.4316232,1.042213305263158,-3.9122227578947366
524,1747679558960,-0.23557626,-2.0174992,-0.52051306,1.115520247368421,0.7833542210526316,-3.584121642105263
525,1747679558970,-0.4681756557894737,-2.1487505210526314,-0.4852660736842105,0.8163493636842105,0.47448382789473686,-3.1553249684210525
526,1747679558980,-0.7537740221052631,-2.124704642105263,-0.39925518368421054,0.52211237,0.24035010999999998,-2.6170864
527,1747679558990,-0.8208255,-2.0423932,-0.29012305,0.14181322,-0.018508956,-1.6924375999999999
528,1747679559000,-0.5956249421052632,-2.0280579052631578,-0.23000790999999998,-0.3415921936842105,-0.12548385031578949,-0.5399344715789475
529,1747679559010,-0.38334650789473684,-1.995816684210526,-0.20978968421052632,-0.6720482078947368,-0.11712994210526316,0.07242391157894738
530,1747679559020,0.09099803421052632,-1.9062091157894738,-0.13842220000000002,-1.0316587605263157,-0.07250100210526317,0.6064013263157895
531,1747679559030,0.6975088083333333,-1.7816315277777777,0.10793431722222221,-1.3900358666666668,0.04102744444444444,1.0063486555555556
532,1747679559040,0.9351278052631579,-1.726480305263158,0.3018570589473684,-1.4923012,0.1615206,1.0910963
533,1747679559050,0.995808194736842,-1.6041433473684212,0.5960616821052632,-1.2050163999999999,0.14470064210526315,0.9821029842105262
534,1747679559060,0.7808836757894737,-1.4239520578947369,0.6992593568421054,-0.5557662484210526,-0.04643007894736841,0.8981714136842104
535,1747679559070,0.4020554331578947,-1.2152445315789475,0.5461969473684211,0.2734013273684211,-0.4424278121052631,0.984401727368421
536,1747679559080,0.28768247,-1.1515841,0.3512594,0.8992157,-0.79721665,1.2370374
537,1747679559090,0.2164691457894737,-1.0854575,0.08397816736842105,1.1494965105263157,-0.8759340699999999,1.5024563052631579
538,1747679559100,0.17081760210526317,-0.9892474631578947,-0.2032386794736842,1.1665969,-0.8142609,1.8016272000000002
539,1747679559110,0.13587888,-0.9163128999999999,-0.37749556,0.94928306,-0.69069034,2.0945747
540,1747679559120,0.11955415666666666,-0.8817652866666666,-0.4412758577777778,0.7696085955555555,-0.6125710044444445,2.248860272222222
541,1747679559130,0.13522805000000002,-0.8214560483333333,-0.5119710500000001,0.2806525833333333,-0.45899547500000004,2.6399895000000004
542,1747679559140,0.28357203210526316,-0.7846504552631579,-0.46574150000000003,-0.14244397315789473,-0.36757904315789475,2.9660163684210525
543,1747679559150,0.4280424888888889,-0.7424899333333334,-0.34148355555555554,-0.42147451500000005,-0.3461367066666667,3.1564649555555553
544,1747679559160,0.545715212631579,-0.6656019368421052,-0.1411453768421053,-0.5418057000000001,-0.3629815736842105,3.3013500631578947
545,1747679559170,0.5932150638888889,-0.5173064777777777,0.03702212722222223,-0.37714771666666663,-0.4448511311111111,3.563869133333333
546,1747679559180,0.6672186266666666,-0.35004587555555555,0.11512045333333333,-0.07987997511111111,-0.5058079088888889,3.8766423444444444
547,1747679559190,0.79044044,-0.255894,0.08474888,0.36860226842105265,-0.6167946631578948,4.349345326315789
548,1747679559200,0.9336891147368422,-0.21091041631578947,-0.06592435684210525,0.6179861,-0.6885598,4.693818
549,1747679559210,1.1531094,-0.17681947,-0.30818328,0.7032071666666666,-0.7056039777777778,5.1265518666666665
550,1747679559220,1.4794781578947367,-0.2138134152631579,-0.5001407284210526,0.5972414421052632,-0.6557048073684211,5.600469621052632
551,1747679559230,1.8123209368421052,-0.2421497557894737,-0.6540509684210526,0.43408792631578946,-0.598853392631579,5.848227526315789
552,1747679559240,2.188734252631579,-0.2076734547368421,-0.7846601210526316,0.04207090652631579,-0.5360588789473685,6.0484965789473675
553,1747679559250,2.4494644736842104,-0.13330021631578948,-0.7078976684210526,-0.3489929749473684,-0.374419147368421,6.217201026315789
554,1747679559260,2.6223341263157893,-0.13201570736842105,-0.5309690078947369,-0.4319153494736842,-0.2463632394736842,6.511718526315789
555,1747679559270,2.928458957894737,-0.2118609636842105,-0.40267198315789476,-0.1860076495263158,-0.32810820842105265,7.128169694736842
556,1747679559280,3.352758894736842,-0.2502935563157895,-0.4569297736842105,0.16351097036842105,-0.5541683621052632,7.806350157894738
557,1747679559290,4.417413694736842,-0.22175169105263157,-0.8947428184210527,0.67209026,-1.1268877105263158,8.946070526315788
558,1747679559300,5.499743152631578,-0.04772603631578948,-1.4859521842105263,0.34796978315789473,-1.3376417210526315,9.295757315789475
559,1747679559310,6.2129045,0.14094305,-1.8188977000000002,-0.30240172,-1.0837725,9.108271
560,1747679559320,6.4142901684210525,0.42682403157894744,-1.8633160315789474,-1.0706250063157894,-0.6289610478947368,8.53246747368421
561,1747679559330,6.219738,0.8628644,-1.6622128,-2.545398378947368,0.19958976157894737,7.711653578947369
562,1747679559340,5.941050252631579,1.0124843578947367,-1.4381940210526316,-3.1539441999999998,0.4456656542105263,7.395550810526316
563,1747679559350,5.33407882,1.20234801,-0.8095257105,-3.9730339,0.624377665,6.96575885
564,1747679559360,4.917502538888889,1.3102213333333335,-0.21845158211111113,-4.498652633333333,0.61745344,6.50565375
565,1747679559370,4.323207736842105,1.465994047368421,0.6261192168421053,-4.295850836842105,0.3384664989473684,5.972919352631579
566,1747679559380,3.668465942105263,1.6106044000000002,1.3264864421052631,-3.5993927,-0.1782985,5.3947616
567,1747679559390,3.2222269,1.65361,1.7038248,-2.462419831578947,-0.7940769736842105,4.915000168421052
568,1747679559400,2.8107462,1.6506813,1.8800340000000002,-1.229181,-1.1594063,4.4669166
569,1747679559410,2.438494642105263,1.5836297842105262,1.751942494736842,0.006076214210526311,-1.3017031210526315,3.994612421052632
570,1747679559420,2.2278091526315786,1.5176314947368421,1.5373005405263158,0.6075577342105263,-1.2710347210526316,3.69589007368421
571,1747679559430,1.668430089473684,1.309900252631579,0.8662715468421053,1.832386652631579,-0.959697444736842,2.8365026631578947
572,1747679559440,1.200173942105263,1.1961694684210524,0.45558743473684205,2.0639412210526316,-0.6488647131578947,2.3781030736842106
573,1747679559450,0.72064,1.116684,0.13502468,2.003894,-0.3476754,2.0807261
574,1747679559460,0.4123572042105263,1.0833893473684213,-0.04501250736842105,1.7656114421052633,-0.08747075694736842,1.9758818210526319
575,1747679559470,0.08778675010526316,1.0257662210526317,-0.17618685263157896,1.3859290736842105,0.20530855000000003,1.9093869473684209
576,1747679559480,-0.04679079800000001,1.0065136647058825,-0.18110124529411764,1.2603401,0.29893962,1.8900440000000003
577,1747679559490,-0.32194380823529417,0.9926167294117647,-0.1113008761764706,1.10387166,0.3579050964705882,1.8656682647058824
578,1747679559500,-0.648277075,1.0535951125,0.10103969375,0.28695539875,0.545947615,1.6875107249999999
579,1747679559510,-0.70611865,1.1042498210526315,0.1895650452631579,0.3196001173684211,0.3063404084210526,1.5506174052631578
580,1747679559520,-0.71978587,1.1528044,0.22337338,0.40706387,0.11038794000000002,1.4042838
581,1747679559530,-0.71978587,1.1528044,0.22337338,0.40706387,0.11038794000000002,1.4042838
582,1747679559540,-0.6018248533333334,1.2252080666666665,0.15747793833333334,0.40706387,0.11038794,1.4042838
583,1747679559550,-0.5282908447368421,1.2739082210526316,0.09065763736842104,0.6700157678947369,-0.3103351305263158,0.8728854315789473
584,1747679559560,-0.5068137736842105,1.3383906263157896,-0.024537384526315785,0.7415005578947369,-0.6516680057894737,0.34401006
585,1747679559570,-0.47119199411764706,1.3866973352941177,-0.11974238270588235,0.6088373229411764,-0.7275985588235294,0.18831667529411766
586,1747679559580,-0.3304246157894737,1.4408690263157895,-0.1930910342105263,0.36938717368421053,-0.7089679894736842,0.032392425789473676
587,1747679559590,-0.17088823842105264,1.469462252631579,-0.2061416747368421,-0.0826210052631579,-0.5492905789473684,-0.2948117089473684
588,1747679559600,0.24847918157894733,1.425942947368421,-0.13844789347368422,-0.6371187631578947,-0.4158523042105263,-0.9521915010526316
589,1747679559610,0.2855003094117647,1.3675460823529413,-0.021372956529411763,-0.9135497235294118,-0.42663026411764704,-1.4109573411764706
590,1747679559620,0.23887102,1.3036318,0.091582485,-1.0789789,-0.42863545,-1.8330524
591,1747679559630,0.11196126,1.215283,0.13160788,-1.2050163578947368,-0.36219664,-2.1921023
592,1747679559640,0.08791348533333335,1.1706042666666667,0.13811605866666668,-1.2920316,-0.33169648,-2.3742063
593,1747679559650,0.20177433,1.1669596,0.17846686,-1.349219510526316,-0.4031812563157895,-2.542910452631579
594,1747679559660,0.3183052405263158,1.2016415263157894,0.22840868421052632,-1.3514621105263158,-0.4663121563157895,-2.6928323578947366
595,1747679559670,0.5024528533333332,1.2498849666666665,0.24788759444444444,-1.297594622222222,-0.4774008733333333,-2.878786277777778
596,1747679559680,0.7159090584615384,1.3072738692307693,0.2453010030769231,-1.2136118923076924,-0.49730398461538466,-3.1060423923076925
597,1747679559690,1.1291003375,1.39783781875,0.17007739375,-1.16839450625,-0.497211795625,-3.3275506375
598,1747679559700,1.74647369375,1.43649040625,0.016626398124999997,-1.209806575,-0.466185989375,-3.64453325
599,1747679559710,2.3365737125,1.42090129375,-0.106927586,-1.4733261625,-0.3661843775,-4.18668613125
600,1747679559720,2.6964625066666668,1.3374418000000001,-0.046651544533333325,-1.8131585866666668,-0.16530228426666668,-4.6763119133333335
601,1747679559730,2.8733335444444443,1.2047615333333335,0.2082418388888889,-2.010019388888889,0.1148857267777778,-5.045532355555555
602,1747679559740,2.909242736842105,1.1939345105263157,0.4993635968421053,-2.0398467,0.33941963,-5.197155
603,1747679559750,2.989396,1.2597015,0.7764071,-1.8476849333333334,0.7006031694444446,-5.1689844888888885
604,1747679559760,3.0789795294117646,1.3334354294117647,0.8797724882352941,-1.645135205882353,0.9657320105882353,-5.076090717647059
605,1747679559770,3.490715368421052,1.5605341315789474,1.0264245263157894,-1.1672836684210526,1.372332894736842,-4.842141936842105
606,1747679559780,4.520611531578948,1.9333251368421052,0.9393859631578948,-0.5908638894736843,1.5968792789473683,-4.73802627368421
607,1747679559790,5.217844463157895,2.1472735999999997,0.6943524994736843,-0.2767793110526316,1.6827730947368422,-4.8995539
608,1747679559800,6.0803,2.2936908666666667,0.32506391,-0.23173922999999996,1.962881333333333,-5.386061633333333
609,1747679559810,6.713041747368421,2.004384405263158,0.04590523747368421,-0.25126907,2.0928435,-5.5881066
610,1747679559820,6.824459984210527,1.4650178,-0.07460765947368421,-0.4074142736842105,3.0968826631578947,-7.129823510526316
611,1747679559830,6.1294365,0.9346172,-0.13148585,-0.2527268012631579,3.4783029157894734,-7.745321715789474
612,1747679559840,5.407078673684211,0.6939767957894737,-0.21490203157894736,-0.029694224,3.6044526000000006,-8.033952
613,1747679559850,3.9233648052631587,0.45413272894736845,-0.4235067515789474,0.15207339,3.468659589473684,-7.763767489473685
614,1747679559860,3.4409022,0.3820716,-0.49903607,0.1708556752631579,3.360619547368421,-7.1959821
615,1747679559870,3.4409022,0.3820716,-0.49903607000000005,0.17921581555555555,3.465376622222222,-6.681422177777778
616,1747679559880,3.2166261789473687,0.24565646842105263,-0.3154536247368421,0.32503858,3.7077832,-6.275202
617,1747679559890,3.2041664,0.23807785,-0.3052546,0.4528702010526316,3.7178752,-6.107002368421052
618,1747679559900,3.1863632157894735,0.19414754263157893,-0.26294277684210526,0.8651272421052632,3.5286507210526317,-5.673552089473684
619,1747679559910,3.1665819,0.14533609,-0.21592964000000003,1.195359,3.3083093,-5.3601403
620,1747679559920,3.167829138888889,-0.13158753222222222,-0.4969208938888889,2.0338398444444445,2.8895424555555556,-5.1445429
621,1747679559930,2.8151393,-0.41941237,-0.76457036,2.3724754,2.575408,-5.3644013
622,1747679559940,2.372188157894737,-0.5834702568421053,-0.8259699673684211,2.3543658210526317,2.3043824842105263,-5.480907589473684
623,1747679559950,1.8886979999999998,-0.809904,-0.8104531,2.2819278,1.989513,-5.564671
624,1747679559960,1.3462400226666666,-1.1646004733333335,-0.8033591840000001,2.1128349533333335,1.6041715866666666,-5.605861066666667
625,1747679559970,0.85243094,-1.5044909,-0.79922646,1.8695586578947367,1.3245642263157893,-5.536469294736842
626,1747679559980,0.5214893,-1.730976,-0.75822484,1.7141423,1.1671295,-5.3739886
627,1747679559990,0.07057428694736842,-2.0343262315789477,-0.7039671221052631,1.4425001052631579,0.9097842157894737,-4.757313063157895
628,1747679560000,-0.22653329210526318,-2.195147105263158,-0.652072812631579,1.040054747368421,0.7601987894736842,-3.6988896315789472
629,1747679560010,-0.19614744888888888,-2.1639335555555554,-0.5407427466666667,0.4434603833333333,0.8676128416666667,-2.2859670000000003
630,1747679560020,-0.05163416105263158,-2.121852952631579,-0.45554249105263156,0.09774495084210526,1.0302150831578947,-1.5896676842105264
631,1747679560030,0.1871309,-2.1405041,-0.31599313,-0.44443686777777774,1.2923572,-0.6396612122222222
632,1747679560040,0.34440653684210526,-2.192603889473684,-0.15979648789473683,-0.8826339957894738,1.3483364315789472,0.13443346631578948
633,1747679560050,0.47748196421052636,-2.231986957894737,-0.06872458736842106,-1.202493405263158,1.2792064789473685,0.723019642105263
634,1747679560060,0.70502037,-2.3001175,0.05399767,-1.4827138,1.2992221,1.1891005
635,1747679560070,0.8673313247368422,-2.353758731578947,0.1890255605263158,-1.6899356105263157,1.4615907736842104,1.5075582684210527
636,1747679560080,0.9080217555555556,-2.3532676,0.30499696777777774,-1.795072811111111,1.6501673444444445,1.7301361222222225
637,1747679560090,0.8688212421052631,-2.2588076210526316,0.5297294578947369,-1.7042325842105261,1.6794091210526316,1.8037016526315792
638,1747679560100,0.6866004736842105,-2.109650052631579,0.7729389389473684,-1.164760657894737,1.4129811105263157,1.8753546526315787
639,1747679560110,0.35784252894736845,-1.943999447368421,0.8821224210526315,-0.2824420347368421,0.9143816842105263,2.0168664736842103
640,1747679560120,0.08023382311111112,-1.8308767388888887,0.7654516444444445,0.38504842388888894,0.5154840472222222,2.2069007833333334
641,1747679560130,-0.2565651825,-1.6861915,0.37115004249999994,1.5618097,-0.21238693999999997,2.7965834
642,1747679560140,-0.3264197866666667,-1.5981004555555556,0.08767755999999999,1.8383639166666665,-0.4444368644444444,3.2278375944444444
643,1747679560150,-0.2657109047368421,-1.4952423631578946,-0.25839560210526313,1.9194579368421052,-0.6560412,3.964280473684211
644,1747679560160,-0.07889151,-1.4166303,-0.5131914,1.6225296,-0.6587324,4.391283
645,1747679560170,0.32984338125,-1.2970422125,-0.71819948125,1.131776025,-0.6232458125,4.663923875
646,1747679560180,0.7251415477777777,-1.1400050527777779,-0.7772884194444445,0.4407380452388889,-0.5448675416666666,4.8613009555555555
647,1747679560190,0.9832456999999999,-0.9573145499999999,-0.7201519,-0.0009321057,-0.47018075,4.92498
648,1747679560200,1.0776814764705882,-0.8275048117647058,-0.6601425647058824,-0.28216169965882354,-0.4329591894117647,4.940833588235294
649,1747679560210,1.2180286315789475,-0.5813636421052631,-0.5566078894736841,-0.6418283268421053,-0.47533888,4.991755426315789
650,1747679560220,1.281689052631579,-0.4254495973684211,-0.5206929157894736,-0.8057107263157895,-0.5811924431578948,5.072883757894736
651,1747679560230,1.386519775,-0.25235520125,-0.50770005625,-1.06266705,-0.86053328625,5.37139225
652,1747679560240,1.8257314,-0.10555475,-0.3960439,-1.488376552631579,-1.2075114105263158,5.965293894736843
653,1747679560250,2.198291168421053,-0.007906167894736842,-0.2603737726315789,-1.6156476105263158,-1.3744213631578948,6.249495210526316
654,1747679560260,2.533034989473684,0.09218299894736842,-0.23977018947368423,-1.735854105263158,-1.6105734789473685,6.618020368421052
655,1747679560270,3.0167308,0.11067996,-0.3350296,-1.9013624000000002,-1.7740634999999998,6.911697000000001
656,1747679560280,3.398693168421053,0.07229874000000001,-0.4464738336842105,-2.1102662315789478,-1.8396612789473685,7.044910642105263
657,1747679560290,3.7432888833333333,0.08196255416666667,-0.5462204466666667,-2.4673725555555555,-1.8971605666666664,7.152564777777777
658,1747679560300,3.9061521105263157,0.10636399684210526,-0.5736148157894737,-2.722848936842105,-1.9307132368421052,7.219558073684209
659,1747679560310,4.205340847368421,0.13272219105263158,-0.5059467368421052,-3.1463192210526314,-1.9836960105263155,7.35697692631579
660,1747679560320,4.508973789473684,0.1962027647368421,-0.44262029736842107,-3.3851063368421053,-2.0768787210526316,7.476903342105262
661,1747679560330,4.953697736842106,0.24804566263157896,-0.4199871878947368,-3.5991123263157894,-2.247601152631579,7.483855452631579
662,1747679560340,5.439756710526316,0.2732220863157895,-0.3497243905263158,-3.8549437684210526,-2.422023931578947,7.2325656
663,1747679560350,5.8959824833333325,0.43294396611111113,-0.06236340555555556,-4.0901834444444445,-2.3005997000000002,6.536605583333333
664,1747679560360,5.944236010526316,0.5802204321052632,0.23007855157894735,-4.03155314736842,-1.9372169947368423,5.743606994736843
665,1747679560370,5.498381368421053,0.743867232631579,0.5742763515789474,-3.6161004684210525,-1.4660340684210527,4.719832652631578
666,1747679560380,4.804591231578947,0.8115353136842105,0.8391426368421053,-3.0699565,-1.3468927,4.1441417
667,1747679560390,3.8802054,0.8189341,0.9843439,-2.3341397736842104,-1.610909947368421,3.867733868421053
668,1747679560400,3.8802053999999995,0.8189341,0.9843439000000002,-1.7874976111111112,-1.9581765888888887,3.8244444388888894
669,1747679560410,3.2376411263157894,0.8700320094736843,0.7465550636842105,-1.2825563894736842,-2.372068957894737,3.8727800631578946
670,1747679560420,2.809050815789474,0.8996271578947368,0.4990039405263158,-1.0232487736842106,-2.603903910526316,3.933892494736842
671,1747679560430,2.5167930166666665,0.9304682222222223,0.21851936388888887,-0.85207775,-2.66835225,3.9774280999999996
672,1747679560440,2.2277835789473683,0.9645462842105264,0.12009864263157893,-0.984338594736842,-2.2718219157894737,3.8824795263157896
673,1747679560450,2.004972115789474,1.0091445315789473,0.1798798152631579,-1.1501833105263157,-1.7575238452631576,3.7570587421052632
674,1747679560460,1.6132986315789475,1.1393683631578948,0.45594711315789477,-1.3569566263157895,-0.636305785263158,3.4585045473684213
675,1747679560470,1.4072630736842107,1.1996377105263158,0.7032926899999999,-1.2025495,-0.06005424000000001,3.158773
676,1747679560480,1.2788118315789474,1.1993807578947369,0.878474442631579,-1.2025495,-0.06005424000000001,3.158773
677,1747679560490,1.2678164,1.198199,0.8940427300000001,-0.5208991222222221,0.064581609,2.565598744444445
678,1747679560500,0.9579921499999999,1.1904919210526315,0.9938492326315789,0.15083992631578946,0.03514669215789473,2.049833589473684
679,1747679560510,0.70794904,1.1669596,0.94041365,0.9653741663157894,-0.14370546031578948,1.4584440315789475
680,1747679560520,0.5871021852631579,1.161616189473684,0.8746466184210525,1.3230785052631577,-0.22432909894736844,1.1702622210526317
681,1747679560530,0.32316070526315793,1.1569148473684212,0.734480605263158,1.8277892368421051,-0.3304629984210526,0.7365317157894737
682,1747679560540,0.014826477111111113,1.1516654444444445,0.5127168000000001,2.3369072500000003,-0.38892480277777774,0.2613742688888889
683,1747679560550,-0.16166544936842106,1.151802452631579,0.35529275368421054,2.573305442105263,-0.39807922368421056,-0.02187996421052631
684,1747679560560,-0.3009836,1.1537806,0.21653979,2.7527744000000003,-0.454734415,-0.401338095
685,1747679560570,-0.5122601136842104,1.0510196736842106,0.06116524010526316,2.8373226315789477,-0.6860928836842105,-0.7581453484210525
686,1747679560580,-0.6773199,0.9521893,0.022270223,2.929608,-1.1061431,-1.0511489
687,1747679560590,-0.849393094736842,0.9438913673684212,-0.04018274231578947,2.9227118210526313,-1.1420256684210526,-1.0596149421052632
688,1747679560600,-0.9620961578947367,1.0020798178947368,-0.1860262242105263,2.7699306210526315,-1.7835947789473685,-1.2076305157894736
689,1747679560610,-0.9086861,1.0961832,-0.37212628,2.254231,-1.7058866,-1.1289132
690,1747679560620,-0.8609023131578948,1.149747252631579,-0.48195205631578947,2.0654551263157894,-1.619151694736842,-1.1063183105263157
691,1747679560630,-0.6923743615789474,1.262681610526316,-0.7459449594736842,1.0319251052631577,-1.1162350631578948,-0.9963158368421052
692,1747679560640,-0.4064976933333333,1.3145331,-0.80134164,0.041264164444444425,-0.6970819111111112,-0.9353310611111111
693,1747679560650,-0.24901225894736842,1.3180184000000001,-0.7313785589473685,-0.8736633536842104,-0.3438629210526316,-1.0037166210526316
694,1747679560660,0.30474080684210525,1.279868294736842,-0.28372619315789477,-1.7452732526315788,-0.0002873431578947308,-1.3254823157894737
695,1747679560670,0.6010519822222222,1.1551907333333336,0.1825344711111111,-2.180343166666667,0.21419196444444444,-1.906910788888889
696,1747679560680,0.6493496105263158,1.0871658736842105,0.4144316805263158,-2.147438405263158,0.20592527473684208,-2.341575536842105
697,1747679560690,0.6596257,1.0117394,0.76713294,-1.728733663157895,0.037893951052631575,-2.780015805263158
698,1747679560700,0.6625544,0.9575585999999999,0.87403005,-1.1823095,-0.19853851,-3.1071076
699,1747679560710,0.65977825,0.9329698312500001,0.844285603125,-0.710930328125,-0.44121888812500004,-3.3248209749999997
700,1747679560720,0.6733372727272727,0.9241893181818182,0.7681978909090911,-0.4174502,-0.5585976,-3.4661016
701,1747679560730,0.8582883,0.98879796,0.5972691,-0.30772802,-0.39454702,-3.633348
702,1747679560740,0.9721817222222222,1.0168916355555555,0.5114694233333333,-0.36738278222222226,-0.20812588222222222,-3.687202888888889
703,1747679560750,1.2488125200000002,1.1069867066666668,0.36766001066666665,-0.6038713333333334,0.2946785666666667,-3.7736076
704,1747679560760,1.4654621333333333,1.1660242333333333,0.34275805,-0.7679219333333333,0.6170983666666667,-3.8258055333333334
705,1747679560770,1.84055776875,1.28810369375,0.427862859375,-1.136236775,1.32305745,-4.0044591
706,1747679560780,2.4218817166666664,1.55265155,0.6814688583333334,-1.1993537,1.5303844,-4.18835
707,1747679560790,2.7131233,1.7922343,0.81936115,-1.0850154200000002,1.14362264,-4.2052526666666665
708,1747679560800,3.6799058941176472,2.31982874117647,1.0605759823529413,-0.9270221705882352,0.9196123588235293,-3.868269994117647
709,1747679560810,4.4718,2.554181,1.1498147,-0.8659262,1.1724558,-3.6887417
710,1747679560820,4.881816,2.6083618,1.19325685,-0.7892272266666667,1.7050876,-3.7299319
711,1747679560830,6.5980268,2.5688245,1.3831334,-0.3141196,3.4361410000000006,-4.333226
712,1747679560840,6.5980268,2.5688245,1.3831334,-0.3141196,3.436141,-4.333226
713,1747679560850,6.5980268,2.5688245,1.3831334,-0.3141196,3.436141,-4.333226
714,1747679560860,6.909199527777778,1.0858242444444446,0.8382621,2.282460388888889,3.0029929888888893,-7.022898555555555
715,1747679560870,5.775038416666667,0.5447493438888888,0.07037662166666665,3.749683488888889,2.1262810500000002,-8.49976788888889
716,1747679560880,4.696712222222222,0.4384217311111111,-0.8008535088888888,3.6498447111111108,1.5876719222222222,-8.467632466666666
717,1747679560890,3.8544380000000005,0.5139395994736843,-1.719913063157895,2.5711188947368426,1.502183,-7.7506480210526325
718,1747679560900,3.9285288,0.46358675,-1.8213382,1.704555,1.8020266,-7.246722
719,1747679560910,4.1579423,0.1424074,-1.645617,0.5423524,2.3517027,-6.559627
720,1747679560920,4.195771216666667,0.009802964999999999,-1.5756538333333334,0.081685018,2.4933827777777777,-6.3135511
721,1747679560930,4.0300565,-0.27053747,-1.4308466,-0.72424614,2.692587,-6.180393
722,1747679560940,3.662763089473684,-0.40199440789473684,-1.2478550210526316,-1.1359985410526314,2.9585105736842108,-6.215659052631579
723,1747679560950,3.064972622222222,-0.6212206266666667,-0.8496920722222223,-1.5134289111111112,3.4737212888888886,-6.120205944444445
724,1747679560960,2.711427873684211,-0.725460197368421,-0.5796777015789474,-1.4878719578947368,3.6767784999999997,-6.000812473684211
725,1747679560970,1.9377920421052632,-0.9078865578947368,-0.004755903052631586,-0.9588844789473685,3.742376289473684,-5.622083157894737
726,1747679560980,1.229358105263158,-1.0360551263157896,0.4607768810526316,0.10021186842105263,3.345930105263158,-5.1464146263157895
727,1747679560990,0.909411905263158,-1.0725866,0.5703200515789474,1.0219452394736843,2.9071534210526315,-4.832890905263159
728,1747679561000,0.6386368,-1.1354764,0.54455274,1.9655446,2.494448,-4.498342
729,1747679561010,0.5206215722222223,-1.3913296111111113,0.39150170222222225,2.7662676833333335,2.1020759166666667,-4.089991166666667
730,1747679561020,0.4998067768421053,-1.674123547368421,0.08099810315789474,3.548974910526315,1.523936742105263,-3.610024242105263
731,1747679561030,0.4984708842105263,-1.7562552684210528,-0.07648304684210526,3.779184010526316,1.2692266105263157,-3.4317327368421053
732,1747679561040,0.4848036673684211,-1.9065945736842103,-0.4735513647368421,3.9104356105263163,0.5536497684210526,-2.9605498
733,1747679561050,0.4801537157894737,-2.0224061473684207,-1.0053906715789473,3.3175883368421055,0.025335052684210525,-2.502879073684211
734,1747679561060,0.468747252631579,-1.985977394736842,-1.2175405105263157,2.3513382842105264,-0.013799369,-2.2533830999999998
735,1747679561070,0.39517043684210523,-1.9471850842105263,-1.1921329842105264,1.3397302421052633,0.11913431652631579,-2.1160201526315787
736,1747679561080,0.2312924189473684,-1.9434342210526316,-1.059211752631579,0.37774107894736847,0.2446111610526316,-1.9885249105263156
737,1747679561090,0.01957917473684211,-1.9657590526315791,-0.8419750715789474,-0.549598935263158,0.29933207368421055,-1.7880871
738,1747679561100,-0.294920707368421,-2.0465290842105266,-0.4349903021052631,-1.558235457894737,0.05163024105263158,-1.1449481105263157
739,1747679561110,-0.37615323,-2.1522188,-0.23496611,-1.8945784210526317,-0.25903427105263155,-0.49788461578947363
740,1747679561120,-0.35315763,-2.1383348,-0.07182740333333333,-2.098436,-0.44674495,0.23782010000000003
741,1747679561130,-0.24721393368421052,-1.9977178,0.09967490631578947,-2.1666130105263157,-0.4072741289473684,0.8325736157894736
742,1747679561140,-0.10483864,-1.8542120368421056,0.19182577894736844,-2.1676223052631576,-0.25101676842105264,1.3755217157894737
743,1747679561150,-0.011608773894736843,-1.777912052631579,0.22833160631578947,-2.1414952842105266,-0.15245184315789473,1.614477147368421
744,1747679561160,0.13847358399999998,-1.6599168157894737,0.25715605736842106,-1.9968997315789476,-0.051363928894736836,1.901649742105263
745,1747679561170,0.22851785947368422,-1.4961159052631579,0.27287849894736843,-1.772801957894737,-0.12245625515789473,2.0308269631578946
746,1747679561180,0.20408645,-1.2948072736842107,0.2662247205263158,-1.4609600105263159,-0.3976306794736842,2.0960884578947367
747,1747679561190,0.16036167105263158,-1.1610125157894735,0.2493205405263158,-1.1615088052631577,-0.7242741473684211,2.1933637999999998
748,1747679561200,0.16426658736842106,-0.9912256810526316,0.21949416789473683,-0.7287314421052632,-1.2284802368421053,2.417854110526316
749,1747679561210,0.21690588,-0.87824,0.19115783,-0.23529011,-1.6707329,2.7081666
750,1747679561220,0.2166489789473684,-0.8206938394736842,0.11028498046315789,0.14130862315789475,-1.8281676263157896,3.067608931578947
751,1747679561230,0.2378948,-0.7825695,-0.0026236153,0.3655186,-1.8635455,3.4400027
752,1747679561240,0.31989804,-0.7423489400000001,-0.11977109906000001,0.44951462649999996,-1.81294546,3.9115947650000003
753,1747679561250,0.5223028666666666,-0.6743383266666666,-0.24804758799999999,0.38838623733333333,-1.75119574,4.395259846666666
754,1747679561260,0.8355525210526317,-0.5939004999999999,-0.3685039768421053,0.25035798,-1.7114931736842105,4.7099651736842105
755,1747679561270,0.9911839789473685,-0.5514088442105263,-0.41967892631578946,0.13581410842105263,-1.6940564947368422,4.8494026578947365
756,1747679561280,1.5897976428571428,-0.38618573071428575,-0.5448142642857142,-0.37232867142857146,-1.6018711785714286,5.191219928571428
757,1747679561290,1.981105768421053,-0.2693814089473684,-0.45243397684210523,-0.7961233894736841,-1.428413352631579,5.53049852631579
758,1747679561300,2.2286826210526316,-0.17566341947368422,-0.3394996852631579,-0.9984113631578948,-1.3114586894736842,5.825632494736842
759,1747679561310,2.578001882352941,-0.06610361823529412,-0.2002525582352941,-1.1205241823529413,-1.2645540882352941,6.402939505882353
760,1747679561320,2.7744716052631575,-0.045670816999999996,-0.19555730105263158,-1.1307843947368421,-1.377897505263158,6.830344331578947
761,1747679561330,2.9825625,-0.039659303,-0.19786942,-1.1428947,-1.5524886,7.2451243
762,1747679561340,3.2681094705882354,0.03011235964705882,-0.17934978470588236,-1.1635734352941176,-1.6624614529411763,7.643658152941177
763,1747679561350,3.6896865684210525,0.11134790652631579,-0.13166567894736841,-1.1679004421052632,-1.690468342105263,8.01783294736842
764,1747679561360,3.975464705263158,0.14024942999999998,-0.10854445789473685,-1.1331391,-1.643092105263158,8.39908557894737
765,1747679561370,4.032497,0.14435987,-0.10463954,-1.1237199,-1.6291876,8.470178
766,1747679561380,4.775432947368421,0.31419801157894733,-0.18998251315789472,-1.118786110526316,-1.5533295736842105,8.915458
767,1747679561390,6.084915815789475,0.6018772442105264,-0.4428001563157895,-1.3530320368421054,-1.549180594736842,9.017162210526315
768,1747679561400,6.275220433333334,0.8264184444444445,-0.5776225133333334,-1.8629537888888887,-1.3469518555555555,8.198771816666667
769,1747679561410,6.0640297,1.062015,-0.6244815,-2.699245,-0.8163914,6.8211493
770,1747679561420,5.054479994736842,1.2113781631578948,-0.17338661842105263,-3.423175678947368,-0.23139347947368422,5.852992868421052
771,1747679561430,4.2121234,1.2587252,0.2848758,-3.7794222999999993,-0.01957422,5.2807784
772,1747679561440,3.4062461999999996,1.232367,0.78275263,-3.745670215789474,-0.10827143368421052,5.020966105263158
773,1747679561450,2.8596605684210528,1.1791883684210525,1.1101489173684211,-3.7336159,-0.13994901,4.928176
774,1747679561460,2.463748263157895,1.1251360263157895,1.2405783105263157,-2.753797547368421,-0.823343632631579,4.549782842105262
775,1747679561470,2.279446536842105,1.0995999210526317,1.2283497315789473,-2.418744115789474,-0.9945707894736842,4.431819157894737
776,1747679561480,1.857241688888889,1.0539069666666667,1.0611676666666667,-1.6774204333333333,-1.218350911111111,4.125204111111111
777,1747679561490,1.8398865,1.0522528,1.0526799,-1.358829994117647,-1.2691911352941176,3.917178211764706
778,1747679561500,1.501364794117647,1.0579952705882352,0.8835626058823529,-0.8744483058823529,-1.2976399352941177,3.463814376470588
779,1747679561510,1.141780052631579,1.0721884,0.6417902789473684,-0.5562147752631579,-1.196466194736842,2.779819415789474
780,1747679561520,0.905635452631579,1.055900789473684,0.5620991389473684,-0.4626397915789474,-1.0506373210526316,2.239730784210526
781,1747679561530,0.6859839,1.06592,0.55285066,-0.4000695763157895,-0.890511357894737,1.6735712894736843
782,1747679561540,0.32575542,1.048836,0.6080076,-0.33009857,-0.7631282,1.2860395
783,1747679561550,0.017104350000000004,1.0442802444444446,0.6649543111111111,-0.2107890377777778,-0.6579038422222223,1.0233928655555555
784,1747679561560,-0.4532753,1.061527,0.7266194,0.051265813,-0.54581445,0.78536564
785,1747679561570,-0.520275447368421,1.0695423684210528,0.7239476526315789,0.12190960926315789,-0.5379651473684209,0.7735916621052631
786,1747679561580,-0.7228172868421052,1.0884760789473684,0.6900622578947369,0.32543103157894737,-0.5233317889473684,0.7530152431578948
787,1747679561590,-0.7622518,1.091302,0.67927235,0.46671864,-0.52131337,0.75234246
788,1747679561600,-0.6904989766666666,1.1653326777777777,0.5623417833333334,0.7113742055555555,-0.43822283,0.6884858388888889
789,1747679561610,-0.46190723894736846,1.2438249105263157,0.43213226315789477,0.8895722105263159,-0.30534522210526316,0.5478679157894737
790,1747679561620,-0.16987061922222224,1.3184922222222224,0.28243524722222224,0.9460872999999999,-0.26991117,0.27830014
791,1747679561630,0.017755164,1.3719678,0.166264,0.9159048000000001,-0.333826995,0.022636854999999997
792,1747679561640,0.1433804292631579,1.390850194736842,0.07069631736842105,0.7569749357894736,-0.4059845810526315,-0.37044543199999996
793,1747679561650,0.26083618,1.3890519,-0.07437645,0.5082639,-0.46272388,-0.7411572
794,1747679561660,0.3062565294736842,1.4148191578947367,-0.13551920473684212,0.17186486842105264,-0.5057829536842104,-0.9483790105263157
795,1747679561670,0.43330333611111116,1.424765538888889,-0.11459165555555556,-0.3399226738888889,-0.5239173850000001,-1.153236588888889
796,1747679561680,0.6327537052631579,1.392802694736842,-0.059758703684210525,-0.7481304294736842,-0.4059285157894737,-1.321950105263158
797,1747679561690,0.6840314,1.3841708,-0.045577694,-1.119178547368421,-0.22517009894736842,-1.540161
798,1747679561700,1.1148567421052633,1.2824373263157895,0.04382433810526315,-1.5357526526315788,0.045911463684210535,-1.9536514736842108
799,1747679561710,1.3337889473684212,1.1528044000000002,0.16053508263157895,-1.8089086947368422,0.2459567664210526,-2.401735031578948
800,1747679561720,1.3281370842105265,1.0401783684210526,0.2857492910526316,-1.9644932631578949,0.40815716842105265,-2.8070397894736843
801,1747679561730,1.1715765,0.892639425,0.5295025383333334,-2.0132150777777778,0.7373547555555555,-3.5296622444444443
802,1747679561740,1.1451197947368421,0.8765573642105263,0.8399390578947369,-1.797246963157895,0.7428742236842104,-3.669062394736842
803,1747679561750,1.3402885105263156,0.9307123,1.3337568210526316,-0.849162288,0.42492105157894733,-3.802276447368421
804,1747679561760,1.7661813157894737,1.083851752631579,1.6634652684210527,0.23594890084210526,0.0982775842105263,-3.885142657894737
805,1747679561770,2.0941942,1.2445699,1.5080907,1.1527485,-0.13675322,-3.9156427
806,1747679561780,2.561184277777778,1.459394538888889,1.028436905,1.6827170833333334,-0.22108658666666667,-3.9413867833333334
807,1747679561790,3.0411365,1.6472644,0.52112323,1.845898710526316,-0.15312463789473685,-3.9751295105263154
808,1747679561800,3.0411365,1.6472644,0.52112323,1.8526267,-0.1431448,-3.9784935
809,1747679561810,4.1422456,1.9034217368421054,-0.3765964021052632,0.7819245521052632,0.7132710473684211,-4.030242736842105
810,1747679561820,5.376841357894737,1.9952643578947369,-0.8964639973684211,-0.6510233115789474,1.7164129894736844,-4.089841421052632
811,1747679561830,6.640845388888889,1.5867653722222221,-0.5910185466666666,-1.84425245,2.658676022222222,-4.568057499999999
812,1747679561840,7.3262935,1.0761704,-0.18371409,-2.1751351,3.149585,-5.193959
813,1747679561850,7.128452852631579,0.34798066684210527,0.11272554947368421,-1.815412505263158,3.447073978947368,-6.429496863157895
814,1747679561860,6.2988124,-0.18951045,0.27462542,-1.2739222,3.5969958000000006,-7.5109076
815,1747679561870,4.753821522222221,-0.35004588388888885,0.3529678044444445,-0.5676523960000001,3.530416711111111,-7.993709144444446
816,1747679561880,3.50094,-0.30909848,0.41227368,0.049135286,3.5330799999999996,-7.765505999999999
817,1747679561890,3.0103081263157896,-0.2619312042105263,0.42152221263157896,0.5285039097894737,3.643082547368421,-7.130720557894738
818,1747679561900,2.6914837666666664,-0.24450468777777776,0.3776175822222222,0.8990381499999999,3.75382625,-6.508435294444444
819,1747679561910,2.699019547368421,-0.29237416894736845,0.2640667294736842,1.573135094736842,3.8819818368421055,-5.476197884210526
820,1747679561920,2.816757894736842,-0.3695219389473684,0.0942799562631579,1.9012363368421052,3.9068753999999997,-5.146695078947368
821,1747679561930,2.828835270588235,-0.4316152235294118,-0.04198861294117647,2.2053542588235295,3.916324282352941,-4.940489035294117
822,1747679561940,2.7159978333333337,-0.5904694222222222,-0.2222209,2.5586004333333334,3.9833314611111112,-4.758443777777778
823,1747679561950,2.4288609789473683,-0.7728586210526316,-0.2775348384210526,2.832220589473684,4.283866526315789,-4.578405052631578
824,1747679561960,2.1161594,-0.839679,-0.28670624,2.985816541176471,4.408726470588236,-4.469893435294118
825,1747679561970,1.7194507684210527,-0.9453172484210527,-0.30242867578947363,3.1692924,4.374638,-4.3215084
826,1747679561980,1.4713602,-1.070069,-0.3696857,3.3077767,4.2031307,-4.2767673
827,1747679561990,1.0357565052631579,-1.3133042315789474,-0.5713026578947368,3.4135742315789472,3.8981290473684207,-4.452143505263158
828,1747679562000,0.6654831,-1.4532388,-0.6986749,3.426021,3.7205105,-4.576835284210526
829,1747679562010,0.34468340555555554,-1.5128430222222222,-0.7702379105555556,3.366366222222222,3.495914294444445,-4.561547688888889
830,1747679562020,-0.39804131789473685,-1.6240788736842104,-0.9078961684210526,3.147482547368421,2.9309257789473686,-4.2500234210526315
831,1747679562030,-0.8051030536842105,-1.7423054894736842,-0.9123149010526316,2.7467752421052634,2.264799584210526,-3.2365093210526314
832,1747679562040,-0.6145157866666666,-1.8970433888888887,-0.9281428911111111,2.3746058,1.8311437666666666,-2.2769123000000002
833,1747679562050,-0.32587746,-1.9364723,-0.98568624,1.9057777736842103,1.4885027157894737,-1.3999386736842105
834,1747679562060,0.061068907894736846,-1.813750015789474,-1.017131014736842,1.2134684,1.1230050947368422,-0.6710179526315789
835,1747679562070,0.44883735947368425,-1.6886899105263158,-1.0344462736842106,0.5817110505263158,0.7612640284210526,-0.3983104852631579
836,1747679562080,0.65572083,-1.4981453,-1.0291284,-0.3109238,0.27124277,-0.37577176
837,1747679562090,0.5813218994736843,-1.3509916999999998,-0.9300668421052631,-0.9042756842105263,0.08235469236842105,-0.4013380894736842
838,1747679562100,0.49464303,-1.2199202,-0.660602,-1.8534255999999998,-0.12183953000000002,-0.35020542
839,1747679562110,0.49464303,-1.2199202,-0.660602,-1.8534255999999998,-0.12183953000000002,-0.35020542
840,1747679562120,0.45497014888888887,-1.1972499333333333,-0.3172676618888889,-2.1612868,-0.164450075,-0.28415908
841,1747679562130,0.383352905,-1.15134,0.09597551300000001,-2.4201459,-0.21611536,-0.14993585999999998
842,1747679562140,0.27889641499999995,-1.05566958,0.429113675,-2.1144152000000003,-0.25020380000000003,0.022636850000000007
843,1747679562150,0.16565385500000002,-0.8695352966666667,0.6390028833333333,-1.1943824611111111,-0.4282211944444445,0.3623967766666667
844,1747679562160,0.16727233789473683,-0.8002444752631579,0.5575520021052632,-0.58576185,-0.5894903,0.57550865
845,1747679562170,0.20177433,-0.76792616,0.39421347,-0.02930175831578947,-0.7652587394736842,0.7811045894736842
846,1747679562180,0.24312048529411764,-0.7389837976470588,0.21458732411764705,0.27284065,-0.8920251,0.90787095
847,1747679562190,0.2665137094736842,-0.6849209947368421,0.05076069736842106,0.4312846078947368,-0.9939540221052631,1.0128274815789473
848,1747679562200,0.2930003515789474,-0.6466425210526316,-0.035892471157894734,0.4791654063157895,-1.0758672515789474,1.0977681684210525
849,1747679562210,0.32754515333333334,-0.6262102333333334,-0.08446414533333334,0.48180987722222224,-1.1492862888888888,1.16826875
850,1747679562220,0.43997422,-0.60636026,-0.16223705,0.4428903542105263,-1.3329321631578948,1.383034605263158
851,1747679562230,0.43850987999999996,-0.5975742,-0.18371409,0.41519350684210526,-1.3668524052631579,1.494046247368421
852,1747679562240,0.3877459610526316,-0.5631749684210526,-0.24215938052631583,0.34595138736842107,-1.341678505263158,1.6776640894736843
853,1747679562250,0.35429725526315786,-0.5153140552631579,-0.3411695610526316,0.09286716263157895,-1.2758564368421053,2.1656108368421054
854,1747679562260,0.3867697,-0.50580865,-0.38530537,-0.206528,-1.1839074,2.6751432
855,1747679562270,0.5131914,-0.6229561,-0.39946067,-0.54741234,-1.0081389,3.3878047
856,1747679562280,0.7395480431578948,-0.7402577463157896,-0.41466932842105264,-0.8271281621052631,-1.0712697736842105,4.147225642105263
857,1747679562290,1.0096039,-0.8308929,-0.4336287,-1.0781939263157894,-1.436599142105263,4.991026168421053
858,1747679562300,1.4183869736842105,-0.9160561,-0.4663837452631579,-1.3069453,-1.8912424,5.7516246
859,1747679562310,1.7476329,-0.9534097,-0.49610740000000003,-1.5381075,-2.2001688,6.334324
860,1747679562320,2.1775334210526314,-0.8509312978947368,-0.5020932315789474,-1.9929750999999998,-2.3120215,7.2429939999999995
861,1747679562330,2.3421564,-0.77231914,-0.4341168000000001,-2.241237636842105,-2.138439731578947,7.740528210526317
862,1747679562340,2.8009841333333334,-0.7033323133333333,-0.19884563333333335,-2.5443081666666667,-1.7071886055555554,8.597535777777777
863,1747679562350,3.6078375,-0.6720116349999999,0.06034315,-2.6652630349999997,-1.444630655,9.3707508
864,1747679562360,4.853180194444445,-0.5912829105555555,0.3474629416666667,-2.4201459,-1.7930014444444444,9.56325611111111
865,1747679562370,6.546209526315789,-0.19380072052631578,0.7325538631578947,-1.4813682468421052,-3.074133657894737,8.81263237368421
866,1747679562380,6.801571,0.15363403,0.75053704,-0.6145239657894738,-3.6378261789473685,7.892412268421053
867,1747679562390,6.535548,0.63589114,0.4152024,-0.17350481,-3.2079084,7.233406499999999
868,1747679562400,6.214368842105263,0.8991647210526317,0.20983464631578946,-0.19548288684210527,-2.4944059894736843,6.8495751315789475
869,1747679562410,5.555542631578947,1.054847552631579,0.12852503842105262,-0.491121587368421,-1.5573664421052633,6.205875710526316
870,1747679562420,5.205924,1.0053939,0.18871726,-0.67311347,-1.4022864,5.77293
871,1747679562430,4.292662,0.98782176,0.277066,-0.7609136142105263,-1.5466015894736842,5.412646736842105
872,1747679562440,3.7934491157894734,1.0320603157894737,0.28497857894736844,-0.8254461736842105,-1.5412752578947368,5.301578684210526
873,1747679562450,3.1947296,1.055995,0.31774219333333337,-0.9260544055555555,-1.3992089888888888,5.293324444444444
874,1747679562460,2.909910573684211,1.0491956415789474,0.3663909363157895,-0.996673287368421,-1.2602139157894736,5.315090789473684
875,1747679562470,2.5120203,0.9912385300000001,0.54601705,-1.1152540242105262,-0.7308900105263157,5.3339851578947375
876,1747679562480,2.7042152812499998,1.09432226875,0.7954741125,-0.87757748,-0.63416474375,4.8086669437500005
877,1747679562490,2.6042738,1.1645191,0.869637,-0.6741787,-0.5692503,4.3646517
878,1747679562500,2.3191122736842105,1.2450579684210528,0.9139526052631579,-0.4008544868421053,-0.47169453157894736,3.8684629894736844
879,1747679562510,1.9722517176470589,1.2861745529411763,0.9109544058823529,-0.05507256070588235,-0.36095986823529413,3.329653894117647
880,1747679562520,1.4892919105263158,1.2550258,0.7881989278947369,0.3535203443157895,-0.2124990694736842,2.758458157894737
881,1747679562530,1.1062505,1.21089,0.58750683,0.50400287,-0.05472792,2.4833958
882,1747679562540,0.877468354117647,1.2057217411764705,0.4448625405882353,0.4847027994117647,0.21108670352941175,2.271095105882353
883,1747679562550,0.78214246,1.2035683,0.38542742,0.4200152405263158,0.3568563178947368,2.174133089473684
884,1747679562560,0.78214246,1.2035683,0.38542742,0.35273543,0.45553336,2.1169453
885,1747679562570,0.42466281789473687,1.3198166157894735,0.2957684831578947,0.055078338947368424,0.6902838484210526,1.9394386473684209
886,1747679562580,0.030880023111111113,1.4993656666666668,0.2723475466666667,-0.16723159222222223,0.9283920822222222,1.6490576444444445
887,1747679562590,-0.06180749884210526,1.5619726842105264,0.30671254210526316,-0.12663321,0.95407677,1.4692649
888,1747679562600,-0.28145903,1.6433594,0.3307586,0.010430710000000001,0.8930016566666666,1.1972675666666666
889,1747679562610,-0.44407821421052635,1.6857482947368423,0.31380304210526316,0.23202423315789472,0.7716363368421052,0.8442915315789474
890,1747679562620,-0.7555979926315789,1.7721703473684212,0.17127359157894737,0.4625697052631579,0.6348901221052632,0.5144522736842105
891,1747679562630,-1.0058209,1.8176162000000002,-0.06314981,0.532765,0.50347024,0.3294328
892,1747679562640,-1.1297505210526315,1.853222947368421,-0.23702133105263157,0.4823051073684211,0.36218261263157897,0.277963732631579
893,1747679562650,-1.1001041210526317,1.8741605947368423,-0.32991722736842105,0.35234297789473684,0.061666149157894735,0.2589571936842105
894,1747679562660,-0.8695284888888888,1.8733156555555557,-0.41198894888888893,0.21105537333333332,-0.202444479,0.22042081
895,1747679562670,-0.8042296,1.8727732999999998,-0.4341168,0.14394376,-0.32637015,0.20160115
896,1747679562680,-0.23082354736842103,1.7987855105263157,-0.5140134315789474,-0.1754110652631579,-0.5075770931578948,-0.1442170605263158
897,1747679562690,0.5133198,1.5961665315789475,-0.4449324205263158,-1.0665321578947369,-0.699268497368421,-1.3073168315789474
898,1747679562700,0.6242374266666667,1.4094712500000002,-0.12261843,-1.5375748944444445,-0.6099078216666667,-2.0607822555555555
899,1747679562710,0.62057656,1.321204,0.10476157,-1.7639434,-0.5585976,-2.5094948
900,1747679562720,0.67378104,1.2416413,0.46694254999999996,-1.7548606,-0.5939194736842106,-2.8021621052631582
901,1747679562730,0.795108015,1.1866673125,0.717680840625,-1.5185332625,-0.54834445,-3.0570403749999997
902,1747679562740,0.99691284,1.1235175,0.77396655,-1.1684611,-0.35832804,-3.3095078
903,1747679562750,1.1890129533333331,1.0874512444444444,0.6828518277777778,-0.9421517311111111,-0.09224886933333333,-3.5538082444444443
904,1747679562760,1.4132745,1.0434667,0.5767683,-0.76366085,0.113583736,-3.8581185
905,1747679562770,1.6009160894736842,1.010120836842105,0.5072504999999999,-0.6748515278947368,0.13270240989473683,-4.101110815789474
906,1747679562780,1.8987858111111113,0.9823982333333334,0.42632056222222225,-0.4868698633333334,0.0968946,-4.61694125
907,1747679562790,2.023520463157895,1.0184444815789473,0.43177259894736847,-0.3754002963157895,0.009580364,-4.854980915789474
908,1747679562800,2.4447118421052627,1.183375805263158,0.5121573305263158,-0.21914295421052632,-0.206275688,-5.060016431578948
909,1747679562810,2.8200204,1.2679994,0.57920885,-0.18309219,-0.30932593,-5.007538
910,1747679562820,3.4626502444444447,1.3698797388888888,0.6442094361111111,-0.24061643000000002,-0.14953639,-4.733765
911,1747679562830,3.500452,1.3758727,0.648033,-0.24061643,-0.14953639,-4.733765
912,1747679562840,5.788733,1.960634,0.55285066,-0.33435962,0.7122619,-4.4642534
913,1747679562850,6.642881463157894,2.0292782105263156,0.3407520831578948,-0.33435962,0.7122619,-4.4642534
914,1747679562860,7.278638021052632,1.9801327315789474,0.1996613094736842,-0.6288769968421053,1.368015694736842,-4.888396778947369
915,1747679562870,7.678943526315789,1.7878670578947369,0.12238507368421053,-0.8468635684210525,1.7765162789473685,-5.535404157894736
916,1747679562880,7.879815599999999,1.6799681,0.08426076,-0.9894967866666666,2.2682569666666668,-6.499262333333332
917,1747679562890,7.061786873684211,0.8415929,0.12742035578947367,-0.9586601631578947,2.912872263157895,-7.559853789473685
918,1747679562900,5.687410710526316,0.14268999431578946,0.21592323684210527,-0.5709603105263158,3.4677625578947366,-8.292194368421054
919,1747679562910,4.726882441176471,-0.02047927411764706,0.2631690847058823,-0.07550056235294118,3.4821352941176467,-8.163600676470589
920,1747679562920,4.066957733333333,-0.05075577066666667,0.2077537436,0.41025965600000003,3.2995031733333335,-7.685326926666667
921,1747679562930,3.7429363222222225,-0.09834151444444444,0.02834453844444445,0.780261188888889,3.1878161333333335,-7.1161684
922,1747679562940,3.5785504357142854,-0.18654690214285713,-0.14968553999999998,0.9705883,3.3061788,-6.676806
923,1747679562950,3.3310764,-0.255894,-0.30379027,1.0620370692307692,3.578558492307692,-6.335594307692308
924,1747679562960,3.231501,-0.26101921,-0.32136238500000003,1.078446225,3.693934825,-6.20169875
925,1747679562970,3.1319256,-0.26614442,-0.3389345,1.0813757,3.7248275,-6.166545
926,1747679562980,2.5791359333333332,-0.26533092,-0.3129017333333333,1.0618459500000001,3.883729333333333,-5.801692166666666
927,1747679562990,2.3530577499999996,-0.3770277866666667,-0.23244419666666666,1.0845715833333331,3.885327283333334,-5.6062161
928,1747679563000,2.157757588888889,-0.6247187277777777,-0.05664162166666667,1.2532382333333334,3.8570978,-5.6340905
929,1747679563010,1.8716141,-0.8821449,0.12526238,1.5927022999999998,3.781641666666667,-5.702800133333333
930,1747679563020,1.5717969352941177,-1.0634364235294118,0.18702322823529413,2.1322270647058823,3.6373506294117646,-5.742945976470588
931,1747679563030,1.4464662,-1.3541516,0.17797874,2.669684,3.447859,-5.7681365
932,1747679563040,1.334993125,-1.7786892625000001,0.09426711374999999,3.1810105,3.193261,-5.874663
933,1747679563050,1.1305477722222224,-2.0884114166666667,0.019666947944444443,3.5084014999999997,2.905639733333333,-5.9485212
934,1747679563060,0.5025341925000001,-2.558004716666667,-0.18997822949999998,4.111577588888888,2.062779488888889,-5.853594088888889
935,1747679563070,-0.096951745,-2.8638897,-0.46486804,4.4657183,1.0488852,-5.38038
936,1747679563080,-0.22086774466666667,-2.8976022133333337,-0.559855128,4.469979433333333,0.6178085133333333,-5.073584333333333
937,1747679563090,-0.694159817,-2.8140044,-1.02995827,4.1516788,-0.47209823799999995,-4.0560446599999995
938,1747679563100,-0.605387207368421,-2.4497632210526317,-1.3734032578947368,3.048076789473684,-1.2205188084210528,-2.5288937789473684
939,1747679563110,-0.2780165252631579,-2.293129868421053,-1.487801857894737,2.0586150210526317,-1.2169865947368421,-1.6226908263157895
940,1747679563120,0.66265206,-2.150787133333333,-1.33569674,0.03273022400000003,-0.43651842,-0.43500041999999994
941,1747679563130,0.9707088105263157,-1.9836909105263159,-0.9251600342105263,-1.5251000984210525,0.4026065863157895,0.006041166
942,1747679563140,0.9904388736842106,-1.8179374157894739,-0.3891846044736842,-2.5709087368421053,0.9528993505263159,0.1385823915789474
943,1747679563150,0.95591116,-1.7129159,-0.025564997,-2.909102,1.1511505,0.17177376
944,1747679563160,0.8542806247368422,-1.6035267526315788,0.36680198768421046,-2.809023,1.201666447368421,0.16605497789473683
945,1747679563170,0.69623435,-1.5010741,0.69733256,-2.282558610526316,1.1238461210526316,0.17345574842105263
946,1747679563180,0.48927380000000004,-1.3800217,0.8559698,-1.402819,0.7900261,0.249538
947,1747679563190,0.3900837721052632,-1.3178513210526315,0.8619042421052633,-0.8685612842105264,0.5269060042105264,0.3501213263157895
948,1747679563200,0.21652052157894738,-1.1744484578947367,0.7917698947368421,0.016504573157894744,0.050508910526315794,0.578031652631579
949,1747679563210,0.17045365277777777,-1.0618252499999998,0.6187190444444445,0.8638844394444445,-0.41147286611111117,0.8577443555555555
950,1747679563220,0.20448608111111113,-0.9722833333333332,0.4330999472222222,1.5535243055555557,-0.7632465805555556,1.0857107666666665
951,1747679563230,0.3644705973684211,-0.8123188684210526,-0.012283143684210532,1.966497757894737,-0.80730865,1.1694212526315788
952,1747679563240,0.35136857368421054,-0.8143740578947368,-0.3012726052631579,1.8931067,-0.5127913,1.1741868
953,1747679563250,0.2413116,-0.8069753,-0.54589504,1.8931067,-0.5127913,1.1741868
954,1747679563260,0.0743764452631579,-0.7792298536842106,-0.6596514021052632,1.0171235315789475,-0.15250791368421052,1.5829116631578948
955,1747679563270,-0.045674034210526314,-0.7960312547368421,-0.6997795789473684,0.6646894684210526,-0.14308873684210527,1.906359331578947
956,1747679563280,-0.07740004722222221,-0.7905962966666666,-0.6680592611111111,-0.3407512,-0.12823111,3.1609035
957,1747679563290,0.18761902,-0.780129,-0.55907416,-0.8988372210526315,-0.12217592894736842,4.168082321052632
958,1747679563300,0.4126398,-0.78891504,-0.49073811999999994,-1.3229243,-0.2549975,5.0602684
959,1747679563310,1.007471589473684,-0.7539763357894737,-0.3767505342105263,-1.7467870684210525,-0.45683690000000005,6.055337010526316
960,1747679563320,1.6496760842105263,-0.7117415421052631,-0.29500419631578945,-1.9814815263157892,-0.5127913042105263,6.480321021052632
961,1747679563330,2.1761975631578947,-0.7012085631578947,-0.16485745736842103,-2.1568015263157894,-0.4185435068421053,6.7174264842105265
962,1747679563340,2.4671137,-0.7747597,0.14966811,-2.2124195,-0.26458487,6.94472
963,1747679563350,2.4520591210526312,-0.8225949252631579,0.34784259842105264,-1.9417303736842104,-0.44444620999999995,7.649476105263158
964,1747679563360,2.7136116,-0.90118134,0.5836019,-1.4986928,-0.69495136,8.662991
965,1747679563370,3.2132351315789474,-0.9706991168421052,0.6039485768421052,-1.0817822631578948,-0.8898385568421052,9.319193105263158
966,1747679563380,4.732196089473684,-1.172932605263158,0.29042491894736844,-0.1367251905263158,-1.5815871526315788,10.451399842105264
967,1747679563390,5.418254,-1.2033242,-0.054851867,0.16737954,-2.0648804,10.610292
968,1747679563400,6.0163225473684205,-0.974783905263158,-0.6668960716315789,0.16569755052631577,-2.585458005263158,10.511054763157894
969,1747679563410,6.281779894736842,-0.6976376947368422,-1.2116061410526315,-0.3810630389473684,-2.602277857894737,10.402061394736842
970,1747679563420,6.369923131578948,-0.554029252631579,-1.3705259736842106,-1.0513381289473684,-2.2802318368421055,10.332314157894736
971,1747679563430,6.387212515789474,-0.34503913684210524,-1.2915284842105264,-2.7167376368421055,-1.4104721842105263,10.064596578947368
972,1747679563440,6.077054199999999,-0.2702034810526316,-0.7977621200000001,-3.5622766210526313,-1.1590699368421054,9.87800752631579
973,1747679563450,5.460385747368421,-0.1661323347368421,0.2314401357894737,-4.133313863157895,-1.3188033789473683,9.815437000000001
974,1747679563460,5.386526444444445,-0.08635559244444445,0.774346188888889,-3.7944542555555554,-1.7611618555555557,9.865672888888888
975,1747679563470,5.529415463157895,0.03761692884210527,0.9983964763157894,-3.0404656578947367,-2.1874979368421053,9.650097894736842
976,1747679563480,5.484791989473685,0.18502750684210525,0.9597583421052631,-2.3775353,-2.4664848,9.22758
977,1747679563490,5.584213,0.43381175,0.7895862,-1.6852260263157894,-2.5785056210526314,8.343523263157895
978,1747679563500,5.587295894736842,0.5694562368421053,0.6231134763157895,-1.4748645157894738,-2.5368482631578946,7.773214789473684
979,1747679563510,5.254864105263158,0.7360317210526316,0.4335195184210526,-1.3085152157894737,-2.414118694736842,6.776352421052632
980,1747679563520,4.60627565,0.88751415,0.310989925,-1.266998,-2.2299963000000003,5.79530075
981,1747679563530,3.278873957894737,1.0349889842105264,0.3097696552631579,-1.3926710842105263,-1.9493834210526317,4.700994473684211
982,1747679563540,2.528282121052632,1.0714948368421053,0.36428435105263157,-1.4894978736842106,-1.8127492842105262,4.366669842105263
983,1747679563550,1.6079808631578947,1.0565944473684212,0.4883167873684211,-1.6041538894736842,-1.5832130631578947,4.172231052631579
984,1747679563560,1.3112586,1.0605507,0.5645654,-1.6190675,-1.469398,4.1345544
985,1747679563570,1.1109261157894736,1.1065877105263155,0.6400947368421053,-1.5743265210526316,-1.3846254947368422,4.081179178947369
986,1747679563580,0.79825026,1.2260215,0.7041662,-1.4422338,-1.3394358,3.9278934
987,1747679563590,0.5751819,1.3739202,0.73247683,-1.352247063157895,-1.389054694736842,3.7866057157894737
988,1747679563600,0.5386503884210526,1.5084857368421052,0.7828810647368422,-1.2548596315789473,-1.4232552736842106,3.6259751578947372
989,1747679563610,0.6104289010526316,1.7513613157894738,0.9118974152631579,-0.9999811842105263,-1.355078357894737,3.216914
990,1747679563620,0.63033885,1.9503834000000002,1.0726926,-0.7348987166666666,-1.2389459666666667,2.8931673333333334
991,1747679563630,0.60202825,2.1168303,1.181054,-0.07976162,-1.0656631,2.2735388
992,1747679563640,0.5815273722222223,2.3001446555555556,1.086468311111111,0.13027286666666665,-1.06903645,2.1009661166666667
993,1747679563650,0.5727413,2.392615,0.8330284,1.1804453,-1.0859032,1.2381027
994,1747679563660,0.6002555852631579,2.433668210526316,0.3919270378947369,1.296559,-1.0997516,0.77577823
995,1747679563670,0.7003961310526315,2.4462306105263156,-0.12447240894736843,0.9442370905263158,-1.0699241263157895,0.2991008089473684
996,1747679563680,0.8180906594117648,2.4117379058823527,-0.5309931952941176,0.14419440705882353,-1.0200447705882354,-0.3356050388235294
997,1747679563690,0.81728673,2.33697,-0.7006273,-0.73276824,-0.9815073,-0.82531303
998,1747679563700,0.6969521458823529,2.1646370470588234,-0.6538257576470587,-1.8055513552941176,-0.8712211541176471,-1.2604419429411764
999,1747679563710,0.60202825,1.9772297999999997,-0.44680782999999996,-2.616266573684211,-0.7010626110526317,-1.5172858368421054
1000,1747679563720,0.60202825,1.9772298,-0.44680783,-2.755704,-0.6704503,-1.5603449
