id,timestamp,acc_x,acc_y,acc_z,gyro_x,gyro_y,gyro_z
0,1747679307320,-0.64608055,0.6920243,0.29561433,0.9217194000000001,-0.14221269,-0.9201215
1,1747679307330,-0.6443336131578947,0.6982927210526316,0.30414349210526315,0.8712595263157894,-0.1304387257894737,-0.8161741842105263
2,1747679307340,-0.53820723,0.793064,0.38737985,0.72038454,-0.16245271,-0.433296
3,1747679307350,-0.503062992,0.8314297820000001,0.347549708,0.7178278920000001,-0.310098244,-0.40453386
4,1747679307360,,,,,,
5,1747679307370,,,,,,
6,1747679307380,-0.20287259,0.9268073999999998,0.6748793,0.69694877,-0.3733749,-1.0117341
7,1747679307390,-0.376702338125,0.8888869625,0.72454496,0.828042761875,-0.238619049375,-1.1069420562499999
8,1747679307400,-0.5399504942857142,0.8437581714285715,0.7549300542857144,0.9576339457142857,-0.16153961857142857,-1.1490009714285716
9,1747679307410,-0.6871849247368421,0.79673772,0.7515389368421053,1.1209236526315791,-0.2232287947368421,-1.0480652473684209
10,1747679307420,-0.80544993,0.75401485,0.66096805,1.3355743,-0.417583335,-0.79388775
11,1747679307430,-0.8029047628571427,0.7487501885714286,0.5617762185714286,1.396294292857143,-0.5470889564285715,-0.63615265
12,1747679307440,-0.78372884,0.754503,0.4835384200000001,1.3904353,-0.68017083,-0.48549390000000003
13,1747679307450,-0.7299820005555556,0.743439038888889,0.4915380822222223,1.2923127555555556,-0.7271607966666667,-0.3786124444444445
14,1747679307460,-0.7212214588235294,0.7440515764705883,0.5657713735294118,1.1754401647058823,-0.7579350970588236,-0.30295785647058826
15,1747679307470,-0.7082765957894737,0.7445094368421052,0.7727847942105264,1.253801294736842,-0.9055581694736842,-0.27787963263157894
16,1747679307480,-0.6839907566666666,0.7012984833333333,0.92162123,1.51755675,-1.2170637266666668,-0.288420125
17,1747679307490,-0.5980443352941177,0.6118299588235294,0.9741796382352942,1.755695417647059,-1.4396411470588237,-0.29243052647058826
18,1747679307500,-0.4901151168421053,0.5159177399999999,0.9972917842105263,2.0854358315789474,-1.685667547368421,-0.32519974736842105
19,1747679307510,-0.36423295684210527,0.4148009694736842,1.0078761842105264,2.4352348210526316,-1.9136340631578947,-0.40604765315789476
20,1747679307520,-0.31107129666666666,0.3682417,1.0027295666666667,2.6804697333333336,-2.0664339999999997,-0.48016758000000004
21,1747679307530,-0.2825893894736842,0.32542465789473685,0.974530252631579,3.0001609894736845,-2.2518831789473683,-0.599421052631579
22,1747679307540,-0.28151040578947367,0.2506146852631579,0.8799388363157895,3.3237768631578946,-2.4005715473684206,-0.7420542652631579
23,1747679307550,-0.35025747105263155,0.16367892315789473,0.7008264573684211,3.647056263157895,-2.404944878947368,-0.8643913368421052
24,1747679307560,-0.4457095438888889,0.11713392322222223,0.5202826255555555,3.73330525,-2.1204073833333332,-0.8276210916666668
25,1747679307570,-0.528958742631579,0.08994794442105264,0.4013810494736842,3.7557132,-1.8639591263157895,-0.7328032668421053
26,1747679307580,-0.5771479333333334,0.07282397377777777,0.31860995555555555,3.801718911111111,-1.5996117444444442,-0.5872857522222223
27,1747679307590,-0.6403773421052632,0.050051004684210525,0.21309729631578947,3.951329210526316,-1.5273357684210527,-0.4835315689473684
28,1747679307600,-0.7820332473684211,0.050153763736842105,0.031210424526315794,4.2861583473684215,-1.7957821578947368,-0.43834199
29,1747679307610,-0.8042296,0.051618107,0.0032337585,4.457833842105264,-2.0873841684210523,-0.43099725684210527
30,1747679307620,-1.017201652631579,0.058040664368421056,-0.33870329860526316,4.528477631578948,-2.557221457894737,-0.3382071831578947
31,1747679307630,-1.22376405,0.064309083,-0.8392518250000001,4.377434500000001,-3.0977866,-0.09241162
32,1747679307640,-1.1544789333333334,0.07651195111111112,-1.1483367777777778,3.8915559555555554,-3.260002666666667,0.22266969111111112
33,1747679307650,-1.0492631,0.09115539,-1.2936865,3.5039183999999994,-3.2197595000000003,0.41145808
34,1747679307660,-0.58167996,0.204397945625,-1.3849638625,2.1005667,-2.092444075,0.6701839975
35,1747679307670,-0.33723965666666667,0.2849368394444445,-1.3192582055555555,0.8869799277777778,-0.6686304611111111,0.7008546833333333
36,1747679307680,-0.2653512475,0.3483917325,-1.163726,0.3322291,0.2306295875,0.6285055375
37,1747679307690,-0.3465138427777778,0.4053926561111111,-0.9264888111111111,-0.012753569999999999,1.3035276,0.5717210816666667
38,1747679307700,-0.48958562222222224,0.48099614999999996,-0.6741878222222222,0.07951009777777779,2.033884122222222,0.6477098527777777
39,1747679307710,-0.49744970000000005,0.5399766500000001,-0.59495055,0.5212986177777778,2.0852534888888887,0.8079728555555555
40,1747679307720,-0.4253172277777778,0.5904151555555556,-0.6271661111111111,1.2711258666666667,1.911497172222222,1.0354658666666667
41,1747679307730,-0.14762951000000002,0.5844094647058824,-1.2150713352941178,2.332755088235294,1.1152996764705883,1.0566318941176471
42,1747679307740,-0.04189756363157895,0.5401179789473685,-1.7211205578947368,2.9781267052631577,0.2626996105263158,0.8747916915789474
43,1747679307750,-0.07010544272222223,0.44631289444444444,-2.3675110166666666,3.2026262944444444,-0.5521024888888889,0.6504322044444444
44,1747679307760,-0.059280786117647054,0.125639236,-3.3238982823529413,2.654276717647059,-2.153493176470588,0.3548737747058824
45,1747679307770,0.04516664368421052,-0.05160526315789474,-3.7262951789473684,1.7286845789473686,-2.9525464631578946,0.16364411684210525
46,1747679307780,0.05813308127777777,-0.0600516445,-3.63500905,0.37097804666666667,-3.2055558666666664,-0.05938845333333334
47,1747679307790,0.014745125749999997,-0.07577977949999999,-3.2652623,-0.7631726099999999,-3.1221102666666667,-0.22343904666666667
48,1747679307800,-0.07354793534210526,-0.1398769152631579,-2.7977212789473684,-1.6528125736842103,-2.8200052631578947,-0.32435876210526315
49,1747679307810,-0.28821555157894735,-0.14794364368421054,-2.2029924210526315,-2.0794717157894738,-2.3959742473684207,-0.2557894247368421
50,1747679307820,-0.34463132421052634,-0.15369826421052632,-1.7072993789473685,-2.2058947,-2.1981716,-0.20319904
51,1747679307830,-0.23619996,-0.21576016277777776,-1.4968777222222223,-2.089070766666667,-2.2578262999999996,-0.05199078388888889
52,1747679307840,-0.10920597894736842,-0.28117322,-1.3609177736842104,-1.8576936263157895,-2.419522010526316,0.19975094999999998
53,1747679307850,0.01853040588235294,-0.3644564376470588,-1.320360494117647,-1.596242782352941,-2.9360232176470586,0.29885344705882355
54,1747679307860,0.10402298,-0.4545052489473685,-1.3171416947368422,-1.527742242105263,-3.3803338368421048,0.3762483157894737
55,1747679307870,0.24986646157894737,-0.6341056705263158,-1.2230383210526314,-1.7427853157894737,-3.833799794736842,0.46931872631578947
56,1747679307880,0.30993020789473685,-0.7483244631578947,-1.0171567947368423,-2.0328524315789473,-3.880503121052632,0.5485406726315789
57,1747679307890,0.3194099,-0.767438,-0.9803170000000001,-2.199181911764706,-3.823701182352941,0.6165526558823529
58,1747679307900,0.35303845000000006,-0.8857929215789474,-0.5772114252631578,-2.3480583157894737,-3.6503501263157894,0.7551457631578947
59,1747679307910,0.35866461368421054,-0.9638398515789472,-0.3634686610526316,-2.3775913631578947,-3.4598922578947366,0.9641617315789472
60,1747679307920,0.36626892,-1.0180848,-0.229352795,-2.3512366,-3.28314255,1.20135105
61,1747679307930,0.3698655505263158,-1.0558623263157894,-0.14970022368421051,-2.297002742105263,-3.121306557894737,1.4480716947368422
62,1747679307940,0.3767248368421053,-1.091854342105263,-0.10805634684210526,-2.2655494,-3.0386646,1.5800523
63,1747679307950,0.44423878052631577,-1.1515070684210524,-0.11676533736842104,-2.241328684210526,-2.8327883894736843,1.9998783210526314
64,1747679307960,0.5706347521052632,-1.2272418684210527,-0.16727234157894735,-2.258204736842105,-2.5044068736842107,2.7493753947368424
65,1747679307970,0.8011246666666667,-1.3226410555555554,-0.2530805888888889,-2.4399420000000003,-2.4501655777777778,3.089886033333334
66,1747679307980,1.2585709058823529,-1.5024810000000002,-0.3901865352941177,-2.9992183823529412,-2.7295499823529408,3.152820094117647
67,1747679307990,1.5509227736842106,-1.6763585578947369,-0.47334580789473685,-3.4226850210526316,-3.0839102263157896,2.9592323473684212
68,1747679308000,1.7891226368421054,-2.0267733210526315,-0.552291905263158,-4.371554536842105,-3.986917584210526,2.4521667894736843
69,1747679308010,1.6940264411764705,-2.341578652941177,-0.51399534,-5.2556114,-4.7303033,2.1638167
70,1747679308020,1.5507943,-2.5386514684210524,-0.3648559542105263,-5.995688978947368,-5.250880747368421,2.259690542105263
71,1747679308030,1.5049372578947366,-2.7683478684210523,-0.02348409263157895,-6.71788177368421,-5.617275247368421,2.628159610526316
72,1747679308040,1.554448027777778,-2.9533232722222222,0.29230599333333335,-7.225520477777778,-5.7482217222222225,3.0664502000000002
73,1747679308050,1.838422094736842,-3.203386294736842,0.7082509115789474,-7.503485857894737,-5.402260289473684,3.651877963157895
74,1747679308060,2.2549464666666665,-3.4000022666666667,1.0463344222222224,-7.578833055555555,-4.736339666666667,4.134317733333333
75,1747679308070,2.7000727210526314,-3.5430112210526317,1.2830442736842105,-7.46126762631579,-4.109142368421053,4.301632668421052
76,1747679308080,3.0153177052631577,-3.6290219684210525,1.3832105526315788,-7.239917015789475,-3.9984669999999998,4.11526764736842
77,1747679308090,3.203575763157895,-3.618720252631579,1.4406539368421054,-6.837079200000001,-5.098379842105262,3.648345752631579
78,1747679308100,3.1695361684210526,-3.4854136842105263,1.5290026210526315,-6.5836585,-6.255872942105263,3.510926736842105
79,1747679308110,3.0896909894736844,-3.280765157894737,1.6090533263157896,-6.248941394736843,-7.475992110526317,3.625863
80,1747679308120,3.1498060947368423,-3.105686157894737,1.640138457894737,-5.9478644,-8.068222378947368,3.9210533315789475
81,1747679308130,3.4141586105263158,-2.970041757894737,1.6312753210526314,-5.720683,-8.021350842105264,4.139824942105263
82,1747679308140,3.9441482,-2.91074875,1.5300558499999999,-5.570988527777778,-6.906104277777778,4.046729483333333
83,1747679308150,4.052381010526315,-2.9649294526315786,1.4206411684210527,-5.690014589473684,-6.108417947368421,3.7856526263157892
84,1747679308160,3.932202052631579,-3.0760655,1.3626583210526317,-5.991372,-5.162744078947368,3.451664421052632
85,1747679308170,3.4741709421052636,-3.1217427842105265,1.6300679,-6.423757031578948,-4.399566731578947,3.2853712105263155
86,1747679308180,3.15106482631579,-2.9041721210526315,2.1416633157894736,-6.512622578947369,-4.507719,3.4966297894736846
87,1747679308190,3.226953942105263,-2.198358436842105,2.852871957894737,-5.370379289473685,-5.994771110526315,4.0390733368421055
88,1747679308200,3.588415552631579,-1.5824864421052631,3.1261133315789476,-4.880638526315789,-6.281158910526316,4.0377277
89,1747679308210,3.9611038421052633,-1.2252123684210527,3.1121891578947367,-3.6059105263157893,-6.741689257894737,3.7058700263157895
90,1747679308220,4.278455157894737,-0.9995750105263158,2.6818776157894737,-3.0756894842105265,-6.775833894736842,3.276905089473684
91,1747679308230,4.421344147368422,-0.6373426757894737,2.3529398684210525,-3.354620342105263,-6.756770842105263,2.967249763157895
92,1747679308240,4.549435652631579,0.27126966210526315,2.3101398736842107,-3.7828002,-6.526954210526315,2.848556989473684
93,1747679308250,4.823567622222222,0.8042906666666667,2.4158752666666663,-4.7442847,-5.72153115,2.69431805
94,1747679308260,5.1180634,1.053229,2.5170236,-5.232399768421053,-5.264841468421052,2.568785142105263
95,1747679308270,5.480295715789474,0.7504952673684211,2.9714324,-6.2910476,-4.4938145,1.8623471000000003
96,1747679308280,6.154612968421053,-0.17848934526315788,4.376097315789473,-6.808653663157894,-3.5079411105263163,0.8343116473684211
97,1747679308290,5.590097,-0.6348877944444444,5.402702222222222,-7.330922444444444,-1.1661086222222223,-0.9691827611111111
98,1747679308300,5.0979478947368415,-0.6548890789473684,5.878411210526316,-6.752755121052632,0.5851941684210525,-1.4325693157894737
99,1747679308310,4.155733063157895,-0.6572782789473685,6.816335789473684,-5.346158594736842,2.5703971578947367,-1.748448
100,1747679308320,3.488737326315789,-0.8038411105263158,7.685462273684211,-3.1150340368421054,3.248129031578947,-1.713518594736842
101,1747679308330,3.3869383444444443,-0.918590823888889,7.7125412055555564,-0.23095506111111114,2.9142061666666668,-1.3945188499999999
102,1747679308340,3.781877244444445,-1.0477242222222223,7.161921,1.9724244000000002,2.674699422222222,-1.1717604444444445
103,1747679308350,4.818659544444445,-1.3740016277777778,5.880322111111111,4.427620444444445,2.7988618666666665,-1.195669711111111
104,1747679308360,5.391787233333334,-1.6423561111111111,5.074472266666667,5.747955388888888,3.173006144444445,-1.5905274
105,1747679308370,5.747422989473684,-1.9610577526315789,3.9264413578947366,6.67470347368421,3.3422647789473685,-2.3026654789473686
106,1747679308380,5.643016394117647,-2.100737094117647,2.989030205882353,7.10664,3.3806143,-2.7310696
107,1747679308390,4.9299338684210525,-2.2030597368421057,1.3863703842105264,6.843688057894735,3.4865799315789476,-3.3017145368421055
108,1747679308400,4.192435733333333,-2.1242335333333333,0.47393882,5.3472978666666675,4.394863377777778,-4.394301388888889
109,1747679308410,3.540152177777778,-2.0046456,0.17873803666666666,4.056435133333334,5.521438933333333,-4.2529765
110,1747679308420,3.1817133749999997,-1.92921165,0.28737739125,2.5676182625,7.161501125,-3.74793046875
111,1747679308430,2.8887632500000002,-1.985121,0.7226331333333333,1.7861216166666667,8.16021525,-3.197536716666667
112,1747679308440,2.86126605,-2.132911183333333,1.1537196555555556,1.4896824222222222,8.811919944444446,-2.6779247
113,1747679308450,2.8827159944444443,-2.2646478777777777,1.66244345,1.755643261111111,9.096523222222224,-2.2487418666666668
114,1747679308460,2.9099483529411763,-2.3333954764705886,2.2265667058823526,2.7414403588235294,9.042490647058823,-1.7545989176470589
115,1747679308470,2.9791458,-2.3529315399999997,2.30440084,3.88038264,8.5343594,-1.4301697199999999
116,1747679308480,3.2223353333333336,-2.4671612,2.2227174,5.047011944444445,7.876263288888889,-1.18844955
117,1747679308490,3.6424419684210525,-2.7008337684210524,1.8238493789473684,6.589762863157895,6.856289189473684,-1.0974037736842106
118,1747679308500,3.9723286266666666,-2.8730010399999997,1.3951411066666668,7.60539664,6.1172764,-1.24502688
119,1747679308510,4.3145051875,-3.04473623125,0.498669963125,8.32010875,5.546761325,-1.8801903000000002
120,1747679308520,4.286072666666667,-3.1163533555555554,-0.25470762722222223,8.195812888888888,5.710937455555555,-2.7069235555555555
121,1747679308530,3.9658421111111113,-3.0704163222222225,-0.6939564644444445,7.666021777777778,6.187228733333333,-3.1810843555555555
122,1747679308540,3.5622128352941176,-2.9794866764705885,-0.801552205882353,7.101313717647059,6.6400703529411755,-3.3737369235294117
123,1747679308550,3.06952835,-2.8141020833333332,-0.7156775666666666,6.455053933333334,7.040150133333333,-3.3617058333333336
124,1747679308560,2.8793135315789473,-2.7527280789473685,-0.611867592631579,6.146725510526316,7.1537782105263155,-3.2734011578947366
125,1747679308570,2.6605425444444446,-2.6908259555555554,-0.45806155055555553,5.845190255555555,7.15963686111111,-3.1007163055555558
126,1747679308580,2.3890696444444446,-2.638570633333333,-0.25115525555555557,5.637759772222221,6.992390505555556,-2.8289556555555553
127,1747679308590,1.9707555,-2.4764353666666663,-0.08175240022222223,5.525078955555555,6.580429422222222,-2.3211799444444443
128,1747679308600,1.799373,-2.4045742,-0.044601463,5.4948964,6.3484387,-2.073802
129,1747679308610,1.7004484666666666,-2.2184396222222222,-0.06976647722222223,5.311197377777778,5.5956523,-1.13637
130,1747679308620,1.85447575,-2.15568985,-0.07009188833333332,5.137677666666667,5.424855066666666,-0.7976161533333334
131,1747679308630,2.0762967499999996,-2.0859980166666663,-0.021822786666666667,4.907048166666666,5.2657756000000004,-0.6184743216666666
132,1747679308640,2.1397325294117646,-2.0070478,0.03369784488235294,4.782986705882354,5.054769870588236,-0.67323096
133,1747679308650,2.0893401111111114,-1.93734,0.05429596094444445,4.7374936666666665,4.886186833333333,-0.7198518933333333
134,1747679308660,2.068324,-1.914019,0.059855044,4.752282,4.660622352941177,-0.7020557476470588
135,1747679308670,1.8986104615384616,-1.8408018461538462,-0.017867805230769227,4.859097538461539,4.138344230769231,-0.5844814546153846
136,1747679308680,1.7482072235294117,-1.7130306764705883,-0.1987882211764706,4.925919911764706,3.666856752941176,-0.44031417470588236
137,1747679308690,1.6907819294117648,-1.5717645352941176,-0.41740607647058825,4.914766088235294,3.2232058235294114,-0.2494440111764706
138,1747679308700,1.7370570666666667,-1.4699974333333334,-0.6358708133333333,4.802119666666666,3.020199933333333,-0.15029094333333334
139,1747679308710,1.9427973388888888,-1.217533813888889,-1.1040540055555554,4.3639412222222225,3.175965088888889,-0.22130851666666668
140,1747679308720,2.158354077777778,-0.8924495688888889,-1.5062874777777777,4.0408115,3.4274857,-0.3331612
141,1747679308730,2.784095286666667,-0.019744215999999988,-2.3717035666666666,3.45470332,3.7506156400000004,-0.80095398
142,1747679308740,3.347590927777778,0.46654255,-3.1109908944444444,1.9646124833333332,4.209566583333333,-2.5038134666666667
143,1747679308750,3.496059077777778,0.26682236,-3.4380818222222223,1.0534569666666667,4.194120566666666,-3.887235766666667
144,1747679308760,2.6296558294117647,-0.4224559238235295,-3.250365188235294,0.1836169823529412,3.8748339588235297,-5.336829670588235
145,1747679308770,0.9512741405555557,-0.6566631694444445,-2.5265008888888887,-0.021334863111111116,3.2417156055555556,-5.995569877777778
146,1747679308780,0.18210618470588233,-0.6665993394117647,-2.151791594117647,0.055033399058823526,2.9174750705882353,-6.094044141176471
147,1747679308790,-1.443688331764706,-0.47517228117647065,-1.2706302529411764,1.5487836529411765,2.4405504352941176,-5.408891941176471
148,1747679308800,-2.423359638888889,-0.5579555538888888,-1.345779138888889,3.990033722222222,2.445549488888889,-4.3126312222222225
149,1747679308810,-3.4385261470588233,-0.9736520464705881,-2.1164751764705882,5.938923211764706,2.360968929411765,-3.236380776470588
150,1747679308820,-3.91132235,-1.8139284222222223,-3.9193898611111107,8.21759168888889,1.408278538888889,-1.1601017005555554
151,1747679308830,-2.665410422222222,-2.389659477777778,-5.946366727777778,8.527346666666666,0.7961070166666667,0.9458652783333333
152,1747679308840,-0.7848592263157894,-2.4748111263157893,-6.5637813,7.328999978947368,1.1920580210526317,1.1601140947368422
153,1747679308850,0.03351042222222224,-2.5508728111111107,-6.861716977777778,5.881291027777778,1.3890446333333335,0.6020218877777778
154,1747679308860,-0.5318617666666667,-2.5002988555555556,-6.769463211111112,3.0472754555555555,1.2635802444444444,-0.17206965777777775
155,1747679308870,-2.2099993833333333,-2.175811083333333,-6.673765566666667,0.8338351166666667,0.24057204166666668,0.7324575333333334
156,1747679308880,-2.498475,-2.1661300999999997,-6.2853892,-0.4975743266666666,-0.7821402361111112,1.831513688888889
157,1747679308890,-1.59196935,-2.358126042105263,-5.444765852631579,-2.743102957894737,-2.885042357894737,3.937536947368421
158,1747679308900,0.16690121111111111,-2.551442355555556,-4.452058111111111,-4.431452355555556,-4.524115533333333,4.979190222222222
159,1747679308910,1.2449563333333333,-2.6483060166666665,-3.761511966666667,-5.410015488888889,-5.203221072222222,5.07311075
160,1747679308920,2.1630185,-2.7638261,-2.9239888,-6.21861,-5.4301815,4.7215147
161,1747679308930,2.1319961000000003,-2.8434430333333336,-2.55953,-6.598790666666667,-5.333597611111111,4.545864588888889
162,1747679308940,2.055402042105263,-3.2446449578947365,-0.7845059894736842,-8.184189315789473,-5.436012105263157,4.158943347368422
163,1747679308950,2.4361999111111112,-3.4686635333333333,-0.17232476000000002,-8.212072666666668,-6.26665,4.490471155555556
164,1747679308960,2.8673134222222223,-3.7165716888888887,0.19885919333333335,-7.984224800000001,-6.787682277777778,4.610254155555555
165,1747679308970,3.1849578000000003,-3.8470673529411763,0.5107292552941176,-7.579953811764705,-6.947430052941177,4.544681023529412
166,1747679308980,3.2874714333333332,-3.849392933333333,0.6774825899999999,-7.238303733333333,-6.883792866666667,4.448215366666667
167,1747679308990,3.2544966666666664,-3.7716199555555554,0.7315006,-6.6728856,-6.596053322222222,4.299078466666667
168,1747679309000,3.1811167888888887,-3.7205034833333333,0.7180232,-6.159191688888889,-6.312929944444445,4.190185
169,1747679309010,3.075331511111111,-3.7903309999999997,0.6286711155555555,-5.70000385,-6.199479505555555,4.192729777777777
170,1747679309020,2.967268433333333,-3.9509207666666666,0.48223677666666664,-5.230045166666667,-6.4631322,4.377789466666666
171,1747679309030,2.8829873,-4.0573297,0.33612785,-4.995687083333333,-7.144545666666667,4.765190333333333
172,1747679309040,3.3407845333333333,-4.058793888888889,-0.3547168566666667,-5.40463,-8.571998999999998,5.779558166666667
173,1747679309050,4.132226273684211,-4.108119484210526,-0.7038642868421052,-6.3017001052631585,-8.826634263157894,6.197633799999999
174,1747679309060,4.797996,-4.285360488888888,-0.6360335277777778,-7.739806166666666,-7.897509416666667,6.0026125555555545
175,1747679309070,5.141415684210526,-4.521654978947369,-0.28578140526315793,-9.074974000000001,-6.423904321052631,5.389771394736842
176,1747679309080,4.968537666666666,-4.710210011111112,0.37604475555555555,-10.111083333333333,-4.776819566666667,4.576283766666666
177,1747679309090,4.53543776875,-4.71942656875,0.9952654999999999,-10.58565825,-3.67729,3.9049902000000003
178,1747679309100,3.766474566666667,-4.476294333333333,1.9251032,-10.471674861111111,-3.0491397055555556,3.253818177777778
179,1747679309110,3.3984620000000003,-4.246229631578947,2.4096382894736843,-10.006687,-3.0723605,3.0432198736842104
180,1747679309120,3.0649456111111113,-3.7339808888888886,3.032146944444444,-8.413407666666666,-3.730849155555555,2.994840688888889
181,1747679309130,2.914389388888889,-3.2870851555555554,3.255594811111111,-6.520079444444445,-4.670174933333333,3.0327167777777775
182,1747679309140,2.9359476666666664,-2.9995044333333336,2.977505227777778,-4.743752305555556,-5.678624544444444,3.0921941111111106
183,1747679309150,3.185618311111111,-2.650312555555556,1.8517776333333333,-2.472669288888889,-7.2645654666666655,3.1257498666666663
184,1747679309160,3.267241888888889,-2.5121219999999997,1.261701488888889,-2.139582,-7.394409155555555,3.1231458555555554
185,1747679309170,3.189494435294118,-2.3128946823529413,0.9011347411764706,-2.372859176470588,-6.709061623529412,3.1860311588235293
186,1747679309180,3.08189395,-2.1078004,0.800568775,-2.8422566,-5.71194365,3.2919308999999997
187,1747679309190,2.91398265,-1.8490997,0.96555145,-3.5224273499999996,-4.20406305,3.4256215
188,1747679309200,2.666039230769231,-1.589572923076923,1.3366123692307694,-4.008187807692308,-2.684259546153846,3.553494161538462
189,1747679309210,2.512907663636364,-1.1305951454545455,1.7237929636363638,-4.175240363636363,-1.7564744545454545,3.7849543090909092
190,1747679309220,2.58060025,-0.8799483849999999,1.8866235,-4.2004675,-1.9238661,3.9023270500000002
191,1747679309230,2.8507367571428572,-0.6954411164285714,2.0218312571428574,-4.228773107142857,-2.9563348999999994,4.0088535
192,1747679309240,3.3658849875000003,-0.511116895,2.16936393125,-4.38742155,-5.007804425,4.2365535
193,1747679309250,4.61852748,-0.290647784,2.32236338,-4.75983764,-6.551904039999999,4.462868599999999
194,1747679309260,6.72298412,-0.342876008,2.63709954,-5.783556,-7.034042599999999,4.3797781
195,1747679309270,8.8789855,-0.9373018,3.70240935,-7.8194878,-3.5804575900000004,2.22901086
196,1747679309280,8.466333599999999,-1.7644606799999998,6.686595,-8.4829336,-0.176620702,-0.13363732799999997
197,1747679309290,6.1287045,-1.49049825,9.6954795,-5.760546000000001,0.6226466,-1.8745977
198,1747679309300,4.971629222222222,-1.285381711111111,10.87565888888889,-2.5524011427777777,-0.3426006222222222,-1.6213016444444444
199,1747679309310,4.478048013333334,-1.28737756,11.235562,1.0674474667333333,-1.2289946666666665,-1.2891287466666665
200,1747679309320,4.5621014,-1.3775811,11.065861,1.9891136,-1.3289164,-1.1757847
201,1747679309330,5.591276094117647,-1.5912604705882352,7.678346423529412,7.038651235294118,0.43133775882352937,-1.1552314529411765
202,1747679309340,5.825829333333333,-1.5666441666666668,5.4413174,8.317845,1.9655888666666665,-1.5557288
203,1747679309350,5.639069461538461,-1.5146286230769233,3.676971153846154,8.180098076923077,3.1638738615384616,-2.035944123076923
204,1747679309360,5.123921,-1.2262657000000001,2.371077,6.5979006857142855,4.252151971428572,-2.5592578285714285
205,1747679309370,4.751717279999999,-0.9479102333333332,2.01982988,4.489145386666666,5.30788914,-2.802158266666667
206,1747679309380,4.22158483076923,-0.6852094846153847,1.7882683846153848,3.614787846153846,5.9015196538461545,-2.9481376923076925
207,1747679309390,3.8580500499999997,-0.8987136833333333,2.2059859944444447,2.690056933333333,6.817509666666667,-3.302051
208,1747679309400,3.347528523529412,-1.1626098,2.4438922882352943,2.5400428294117647,7.172263235294118,-3.5310199705882357
209,1747679309410,3.0159170222222222,-1.3452571222222223,2.4618121000000004,2.754327911111111,7.199939444444444,-3.6054144
210,1747679309420,2.7487015111111113,-1.5230934666666667,2.4111567111111114,3.089649138888889,7.1012251,-3.569728144444445
211,1747679309430,2.55109645,-1.7763164444444444,2.286253688888889,3.5386578166666665,6.987241716666667,-3.3989900055555555
212,1747679309440,2.4841977,-2.1463614499999997,2.14825285,4.30233365,6.89918025,-3.0549098
213,1747679309450,2.564556868421053,-2.383867731578947,2.0599170157894737,4.644816,6.873614000000001,-2.8983161
214,1747679309460,2.79903175,-2.655709,1.9291708166666668,4.936520666666667,6.784842,-2.8484262333333334
215,1747679309470,3.0688560894736843,-2.9436835789473683,1.7382751947368422,6.472752178947369,6.299492736842105,-2.607947552631579
216,1747679309480,3.2765103368421054,-3.2450814473684213,1.2230832526315791,7.466979636842105,5.7449946315789475,-2.7911729842105264
217,1747679309490,3.2682722666666666,-3.2804140999999998,0.9249566466666668,7.799416866666667,5.517177666666666,-2.9785659333333334
218,1747679309500,3.189548894736842,-3.256719057894737,0.6208784047368422,7.854118921052632,5.423901842105263,-3.1008843789473683
219,1747679309510,3.065569311111111,-3.2025326944444448,0.2651342861111111,7.6257192499999995,5.469004238888889,-3.1645727833333335
220,1747679309520,2.9912403111111114,-3.128339277777778,0.017985661111111106,7.229855444444444,5.637552522222222,-3.1542160333333333
221,1747679309530,2.9281379,-2.9951925,-0.16004053499999998,6.561520911111111,5.9425730055555555,-3.0809495333333334
222,1747679309540,2.880112822222222,-2.9060303333333333,-0.22547498444444447,6.259992133333333,6.061645844444445,-3.0372736999999996
223,1747679309550,2.716129252631579,-2.6837240736842105,-0.19722716315789476,5.370484789473685,6.268151378947368,-2.8449406842105263
224,1747679309560,2.5673313736842105,-2.544072063157895,-0.0634581,4.827088052631579,6.3166487368421045,-2.659192378947368
225,1747679309570,2.383266466666667,-2.384344388888889,0.2789642177777778,4.3660718888888885,6.167698888888889,-2.323428888888889
226,1747679309580,2.296813157894737,-2.320746694736842,0.4821768410526316,4.237324421052631,5.932873657894737,-2.119215963157895
227,1747679309590,2.1366601333333333,-2.2348727999999998,0.7280838066666666,4.4463215,5.118769333333334,-1.7812096333333334
228,1747679309600,2.038440877777778,-2.1613845,0.7281922688888889,4.739860888888889,4.5076631111111105,-1.5382111
229,1747679309610,2.067604852631579,-2.1128100210526313,0.6307177894736842,4.934735589473684,4.0619904,-1.3592904210526315
230,1747679309620,2.166028227777778,-2.0637346666666665,0.4855722161111112,5.022629322222222,3.8182008111111116,-1.3169913111111111
231,1747679309630,2.1776617631578947,-2.045784278947368,0.42072578157894736,5.024946815789473,3.8095790631578947,-1.3389943210526316
232,1747679309640,2.0984788888888892,-2.0367255166666665,0.32614861333333334,4.969129483333333,3.972782577777778,-1.3702545555555554
233,1747679309650,1.8934164999999998,-2.033281566666667,0.18676480666666664,4.825378,4.3068610000000005,-1.30255115
234,1747679309660,1.5574580833333334,-2.00206935,0.040167755,4.6690209722222225,4.494998138888889,-1.0955349388888889
235,1747679309670,1.1637194842105263,-1.9192598210526315,-0.1435088668421053,4.341720247368421,4.535359942105263,-0.5449804578947369
236,1747679309680,1.1363508666666666,-1.8526793,-0.44355368333333334,3.8416071333333335,3.7214986333333337,0.21935553333333335
237,1747679309690,1.3491688000000002,-1.6395359333333335,-0.6235052533333333,3.4570469,2.9710203500000003,0.5036033999999999
238,1747679309700,1.5995715555555554,-1.3684154666666666,-0.6559920044444445,3.0224192666666667,2.428978733333333,0.6475915333333333
239,1747679309710,1.734942,-1.2326112,-0.6444942,2.613245905263158,2.4429579684210525,0.7171887136842106
240,1747679309720,2.038549111111111,-0.7695531800000001,-0.5815274111111112,2.5290838555555557,3.589346655555556,0.7964917011111111
241,1747679309730,2.373178711111111,-0.45943776222222227,-0.6626628911111111,2.802028077777778,5.230858944444444,0.8428898688888888
242,1747679309740,3.0976291684210526,-0.5020064763157895,-1.2202380589473685,3.997920289473684,5.799491631578947,-0.02165570315789472
243,1747679309750,2.8625635315789477,-0.20618340789473685,-2.4793165684210527,5.178344442105264,4.353816447368421,-1.4618360378947368
244,1747679309760,2.673803077777778,-0.059292347777777775,-2.959295822222222,5.466489,3.687646638888889,-2.110671866666667
245,1747679309770,1.8599249,0.08886895300000001,-4.187665957894737,5.576977578947369,3.1107098842105265,-2.8553689473684214
246,1747679309780,1.0960001,0.009640261,-5.077062,5.328597111111111,2.472062633333333,-4.5192921111111115
247,1747679309790,-0.76160098,-0.5154082333333334,-6.2330799,4.498519699999999,2.168699166666667,-5.4261867666666665
248,1747679309800,-2.6376960666666665,-1.0012448444444444,-6.694510488888889,3.1108360999999998,1.7951467666666667,-4.8516544999999995
249,1747679309810,-3.0389205263157892,-0.9092224210526316,-6.493698447368421,2.1527716,1.603137615789474,-3.474119142105263
250,1747679309820,-2.7619798105263156,-0.8724854,-6.205043289473685,1.4675268210526315,1.495826352631579,-2.2180050263157893
251,1747679309830,-1.9223372944444443,-0.7402662833333333,-5.922693333333333,0.6912673333333333,0.48593776366666663,-0.7432876933333333
252,1747679309840,-1.1663021666666666,-0.6433484444444445,-5.684005444444445,0.112829164,-1.0530131015000002,0.10821301999999998
253,1747679309850,0.04121176277777777,-0.5957573277777777,-5.212513977777778,-0.49756690133333337,-2.8842012666666665,0.28149591
254,1747679309860,0.42825943000000005,-0.6005028999999998,-5.036548599999999,-0.9193605714285714,-3.810980742857143,0.17177375985714285
255,1747679309870,0.6205765533333333,-0.6478499999999999,-4.5773955,-1.3138695333333332,-4.2527102,-0.08673021799999998
256,1747679309880,0.9370624999999999,-0.8170004153846153,-3.5588381153846154,-1.7467148,-4.482424615384615,-0.28088134923076924
257,1747679309890,0.4312768727272727,-1.0741957818181818,-2.9566038363636364,-2.166806772727273,-4.7822106818181815,0.037163180909090904
258,1747679309900,0.34265166923076923,-1.1848509692307692,-2.546976830769231,-2.884273076923077,-5.332750538461538,1.158945383076923
259,1747679309910,0.6061771575,-1.37282205,-2.26283775,-3.41057465,-5.451753,1.91747465
260,1747679309920,0.9011726714285714,-1.5629949285714286,-1.9591957285714285,-3.8782254857142857,-5.307828142857142,2.4730476999999995
261,1747679309930,1.3024349846153846,-1.8047563076923079,-1.4352021692307693,-4.4382264461538465,-4.873130384615385,3.0719951384615385
262,1747679309940,1.63121765,-1.95746105,-1.0139968750000001,-4.7535392750000005,-4.52677125,3.39446265
263,1747679309950,2.109508775,-2.12808773125,-0.522618093125,-5.0256475375,-4.102996,3.6603790625
264,1747679309960,2.49368544375,-2.222263325,-0.19674064669375,-5.14289299375,-3.845135725,3.743070125
265,1747679309970,2.9034307,-2.30238574117647,0.10249327864705883,-5.154223070588236,-3.8752099529411765,3.677619029411765
266,1747679309980,3.25328301875,-2.3789174374999997,0.30144121312500005,-5.05700598125,-4.48782266875,3.3613728125
267,1747679309990,3.7539460666666664,-2.5152134666666663,0.52014702,-4.8140238533333335,-6.166207599999999,2.60433884
268,1747679310000,3.793158011111111,-2.640224888888889,0.48435194888888883,-4.744284533333333,-7.517388033333333,1.9670980666666666
269,1747679310010,3.5437508470588237,-2.7549828,0.3435644170588235,-4.903071435294118,-8.009811276470588,1.6900877411764705
270,1747679310020,3.260472058823529,-2.9564304470588234,0.2233159794117647,-5.522553729411764,-8.056870823529412,1.6386417529411765
271,1747679310030,2.926809088888889,-3.200363322222222,0.18660210444444447,-6.233523133333333,-7.707715000000001,1.9077983333333333
272,1747679310040,2.7531488,-3.3402895,0.30147172666666666,-6.520079,-7.5521865,2.031724
273,1747679310050,2.58764924117647,-3.4995869764705883,0.6335905494117647,-7.256991235294118,-6.379143088235294,2.699456447058824
274,1747679310060,2.55033715,-3.529922,0.893310585,-7.574690444444444,-5.722892222222222,3.1439778
275,1747679310070,2.7462864352941176,-3.4778229823529414,1.1666690705882354,-7.482262894117646,-5.551684117647059,3.433235164705882
276,1747679310080,3.1045624941176473,-3.418043188235294,1.364786082352941,-7.2417640117647055,-5.671996117647059,3.527730270588235
277,1747679310090,3.6415170000000003,-3.31881255,1.5633290999999998,-6.861318916666666,-6.0787495,3.344128883333333
278,1747679310100,3.9246236,-3.07255865,1.6934929833333332,-6.246661622222223,-6.772650111111111,2.717280388888889
279,1747679310110,3.710612527777778,-2.77505295,1.7211255333333333,-5.774039599999999,-6.983335666666667,2.1524539666666667
280,1747679310120,3.4005942210526316,-2.7061773263157898,1.7245823526315789,-5.400150789473684,-6.720327678947368,1.7583437999999998
281,1747679310130,3.1156552666666664,-2.7062286666666666,1.7152139666666666,-5.258452133333333,-6.418391033333333,1.7064636
282,1747679310140,2.8539830631578944,-2.692587147368421,1.6885903105263158,-5.134563763157895,-6.0101896,1.835210957894737
283,1747679310150,2.691917533333333,-2.6412010111111113,1.669222711111111,-5.105409088888889,-5.716145555555555,2.0589474777777776
284,1747679310160,2.691917533333333,-2.5047459,1.7019806666666666,-5.166247433333334,-5.280689355555555,2.3539072222222224
285,1747679310170,2.9158965368421055,-2.318485905263158,1.873945394736842,-5.281458,-4.364020826315789,2.441738421052632
286,1747679310180,2.992514688888889,-2.2837384333333337,2.0513892277777774,-5.292599744444444,-3.8087910888888885,2.320292088888889
287,1747679310190,2.737400494736842,-2.2423144473684213,2.4184242631578945,-5.150991221052632,-3.2972993631578946,2.097041542105263
288,1747679310200,1.9687487666666668,-1.9828431111111111,2.946401555555555,-4.43855405,-3.15477825,2.0615514
289,1747679310210,1.4715228555555555,-1.4730346666666667,3.241222666666667,-3.499820177777778,-3.8311022666666665,2.6514708000000002
290,1747679310220,2.4442265666666665,-0.5182827,2.974115455555556,-2.9162924,-4.3808966,3.1917963
291,1747679310230,2.7560775,-0.3662079,2.8792043,-2.822100610526316,-4.918462305263158,2.873562742105263
292,1747679310240,4.749970916666666,-0.3439986783333333,2.237957561111111,-3.4676255,-4.989221394444445,1.5545451666666665
293,1747679310250,4.810497088888889,-0.6224680033333333,2.339078688888889,-4.719665466666666,-4.694084333333333,0.047374646666666624
294,1747679310260,2.2611293999999997,-0.9926215033333333,4.1746602,-6.5768933,-4.835054333333334,-0.58136763
295,1747679310270,1.4368581263157896,-1.0084895363157895,6.494206042105263,-7.021201668421053,-5.50643197368421,0.7992140663157894
296,1747679310280,1.8744341555555555,-1.0836278,7.834488444444444,-6.697978322222223,-5.7413568,2.1702083777777776
297,1747679310290,4.196580363157895,-1.1654312184210527,9.696904842105264,-4.541036642105263,-4.064961947368421,2.983396936842105
298,1747679310300,5.615153811111111,-0.47462354500000004,10.277637111111112,-1.355636722222222,-1.7146601666666668,1.9740222722222223
299,1747679310310,5.252115242105263,-0.15452034842105264,9.734129999999999,0.19016358947368422,-0.7301260863157895,1.3177171315789473
300,1747679310320,4.260988738888889,-0.26527666555555557,8.317830722222222,2.4828631833333334,2.1511223433333333,0.68363295
301,1747679310330,4.056132015789474,-0.38871254736842104,7.7769454736842105,3.1563061052631576,3.469031105263158,0.6857354368421053
302,1747679310340,3.8375221888888884,-0.5229468977777778,6.886461533333334,4.261676,4.816944666666667,0.8361431833333334
303,1747679310350,4.090171289473685,-0.6015304589473685,6.192139957894737,5.310213057894737,5.027343547368421,0.8965454978947368
304,1747679310360,4.592744011111112,-0.8407093966666667,4.862088,6.3333768,4.738825188888889,0.506976718888889
305,1747679310370,4.586095889473685,-0.9110207105263157,3.992079842105263,6.5033084,4.689823052631579,-0.13373264368421053
306,1747679310380,4.385213922222222,-0.8879480277777777,3.313789038888889,6.351131333333334,4.964838555555556,-0.5064441088888888
307,1747679310390,4.197479755555555,-0.8658201833333333,2.770192088888889,5.967991444444445,5.490546111111112,-0.8035342833333332
308,1747679310400,4.019240789473685,-0.9379697984210525,2.270962315789474,5.7516246,5.768935,-0.9318393499999998
309,1747679310410,3.7392485777777775,-1.0823260888888888,1.9468514444444445,5.038134555555556,6.411880911111111,-1.3063387055555555
310,1747679310420,3.3825596842105266,-1.235899452631579,1.9543814736842107,4.049725621052632,7.3521412999999995,-1.8477979315789472
311,1747679310430,2.9525163111111112,-1.4795429,2.184237766666667,3.9534597000000002,7.67149615,-2.0711388499999996
312,1747679310440,2.6536761578947368,-1.8179118684210527,2.2486118842105265,4.350634915789474,7.564465094736842,-2.1188232894736845
313,1747679310450,2.495321542105263,-2.0948268999999997,2.249819247368421,4.925877336842105,7.167177684210526,-2.069372773684211
314,1747679310460,2.3293027444444445,-2.387950938888889,2.206989327777778,5.60515095,6.609960699999999,-1.9933746500000002
315,1747679310470,2.182260415789474,-2.6375843684210527,2.0365646315789476,6.576418926315789,5.744994726315789,-1.8287352631578948
316,1747679310480,2.1109528,-2.7713106888888888,1.7551309222222222,7.047813755555556,5.25618825,-1.6962251944444444
317,1747679310490,2.079089716666667,-2.8583036500000003,1.3765439,7.462674944444444,4.706808094444444,-1.5119346166666667
318,1747679310500,2.076570636842105,-2.879971957894737,1.0274007631578947,7.56644164736842,4.310196894736842,-1.3451056368421053
319,1747679310510,2.1095055315789475,-2.848912410526316,0.7394902,7.470567899999999,4.0707930947368425,-1.2229928052631578
320,1747679310520,2.2212667555555554,-2.789940538888889,0.5289059277777777,7.136053222222222,3.9765700500000003,-1.1385597388888888
321,1747679310530,2.3587523,-2.7360039,0.3917729,6.582306078947369,4.144352110526316,-1.1600861210526316
322,1747679310540,2.3587523,-2.7360039,0.3917729,6.1670775,4.4245725,-1.2354395
323,1747679310550,2.506705172222222,-2.6804943222222217,0.5549387205555555,5.702267750000001,4.879321744444444,-1.3783032499999999
324,1747679310560,2.334808989473684,-2.6512002157894736,0.7705240531578947,5.5336383157894735,4.904053284210526,-1.5310221894736842
325,1747679310570,2.115003247368421,-2.6394340684210524,0.9656927631578948,5.480262715789474,4.560029189473684,-1.6664788421052632
326,1747679310580,2.0569890555555554,-2.625310166666667,1.062984588888889,5.7431618222222225,3.830096327777778,-1.6128979444444445
327,1747679310590,2.0262436315789474,-2.5968140315789476,1.1493780526315789,6.082921947368422,3.0413557368421054,-1.5819866
328,1747679310600,1.977277947368421,-2.5313809315789477,1.0816328263157893,6.5448537894736845,2.126910978947368,-1.5660076578947368
329,1747679310610,1.8966705,-2.4834859166666665,0.7897489083333333,6.8342283833333335,1.619437488888889,-1.5215811444444445
330,1747679310620,1.8572531315789476,-2.4276695315789474,0.5895877105263159,6.8579851000000005,1.5610317368421054,-1.476133005263158
331,1747679310630,1.9303776166666669,-2.32539095,0.3353685532222222,6.6210576111111115,1.78094325,-1.3514941
332,1747679310640,2.120038736842105,-2.204832452631579,0.09232750305263157,6.134615210526316,2.2181872684210524,-1.3104565421052632
333,1747679310650,2.5416325555555557,-2.0441829666666664,-0.039177968,5.265391222222222,2.9426724555555555,-1.6711322888888889
334,1747679310660,2.4567604263157894,-1.8040647157894736,-0.013362135,4.8141929999999995,3.2312529105263157,-1.9122182842105262
335,1747679310670,2.390942168421052,-1.5795321315789475,-0.01487785936842105,4.567612105263158,3.2689296263157894,-1.9942997999999998
336,1747679310680,2.4347625666666666,-1.4550828944444443,-0.025348056999999997,4.4395748444444445,3.23905245,-2.076228388888889
337,1747679310690,2.4804725789473685,-1.446045642105263,-0.15514654684210527,4.370706294736841,3.3441148315789477,-2.2413287631578944
338,1747679310700,2.3848792,-1.4119032736842108,-0.3240084721052632,4.288961842105263,3.840303410526316,-2.3621521157894736
339,1747679310710,2.280681011111111,-1.2644470166666666,-0.713860675,4.185983283333333,4.386519166666667,-2.37006375
340,1747679310720,2.3383056777777775,-1.1643835444444446,-0.9698496333333334,4.14254405,4.5609265,-2.3869896
341,1747679310730,2.568207666666667,-1.0766314666666665,-1.2371194555555556,4.18302395,4.5593285,-2.6415875
342,1747679310740,2.6674718421052632,-1.1847503105263157,-1.4775772105263159,4.5598749,4.2172947315789475,-3.3010978736842103
343,1747679310750,1.942313505263158,-1.5706432684210527,-2.1568014,5.6235684789473686,2.5615385210526314,-4.634583789473684
344,1747679310760,1.0949377294117648,-1.6129384294117646,-2.592214647058823,6.193646411764706,1.0583394117647058,-5.075903058823529
345,1747679310770,0.7459192684210526,-1.8423946368421051,-3.1735952157894736,6.452904621052632,0.47401429157894737,-5.100832842105263
346,1747679310780,0.6417967289473685,-2.5775721105263156,-4.265687236842105,6.26452115263158,1.6072866589473684,-5.449622505263157
347,1747679310790,-1.304598322631579,-3.2362696157894737,-6.315357036842105,5.573277163157894,2.8154637473684208,-6.004120010526315
348,1747679310800,-3.28482735,-3.167008788888889,-7.626728166666666,4.021281566666667,3.1341830666666666,-5.799739
349,1747679310810,-5.786568052631579,-3.2858518736842104,-8.949967947368421,2.021856457894737,2.7044520315789473,-4.667494684210527
350,1747679310820,-6.671057210526316,-3.4214964000000005,-9.12635705263158,0.3890315078947369,2.052230410526316,-3.4252851421052632
351,1747679310830,-6.808797111111111,-3.4873206666666667,-8.337992333333334,-1.4758339666666667,0.7187570355555555,-1.45168798
352,1747679310840,-6.1075935,-3.4193642,-7.0099955,-2.619217,-0.48096654000000005,0.27830014
353,1747679310850,-4.5522551315789475,-2.9402926105263156,-5.459897815789473,-2.8763379789473684,-1.9383593484210528,2.021519885263158
354,1747679310860,-2.4114879736842103,-2.445704105263158,-4.126189147368421,-2.825934163157895,-3.821296915789474,3.902607347368421
355,1747679310870,-0.5894592733333333,-2.2027659,-3.187516333333333,-2.8932116,-4.495235,4.905095333333334
356,1747679310880,0.18790159684210525,-2.1423024,-2.7573876210526316,-3.0274160526315788,-4.637008405263157,5.278984105263158
357,1747679310890,1.1542484333333334,-2.0816049333333333,-2.1470732666666668,-3.151242122222222,-4.819903655555556,5.412397555555556
358,1747679310900,1.3952143,-2.0692394,-1.9770467,-3.1666293,-4.8528085,5.40861
359,1747679310910,1.668558442105263,-2.053234342105263,-1.6526304105263159,-3.082529536842105,-4.764503763157895,5.247138421052632
360,1747679310920,2.1562390833333334,-2.0269904166666666,-1.024003211111111,-2.7863967499999998,-4.43096425,4.72524325
361,1747679310930,2.1643200888888887,-2.067341188888889,-0.8943545666666667,-2.6241955833333335,-4.1421002555555555,4.624812466666667
362,1747679310940,2.0969431789473685,-2.1588212052631577,-0.8612426999999999,-2.417594810526316,-3.5148373263157895,4.69662122631579
363,1747679310950,2.1596786684210527,-2.2390776105263157,-1.0457756894736843,-2.494973578947368,-2.945257605263158,5.040533289473684
364,1747679310960,2.5853187,-2.2585194444444445,-1.218760888888889,-3.0560193833333336,-2.2423206555555555,5.55827935
365,1747679310970,3.221892952631579,-2.3566875263157896,-1.250860805263158,-4.0139062999999995,-1.946657194736842,5.6174012736842105
366,1747679310980,3.3774474000000003,-2.387002,-1.2458512000000002,-4.709131230769231,-2.201285415384615,5.39328623076923
367,1747679310990,3.5081536,-2.4483959555555557,-1.1647157333333333,-5.555660777777778,-2.944092866666667,4.982386022222222
368,1747679311000,3.9357961111111113,-2.7617111722222223,-0.6904311805555555,-6.5056982,-4.13695135,4.4637210000000005
369,1747679311010,3.861765277777778,-2.9951925555555556,-0.34191743999999996,-7.551491422222223,-5.268734833333333,4.0354849999999995
370,1747679311020,3.8372511578947366,-3.160997368421053,-0.18214699421052633,-7.99844105263158,-5.5144494,3.9047939736842103
371,1747679311030,3.785562263157895,-3.4599289684210524,0.10198703842105264,-8.68020947368421,-5.448290715789474,3.724820447368421
372,1747679311040,3.7259608,-3.62935082,0.32656080000000004,-9.105971066666667,-5.238007653333333,3.597093473333333
373,1747679311050,3.611588078947368,-3.7834459473684214,0.6665042684210526,-9.407840684210527,-5.006318721052631,3.412474
374,1747679311060,3.628555122222222,-3.814736922222222,0.9662836222222223,-9.44233388888889,-5.037276611111111,3.238253572222222
375,1747679311070,3.866239633333333,-3.770481211111111,1.2488476722222221,-9.203123333333332,-5.376563000000001,3.005019933333333
376,1747679311080,4.2499761199999995,-3.5992098300000004,1.5919488549999998,-8.3846101,-6.264282799999999,2.1918331699999998
377,1747679311090,4.128492533333333,-3.496974233333334,1.6431357333333334,-7.942265444444445,-6.558118166666667,1.8009761277777778
378,1747679311100,3.7501225833333334,-3.2721975833333334,1.6641246833333334,-7.3067763333333335,-6.892255916666667,1.3893701166666665
379,1747679311110,3.4242034263157892,-3.107715747368421,1.7463677157894735,-6.9459042421052635,-6.980140131578946,1.3749049210526316
380,1747679311120,3.168371477777778,-2.9290259333333335,1.9975609444444444,-6.6638899,-6.874915722222222,1.488676311111111
381,1747679311130,3.064154752631579,-2.811353189473684,2.2431141526315788,-6.010547094736842,-6.480307168421052,1.7397857263157892
382,1747679311140,3.002412611111111,-2.7348648555555553,2.4010691555555557,-5.701010088888889,-6.2712662,1.829442311111111
383,1747679311150,2.9123769473684207,-2.607604057894737,2.525141405263158,-5.281962657894736,-5.936405752631579,1.9272160736842106
384,1747679311160,2.8153403529411767,-2.4213134647058823,2.626590676470588,-4.32601205882353,-5.079083023529412,2.1114934529411764
385,1747679311170,2.7203166421052636,-2.0390018999999997,2.5675818421052634,-3.5313979894736844,-4.510186157894737,2.1976248684210526
386,1747679311180,2.5686414789473684,-1.5898852947368423,2.2287533789473684,-2.349214768421053,-4.3214101,2.115936094736842
387,1747679311190,2.3675383333333335,-1.4340397333333332,2.1359688666666665,-1.7942590666666665,-4.6660321,1.9749100000000002
388,1747679311200,1.951151,-1.2470233263157895,2.0906168842105264,-1.1937539894736842,-5.065244342105263,2.054767515789474
389,1747679311210,1.6807356315789472,-0.8518561263157894,2.0462240526315787,-0.719907947368421,-5.292313552631579,2.577195168421053
390,1747679311220,1.8545299999999998,-0.23171951210526315,1.7505808894736843,-0.48812903052631573,-5.39867194736842,3.4480760789473686
391,1747679311230,2.858310488888889,0.12977067222222222,1.1387507555555556,-0.9824985266666667,-5.6532949,4.235281055555555
392,1747679311240,4.309095066666667,-0.011674070666666675,0.7729903066666667,-2.264839266666667,-6.0405774333333335,4.334468833333334
393,1747679311250,5.638547763157895,-0.29355590863157893,0.8947620652631579,-4.159714263157895,-6.358138157894737,3.8283191894736843
394,1747679311260,6.155035605555556,-0.3376532022222222,1.7271999722222222,-5.333730533333334,-6.269254,3.3707605
395,1747679311270,6.841826736842106,-0.33083244947368423,3.7772578894736846,-6.836350326315789,-5.9142034210526315,2.7119790684210527
396,1747679311280,7.220047,-0.3727974416666667,6.052192333333334,-7.500240222222222,-5.084207566666667,1.6840930222222221
397,1747679311290,6.943611833333334,-0.57756145,8.5627285,-6.367569,-3.854301316666666,0.5137233526666667
398,1747679311300,5.145038500000001,-0.4178966684210526,10.024610210526316,-2.9837124842105265,-2.0751615789473683,-0.17353985831578947
399,1747679311310,4.741573236842106,-0.26290747236842105,10.017416789473684,-1.4094138947368422,-1.5503230210526315,-0.15969143131578947
400,1747679311320,4.268039222222222,0.22392252861111114,9.165955833333333,1.5728913366666668,0.22429719999999997,0.2318428012777778
401,1747679311330,4.6528905,0.28086921666666664,8.218688199999999,3.222688911111111,2.075902911111111,0.4115764444444444
402,1747679311340,4.9036272210526315,0.2505632984210527,7.708069226315788,3.925763,2.9470518,0.4423507199999999
403,1747679311350,5.214021105882353,0.08202476870588235,6.555424529411765,4.602142647058823,3.5343255176470585,0.11074041882352939
404,1747679311360,5.094634126315789,-0.04931883157894737,5.701354210526316,6.039750315789473,4.6865715578947365,-0.6703451684210526
405,1747679311370,4.5228621,-0.24770454555555554,4.037690111111111,6.777828333333334,5.004430933333333,-1.4804501333333333
406,1747679311380,4.177518368421053,-0.41930961736842104,2.4211988368421054,6.405247884210527,5.186348105263158,-1.9802270421052632
407,1747679311390,3.776750705263158,-0.5009018121052631,1.2600515631578948,4.759023115789474,5.937190921052632,-2.4067248684210525
408,1747679311400,3.49480022631579,-0.543187964736842,0.9897131842105263,2.9509343421052634,7.106177526315789,-2.5740833684210527
409,1747679311410,3.2450054333333336,-0.7026815066666666,1.2088765666666665,2.0263977,7.7570722666666665,-2.6309348000000004
410,1747679311420,2.9864133055555557,-1.0015702499999999,1.577864,1.5400457222222224,8.052268644444444,-2.651766577777778
411,1747679311430,2.675321611111111,-1.3279561000000002,1.919896677777778,1.5274993,7.9566316666666665,-2.5421628
412,1747679311440,2.5160278894736843,-1.5569503631578947,2.1949706157894737,2.0436662789473687,7.688316057894736,-2.244412352631579
413,1747679311450,2.5008707105263155,-1.7701279842105262,2.414673457894737,2.608368142105263,7.576519352631578,-1.9969347842105265
414,1747679311460,2.6927311222222223,-2.1143628333333333,2.6122056333333337,3.620032,7.54686,-1.6732628
415,1747679311470,3.00648025,-2.46290365,2.5385003999999998,4.902372644444444,7.4583247777777775,-1.4463616666666668
416,1747679311480,3.259708968421053,-2.776825463157895,2.3067488473684215,6.2645770999999995,7.185231184210527,-1.334509
417,1747679311490,3.4021099789473683,-3.0260208210526316,1.7350384,7.673416578947369,6.463374894736842,-1.4086850105263158
418,1747679311500,3.3772572833333334,-3.1498436333333335,1.0041125755555556,8.362941611111111,5.835928388888889,-1.5360806055555554
419,1747679311510,3.3439983736842107,-3.171813047368421,0.5952652805263158,8.635518210526316,5.083297994736842,-1.7244516
420,1747679311520,3.300941731578947,-3.0742415315789473,0.018365307894736848,8.264358157894737,4.437411705263157,-2.001308042105263
421,1747679311530,3.2845427666666667,-2.931168233333333,-0.19721859166666666,7.5907434444444455,4.296267444444444,-2.189323933333333
422,1747679311540,3.3197471052631577,-2.8171335631578946,-0.1889035252631579,6.823392010526316,4.2809303684210525,-2.383176894736842
423,1747679311550,3.2633368333333337,-2.7049271555555556,-0.06559038555555556,6.204124811111111,4.210099333333333,-2.6414691111111113
424,1747679311560,3.2096985,-2.678406266666667,-0.01954491733333333,6.036464316666667,4.200452833333333,-2.725447377777778
425,1747679311570,2.9924791421052634,-2.6567494105263156,0.10661127157894737,5.713611668421053,4.2835652842105265,-2.886710226315789
426,1747679311580,2.8527243,-2.6652272,0.17700252,5.461087994736841,4.498748357894737,-2.976753068421053
427,1747679311590,2.4795606500000003,-2.58834925,0.25729735000000004,5.250418249999999,4.8757114999999995,-2.9079034
428,1747679311600,2.0060623888888887,-2.452083994444445,0.3614555633333334,5.203724133333333,4.999104666666666,-2.655435933333333
429,1747679311610,1.6920906842105263,-2.178448526315789,0.44654448157894744,5.2051444,5.02112,-2.3188126
430,1747679311620,1.6822769842105263,-2.0807485684210523,0.4557672684210527,5.340825231578947,4.548087,-1.7625207157894736
431,1747679311630,1.8350310157894736,-1.9842561052631578,0.3389280789473684,5.498708557894737,3.788273736842105,-1.1809989263157894
432,1747679311640,2.0175059333333336,-1.9362010555555556,0.1559593588888889,5.485190366666667,3.2267426444444443,-1.0570670333333334
433,1747679311650,2.0806417529411765,-1.8891825941176472,-0.05229644647058823,5.284600652941176,3.2013991176470586,-1.1309810176470587
434,1747679311660,2.0301226842105264,-1.8210973526315788,-0.27398959736842105,5.057241136842106,3.5493182210526313,-1.185988852631579
435,1747679311670,1.9935277176470587,-1.7980773529411762,-0.3601244352941176,4.9707866,3.703389,-1.2034816
436,1747679311680,1.8260837444444442,-1.7259863444444443,-0.7019019166666667,4.423832555555556,4.281886288888888,-1.21851365
437,1747679311690,1.6804901222222222,-1.5788469333333335,-1.0861293444444446,3.9215018500000003,4.20246505,-1.22638475
438,1747679311700,1.6181850466666667,-1.4188755466666665,-1.4627367666666666,3.2843320400000002,3.79485958,-1.2857199466666667
439,1747679311710,1.5215817222222223,-1.3032250333333333,-1.6614535444444445,2.4951137,3.4750674999999998,-1.4520431333333332
440,1747679311720,1.2462108421052631,-1.1968504,-1.6687124736842105,1.4660130315789472,3.398387126315789,-1.7540546842105262
441,1747679311730,0.8336241352941176,-1.0592443570588235,-1.6084054470588234,0.9486642882352941,3.670303282352941,-1.852101794117647
442,1747679311740,0.29625160666666667,-0.8817110477777779,-1.5059078000000001,0.7548872722222222,4.0513161222222225,-1.5415252555555554
443,1747679311750,0.2691341163157895,-0.5904579631578948,-1.5283924578947368,1.001165642105263,4.162293431578948,-0.8394417505263159
444,1747679311760,0.4288018366666667,-0.3024818444444445,-1.642661288888889,1.2196380666666666,4.271411333333334,-0.5769882044444444
445,1747679311770,0.6565942768421053,-0.028098696842105274,-1.8734637736842104,1.6870832210526316,4.84495947368421,-0.8073717
446,1747679311780,0.6902227778947368,0.16224026710526315,-2.1081184210526316,2.0440026421052635,5.214830200000001,-1.1561614289473683
447,1747679311790,-0.1830768111111111,0.16252856533333335,-2.758735111111111,2.9716417666666666,5.4170432,-2.0169878666666667
448,1747679311800,-1.5529458631578947,-0.09517589978947368,-3.7805527105263157,4.3226016,4.308963421052631,-2.600546747368421
449,1747679311810,-2.803675031578947,-0.5521538194736842,-5.266552952631579,5.122222105263158,1.9809137731578947,-2.0891080947368423
450,1747679311820,-3.5103092333333334,-1.0466937338888889,-7.204996755555555,4.775665777777778,-0.6743118394444445,-0.5506525241666667
451,1747679311830,-3.5197731388888887,-1.1460250611111111,-8.225671416666666,3.3852007333333334,-1.3717636666666668,0.6707905947222222
452,1747679311840,-3.0621957631578947,-1.0619765842105262,-8.457871894736842,1.2443821,-1.0791401368421054,1.8700281894736843
453,1747679311850,-1.7558473421052632,-1.0226192052631577,-7.134824189473685,-1.7721080905263158,0.009279015789473696,3.200149947368421
454,1747679311860,-1.0429176199999999,-0.9966078299999999,-5.9693350999999994,-3.6236866666666665,0.6727139777777777,3.9587860000000004
455,1747679311870,-0.09720864631578949,-0.885664525263158,-4.315603336842105,-4.1554183894736845,0.23292828684210526,4.317835821052632
456,1747679311880,0.842540254736842,-0.7591401063157894,-3.122934063157895,-3.796760915789474,-1.1479897894736844,4.311949084210526
457,1747679311890,1.4603504666666667,-0.710382851111111,-2.5817121777777774,-3.3599155,-2.072352088888889,4.107094555555555
458,1747679311900,1.9128469263157895,-0.6984340263157894,-2.229145094736842,-2.753769615789474,-2.9879804210526317,3.6643807578947367
459,1747679311910,2.0931923842105262,-0.7173934263157895,-2.103596894736842,-2.168505394736842,-3.6952034052631575,3.115938152631579
460,1747679311920,2.1473987,-0.7371749,-2.071741,-1.7775255,-4.0719705,2.6644907
461,1747679311930,2.1496766666666667,-1.2015345333333334,-2.2917178666666667,-1.827356211111111,-4.404865305555556,1.9781058500000002
462,1747679311940,2.015530657894737,-1.431530647368421,-2.484891394736842,-2.3888606736842104,-4.8080676421052635,1.8723830736842106
463,1747679311950,1.9858327000000002,-1.4771565,-2.5256875,-3.545674,-5.366041194736843,2.0747271842105266
464,1747679311960,2.094058638888889,-1.900189066666667,-2.3258044833333336,-4.693152205555555,-5.76248445,2.3688800333333333
465,1747679311970,2.409130778947368,-2.305820763157895,-1.9871944,-6.025068205263158,-5.982941315789474,2.69790627368421
466,1747679311980,2.7881845555555556,-2.6544886777777776,-1.6390546444444445,-7.062061755555555,-5.873686422222223,2.8477160555555554
467,1747679311990,3.1781167,-3.0356804315789474,-1.2734682631578946,-8.065888852631579,-5.539679436842105,2.870983652631579
468,1747679312000,3.550836311111111,-3.4594437333333334,-0.8498819066666665,-8.920473333333334,-5.037809466666666,2.7170436333333337
469,1747679312010,3.8182147,-3.7786164000000007,-0.52881104,-9.868034736842105,-4.361273863157894,2.4135370052631577
470,1747679312020,4.0993686,-4.1759415,0.02715137,-10.618149,-3.6511912000000004,1.874065
471,1747679312030,4.072169611111111,-4.414331194444444,0.7008578194444444,-11.003596666666667,-2.834488966666667,0.7863124888888889
472,1747679312040,3.724625,-4.505418789473684,1.4786497,-11.016164578947368,-2.423727052631579,-0.1688302852631579
473,1747679312050,3.2083969,-4.364841766666667,1.940234733333333,-10.228261333333332,-3.0596147,-0.9804864
474,1747679312060,2.771263333333333,-4.160484488888889,2.262987044444445,-9.338115277777778,-4.041846883333333,-1.2362087944444444
475,1747679312070,2.616219905263158,-4.018126368421052,2.358925705263158,-8.449215315789473,-4.946327315789474,-1.2602208684210527
476,1747679312080,2.4732007882352938,-3.8224030941176466,2.314025105882353,-7.198338647058824,-5.930855117647059,-1.0869292411764706
477,1747679312090,2.3716874,-3.6685466,2.1990167,-6.5421834375,-6.3351227562500005,-0.92498175625
478,1747679312100,2.301643,-3.542369,2.090167175,-6.04949925,-6.530598725000001,-0.7371624625000001
479,1747679312110,2.154557666666667,-3.2758584,1.9132258,-5.484643200000001,-6.521011333333334,-0.4276145966666667
480,1747679312120,2.00213588,-3.0275057599999995,1.80115476,-4.9481054,-6.331394599999999,-0.08459968333333334
481,1747679312130,1.9094158222222224,-2.8702894888888886,1.7716725444444446,-4.558751388888889,-6.198946633333333,0.19296067444444442
482,1747679312140,1.7526362249999998,-2.4791335500000002,1.8073049749999999,-3.973122683333333,-6.273515166666667,0.529436025
483,1747679312150,1.6803430000000001,-2.2734107142857143,1.817764585714286,-3.3067875714285715,-6.529533542857143,0.84060715
484,1747679312160,1.6162325266666668,-1.9974865199999998,1.71052804,-2.607152913333333,-6.672136753333334,1.2082042666666666
485,1747679312170,1.692676982352941,-1.7983071117647058,1.5215569588235294,-2.051172994117647,-6.473951647058824,1.5818695470588238
486,1747679312180,1.9192052000000002,-1.6620297874999999,1.213574675,-1.743703425,-5.9050224375,1.7970332249999998
487,1747679312190,2.1059903166666665,-1.6997367666666667,0.9211330666666667,-1.7485858388888889,-5.287909277777778,1.8024557222222224
488,1747679312200,2.1376364,-1.7099872,0.8701251,-1.8713813692307693,-4.814786615384616,1.7653262692307692
489,1747679312210,1.9731131647058822,-1.7998576705882354,0.7745120705882353,-2.321256482352941,-4.332959941176471,1.7341395588235293
490,1747679312220,1.699347146153846,-1.790676169230769,0.7763695346153846,-2.6684034153846152,-4.6557348076923075,1.9849343846153846
491,1747679312230,1.6016579470588237,-1.681590311764706,0.8915734,-3.0388210823529413,-5.072566164705883,2.369412582352941
492,1747679312240,1.6600977166666668,-1.4772379166666667,1.1294766166666665,-3.444197066666667,-5.367804344444444,2.9927103277777776
493,1747679312250,2.289331511111111,-1.0114409777777777,1.559613922222222,-3.8450838666666667,-4.691480133333333,3.9618632888888885
494,1747679312260,3.0585649999999998,-0.6547122647058823,1.738997611764706,-4.129752964705882,-3.674689570588235,4.222532635294118
495,1747679312270,4.250711555555556,-0.5317600666666666,1.9533597444444446,-4.415414277777778,-3.2415380833333334,3.7421230722222223
496,1747679312280,5.226262333333334,-0.9397424000000001,2.2870402166666666,-4.760441583333334,-4.134287916666667,2.7608970999999998
497,1747679312290,5.597853161111111,-1.088807138888889,2.6676611333333335,-5.0416119833333335,-5.548839688888888,2.0565802555555557
498,1747679312300,5.814386244444445,-0.972337611111111,3.029543688888889,-5.572704866666666,-6.7411656777777775,1.4252339777777778
499,1747679312310,5.9239408000000005,-0.8510683,3.4011613333333335,-6.2399148,-6.7312232,1.0396085566666668
500,1747679312320,5.923127166666667,-0.844072,4.0931449,-7.257596599999999,-5.391121666666667,0.5655662333333333
501,1747679312330,5.787756668421053,-0.9120483368421052,5.0383916157894735,-7.862367421052632,-3.7660156105263156,0.1708206378947368
502,1747679312340,4.776763166666666,-1.347535,7.7713590222222235,-7.567056050000001,-0.8676572433333333,-0.41181316500000004
503,1747679312350,3.635968015789474,-1.047872652631579,10.525363789473683,-4.414389415789474,0.19755033789473683,0.19509744263157897
504,1747679312360,4.325039933333333,-0.9888792500000001,10.519172333333334,0.21213540555555552,1.1527928022222222,0.8465591211111111
505,1747679312370,4.851655663157895,-1.0562475684210526,9.483214105263158,2.0140631421052633,1.9205301947368423,0.6912299731578947
506,1747679312380,4.760980711111111,-1.1373202222222223,8.299499333333333,4.867574233333333,3.0806832777777777,0.06654939000000001
507,1747679312390,4.257928673684211,-1.2054822157894738,5.377657052631579,7.035715884210526,3.0416361052631578,-0.5343278273684211
508,1747679312400,4.173562,-1.0970780000000002,4.248202899999999,7.461727866666667,2.813893966666667,-0.8075585999999999
509,1747679312410,4.170497661111111,-0.6655576844444444,1.797651138888889,6.3922032,3.3877159666666667,-1.2627812666666667
510,1747679312420,4.141038105263158,-0.5318071810526316,1.2564548684210528,5.215348652631579,4.373552052631578,-1.459200947368421
511,1747679312430,4.025175222222222,-0.4662171466666667,1.0754585666666667,4.122363244444445,5.385440288888889,-1.5889886888888887
512,1747679312440,3.6060132315789475,-0.43521186842105264,1.459099494736842,2.571588484210526,6.966571805263158,-1.670739847368421
513,1747679312450,3.2243691611111114,-0.44953987777777776,1.9984831444444444,1.867259227777778,7.767843222222222,-1.6662202833333333
514,1747679312460,2.8993663111111108,-0.5082492166666666,2.4476568388888893,2.073624422222222,7.804298872222223,-1.717648888888889
515,1747679312470,2.6581721105263156,-0.6738484947368422,2.4753794210526316,2.7355831473684207,7.523929178947369,-1.8700563421052632
516,1747679312480,2.504969811111111,-0.9583450777777779,2.3791037777777775,3.1687156666666665,7.3306119333333335,-1.9701163666666668
517,1747679312490,2.403062333333333,-1.2692739444444445,2.3263874444444443,3.355847,7.2475214,-2.013082
518,1747679312500,2.3528179684210526,-1.7375269578947368,2.2754067157894737,4.202058736842105,7.310932389473685,-1.7769298842105261
519,1747679312510,2.478015044444444,-2.0232480888888893,2.215748311111111,4.904621866666667,7.3098982,-1.4875519333333334
520,1747679312520,2.869962368421053,-2.400206610526316,2.062511752631579,5.421785536842106,7.21853477368421,-1.210770247368421
521,1747679312530,3.3537018,-2.760351947058824,1.8354432882352942,6.241646,6.8613317647058825,-0.9231292752941177
522,1747679312540,3.590102366666667,-2.947031988888889,1.639393522222222,6.62466738888889,6.651683555555556,-0.9523752688888888
523,1747679312550,3.7366994666666664,-3.1154315666666665,1.3665375333333332,6.997509666666667,6.406317888888889,-1.0911554444444445
524,1747679312560,3.645190768421053,-3.1823972368421054,1.049931105263158,7.358154294736842,6.048595052631579,-1.3619255315789474
525,1747679312570,3.3774474333333333,-3.1518772,0.6919633,7.464568600000001,5.860548,-1.4836459
526,1747679312580,3.2274333388888885,-3.1046116111111113,0.47347784444444446,7.346087477777778,5.882681649999999,-1.568926211111111
527,1747679312590,3.000083363157895,-3.0287184105263156,0.2764494157894737,7.0284832421052625,6.112062110526316,-1.6330631210526316
528,1747679312600,2.802679563157895,-2.9575564315789475,0.21456163947368423,6.7170339105263155,6.307678052631579,-1.5379743526315788
529,1747679312610,2.423047927777778,-2.8076753333333335,0.2104925877777778,6.281119972222222,6.454728111111112,-1.2162646888888888
530,1747679312620,2.1724553333333336,-2.681172266666666,0.26388689666666665,5.986692988888889,6.405844688888889,-0.8197499222222223
531,1747679312630,2.038472157894737,-2.5703017789473686,0.3174253610526316,5.814531168421053,6.237090810526316,-0.4723182663157895
532,1747679312640,2.0281903555555556,-2.5263315555555557,0.3481680088888889,5.729135555555555,6.0565566,-0.2645108788888889
533,1747679312650,2.1456003315789474,-2.4676950157894737,0.4235003342105263,5.621998894736842,5.278353289473684,0.13179834105263158
534,1747679312660,2.329645168421053,-2.419140347368421,0.3994542763157895,5.620821631578947,4.338117968421052,0.1914531010526316
535,1747679312670,2.4921702333333338,-2.3734973,0.33629054833333333,5.624089111111111,3.7226229777777777,0.11904320333333335
536,1747679312680,2.528821610526316,-2.3224679578947365,0.21099070947368423,5.502633489473684,2.6826423157894737,-0.4447896105263158
537,1747679312690,2.2239513722222224,-2.2154026222222223,0.16306414444444445,5.329366305555556,2.2947554777777777,-0.7312146833333334
538,1747679312700,1.8981007210526315,-2.029650705263158,0.10673971947368421,5.113363736842105,2.1833139684210523,-0.6634489757894737
539,1747679312710,1.695224863157895,-1.833557142105263,-0.044652846263157894,4.8782768315789475,2.3026795157894737,-0.3391042452631579
540,1747679312720,1.7373825333333333,-1.6807003,-0.23887102866666668,4.622800477777778,2.4217585333333336,0.04666447111111111
541,1747679312730,1.7798485,-1.6294483,-0.3120882,4.3813407444444445,2.4565571333333334,0.31321710222222227
542,1747679312740,1.8461806999999997,-1.5795064684210527,-0.4029288842105263,3.9934352368421053,2.383190942105263,0.4560870052631579
543,1747679312750,2.5405622210526313,-1.0270635315789474,-1.3931847736842105,3.1849000315789473,2.7251967052631576,0.17693188315789474
544,1747679312760,2.859506552631579,-0.7080421947368422,-1.9980099473684212,2.0456286842105262,3.6977264842105257,-0.41714883736842107
545,1747679312770,2.9339567157894737,-0.5472726826315789,-2.806790052631579,0.7794786447368421,5.081391894736842,-1.0597831526315789
546,1747679312780,2.619269777777778,-0.5400851027777778,-3.614426755555556,-1.9993519722222226,7.8983975555555554,-1.8529373666666666
547,1747679312790,2.0246508315789473,-0.5332458105263157,-3.8744505368421054,-3.1922658263157895,8.893241315789474,-2.0469461578947366
548,1747679312800,1.092480494736842,-0.4215960557894737,-2.767484,-5.359166142105264,11.169541578947369,-2.597238894736842
549,1747679312810,-0.11629649473684207,0.07777077,-1.5237425368421054,-5.122453405263157,12.267323789473686,-3.2182315263157895
550,1747679312820,-2.6540808105263154,1.0603452157894737,-0.00930308684210525,-3.097359142105263,11.703182684210526,-3.1744996736842106
551,1747679312830,-3.9805192315789473,1.4039777947368421,0.3373609763157895,0.03143934210526319,9.057291968421053,-2.2099875684210524
552,1747679312840,-4.687103484210527,1.439430310526316,0.09944370263157892,3.8847782894736844,4.539789065052632,-0.6231932715789473
553,1747679312850,-4.238140810526316,0.8659728684210527,-1.5503833789473684,8.056519052631579,-1.081270612631579,1.0755097947368422
554,1747679312860,-3.7013519777777777,0.42979833777777776,-2.848710911111111,9.19787111111111,-2.6262890999999997,1.432217388888889
555,1747679312870,-2.8843937368421053,-0.20094261684210526,-5.603968705263158,10.026863842105262,-3.892613436842105,1.7205550210526315
556,1747679312880,-2.73009807368421,-0.3694705589473684,-7.752751105263157,8.411475736842105,-3.1451348473684213,2.301628210526316
557,1747679312890,-1.967868889473684,-0.1363316592105263,-8.959679210526316,5.399022547368421,-2.1077923315789477,3.410960247368421
558,1747679312900,-0.565849942631579,0.05768100678947369,-8.044849315789474,1.6874757131578946,-1.4411054947368422,4.561837463157895
559,1747679312910,1.0498091178947369,0.23391602652631582,-6.531437684210527,-0.3114074,-1.3922715736842104,4.623903010526316
560,1747679312920,2.0873064166666664,0.3044885277777778,-5.348317944444444,-1.4160905000000001,-1.8104156333333334,4.000331266666667
561,1747679312930,2.7818705157894734,0.2144428189473684,-4.423296657894737,-1.990718442105263,-2.6288744894736844,3.028362236842105
562,1747679312940,3.1109624947368424,0.0427292805263158,-3.6938481315789473,-2.3586058000000003,-3.5093429105263154,1.850909563157895
563,1747679312950,3.2088037722222222,-0.14392597694444442,-3.151206161111111,-2.5770650444444443,-4.038592022222222,0.9998387288888888
564,1747679312960,3.0795176210526316,-0.4151477810526315,-2.758723552631579,-2.774920631578947,-4.298142484210526,0.2525095484210526
565,1747679312970,2.7630139684210526,-0.8831211242105262,-2.2208727736842104,-3.1367668631578947,-4.482601478947368,-0.7648733010526316
566,1747679312980,2.4946537315789477,-1.1863173052631577,-1.8889035631578948,-3.4344590736842107,-4.378654157894736,-1.2896558315789473
567,1747679312990,2.2389330052631577,-1.4748700315789474,-1.6177687105263159,-3.688160010526316,-4.0354149947368425,-1.5526077421052633
568,1747679313000,2.1649708000000003,-2.053619722222222,-1.6145403777777778,-3.9543327777777773,-3.627755255555556,-1.6906621333333334
569,1747679313010,2.253396647368421,-2.481644721052631,-1.714312705263158,-4.453355921052631,-3.7824988315789474,-1.8516664842105264
570,1747679313020,2.3871658263157896,-3.0193669578947366,-1.7778189894736842,-5.137927784210526,-4.557450068421053,-1.9885808421052633
571,1747679313030,2.516593178947369,-3.502985631578947,-1.6894959736842103,-5.768787868421053,-5.1033137421052635,-2.0329855157894734
572,1747679313040,2.561473857894737,-4.039782947368421,-1.405747242105263,-6.711041473684211,-5.500881168421053,-1.990879589473684
573,1747679313050,2.4279617631578945,-4.469041252631579,-0.9624878978947367,-7.744795947368422,-5.242246347368421,-1.745196205263158
574,1747679313060,2.248746705263158,-4.544005599999999,-0.6712890757894737,-8.188001657894738,-4.942066352631579,-1.5173979842105263
575,1747679313070,1.990768188888889,-4.483779333333334,-0.3350838077777778,-8.595922750000001,-4.567672966666667,-1.1266050583333334
576,1747679313080,1.7323472263157897,-4.339100210526316,0.25617983263157895,-8.926229263157895,-4.190214563157895,-0.17864190842105263
577,1747679313090,1.7705743000000003,-4.320912,0.52746874,-8.926004736842104,-4.107684678947368,0.4079258915789474
578,1747679313100,2.136608847368421,-4.198369368421052,1.1058586957894736,-8.355136157894737,-4.467351121052632,1.0976000052631578
579,1747679313110,2.2925742631578947,-3.894222563157894,1.502515952631579,-7.419273842105263,-5.2363595,1.4191975421052632
580,1747679313120,2.363273715789474,-3.537179342105263,1.7250961105263158,-6.3223325789473686,-6.193190642105264,1.6633110842105263
581,1747679313130,2.475385789473684,-3.3043746105263154,1.7809724842105263,-5.596775736842106,-6.880565826315789,1.7998890894736845
582,1747679313140,2.5410757368421053,-3.1333547263157895,1.7053661631578947,-4.619031978947369,-7.810821157894736,1.9436436
583,1747679313150,2.6090264842105264,-2.8523547368421056,1.515489594736842,-3.7127731157894734,-8.638587,2.0872859684210527
584,1747679313160,2.622008666666667,-2.6081177222222225,1.2628945777777778,-2.8912586555555553,-9.062138222222224,2.386930311111111
585,1747679313170,2.659431,-2.395788,1.0497513,-2.3752716,-9.227846,2.6059012
586,1747679313180,2.933391510526316,-2.4169310736842102,0.6280460347368422,-1.890835947368421,-9.137915736842107,2.8686287736842107
587,1747679313190,3.0885090894736846,-2.5373156210526315,0.35375136526315787,-1.8426748263157895,-9.223417631578947,2.995955894736842
588,1747679313200,3.120416421052632,-2.6135384368421053,0.2042598652631579,-2.0885264631578946,-9.179180894736842,3.178900794736842
589,1747679313210,3.0943666315789473,-2.5850992736842104,0.2357817842105263,-2.4789735999999998,-8.831567842105263,3.4993769210526318
590,1747679313220,3.281674105263158,-2.423559,0.305684912631579,-3.203913494736842,-7.192464157894736,4.199928
591,1747679313230,3.581325210526315,-2.4141564210526316,0.3436037157894737,-3.838137957894736,-5.7585070210526315,4.386741473684211
592,1747679313240,4.012638052631579,-2.5594349210526315,0.5934412742105263,-4.431602084210526,-4.526613663157895,4.046642252631579
593,1747679313250,4.0909890833333336,-2.7106217499999996,0.8798873716666668,-4.719724888888889,-4.096708222222222,3.438345622222222
594,1747679313260,3.8201128,-2.8315657777777776,1.1453132222222222,-4.827138777777778,-4.2148341333333335,2.928912844444444
595,1747679313270,3.334287610526316,-3.009142494736842,1.4920343315789473,-4.790259294736842,-4.796293436842105,2.5352013315789472
596,1747679313280,2.7871540666666665,-3.087446288888889,1.8834507222222223,-4.387421588888889,-6.032410333333333,2.918851977777778
597,1747679313290,2.4516995578947367,-2.8919435263157895,2.232452547368421,-3.7054285,-7.587564578947368,4.102932826315789
598,1747679313300,3.0912494666666666,-2.4823469,2.1031022,-3.3236668666666667,-8.134885766666667,5.4476692
599,1747679313310,4.803589547368421,-2.2874265105263154,1.6148593421052633,-3.5936317368421054,-7.578930289473684,6.270464105263158
600,1747679313320,7.780677484210526,-2.8275380473684213,1.2719975210526315,-5.845487063157894,-5.950086052631579,5.0663237894736834
601,1747679313330,8.083359231578948,-2.7612829368421052,2.1878800684210526,-7.791387221052632,-5.430573905263157,3.7415843105263153
602,1747679313340,8.1757925,-2.4884783842105263,3.962099184210526,-9.12162105263158,-5.14014942631579,3.0086829631578946
603,1747679313350,8.634491789473683,-2.324960147368421,5.939862263157894,-9.596167789473682,-4.062382852631579,2.0912667
604,1747679313360,8.286577333333334,-1.8824542666666666,7.544765133333333,-9.255321,-3.3127923333333333,1.48417855
605,1747679313370,7.814510789473684,-1.5874189684210527,8.47900742105263,-8.213904768421054,-2.234670789473684,0.4821579305263157
606,1747679313380,6.861506036842105,-1.1923288431578947,9.760102578947368,-5.817958494736842,-2.0917572842105265,0.04663331657894737
607,1747679313390,6.446145978947368,-0.9883226652631579,10.797988315789473,-3.1505943578947364,-1.4317984894736844,-0.18548203278947367
608,1747679313400,6.119417505263159,-1.4121602157894737,11.280990368421053,0.3407090842105263,0.9123422000000001,-0.9002738947368422
609,1747679313410,5.08774905263158,-1.7441037894736842,11.029046421052632,2.786491342105263,2.416438357894737,-1.3172404842105265
610,1747679313420,4.033256122222222,-1.8612483222222223,8.109459644444446,7.114984555555556,3.5662067611111112,-0.8673909344444445
611,1747679313430,4.968032615789474,-1.9121949105263158,5.428806242105264,10.061288894736842,4.415377494736842,-0.2819724810526316
612,1747679313440,5.558548405263158,-1.6981439210526315,3.3211792315789475,10.45532447368421,5.243143489473684,-0.6680464584210526
613,1747679313450,5.794924278947368,-1.5842847736842105,1.8348961894736844,9.695398578947367,5.6861812,-1.5507575105263158
614,1747679313460,5.4575472,-1.6858253833333334,1.0402330416666665,8.997009222222223,5.723957555555555,-2.1965440333333337
615,1747679313470,4.9049115,-1.7492159631578947,0.8123991615789473,7.759814631578947,5.816031036842105,-3.169061242105263
616,1747679313480,4.34098525,-1.84373035,0.66609322,6.88985865,6.14763635,-3.58754165
617,1747679313490,3.9691190789473687,-1.9730807368421053,0.5784381368421052,6.282181984210527,6.545400210526316,-3.712009352631579
618,1747679313500,3.7151247800000005,-2.1116076599999998,0.61347448,5.72648456,7.14802564,-3.6431484800000002
619,1747679313510,3.5684501615384616,-2.2206299307692308,0.6814500615384614,5.401726615384616,7.499333307692307,-3.584837569230769
620,1747679313520,3.4973796823529413,-2.407330394117647,0.7616775764705882,5.266804400000001,7.570484152941176,-3.553578588235294
621,1747679313530,3.427722866666667,-2.8035263,0.8410009733333333,5.49638746,7.24453842,-3.5739063
622,1747679313540,3.38818565,-2.90940645,0.8538953199999999,5.811279166666666,7.0756585,-3.5719178333333335
623,1747679313550,3.3654321846153845,-3.0014628461538466,0.807346096923077,6.124221115384615,6.886888530769231,-3.573447423076923
624,1747679313560,3.294467890909091,-3.1027996363636365,0.6221629363636363,6.323090372727273,6.6793484272727275,-3.5788258454545456
625,1747679313570,3.200668483333333,-3.1078655833333335,0.43960811499999997,6.433926125,6.376135475000001,-3.575024825
626,1747679313580,3.105194076470588,-3.0761047294117647,0.24964543352941176,6.291776011764705,6.26898245882353,-3.545745682352941
627,1747679313590,3.068384476470588,-3.0650790588235295,0.15977494647058824,6.093073023529412,6.2541313647058825,-3.5154796823529413
628,1747679313600,3.0543153,-3.0620642,0.12038124,5.840374475,6.25562740625,-3.4752894687499998
629,1747679313610,2.9472352125,-3.0708503375,0.23707111125,5.3759194500000005,6.31035533125,-3.3590425
630,1747679313620,2.78643204375,-3.0699961625,0.437594646875,5.060801025,6.377400300000001,-3.1794124999999998
631,1747679313630,2.61324295,-3.04638358125,0.663835715625,5.065394875,6.273204275,-2.9563729687499998
632,1747679313640,2.3457529684210527,-3.0158732263157892,0.9232268673684211,5.4258782631578955,5.6949274315789475,-2.517007789473684
633,1747679313650,2.2651369789473685,-2.9343066578947368,0.8938115526315789,5.898799431578948,4.837838815789474,-2.1021156210526315
634,1747679313660,2.291649310526316,-2.8377112842105263,0.7630482342105264,6.191186115789474,4.225984989473684,-1.8587869263157897
635,1747679313670,2.420959766666667,-2.7192993055555554,0.427866275,6.3417805000000005,3.74706485,-1.74996185
636,1747679313680,2.373755347368421,-2.5541169368421053,0.10512123815789474,6.175655552631579,3.722788063157895,-1.8579459842105264
637,1747679313690,2.3509424,-2.519281,0.05302143499999999,6.1319237,3.7396080000000005,-1.8841851
638,1747679313700,2.3509424,-2.519281,0.05302143499999999,6.1319237,3.7396080000000005,-1.8841851
639,1747679313710,2.1188311368421053,-2.404188736842105,-0.10959775842105264,6.008689552631578,3.7696596842105268,-1.8513301210526318
640,1747679313720,1.4727160499999998,-2.021566911111111,-0.6706625100000001,4.813837827777777,4.0484754999999994,-1.507555161111111
641,1747679313730,1.4959457315789475,-1.9240895789473684,-0.9490262273684211,4.284084052631578,4.1193464,-1.3059150894736842
642,1747679313740,1.5333507,-1.9184119999999998,-1.1921587,3.6232280000000006,4.109478736842106,-1.1994448684210526
643,1747679313750,1.1919145666666666,-1.4425003111111112,-1.8728614055555555,2.019473566666667,4.0684195,-1.0784907000000001
644,1747679313760,1.028177877894737,-1.2732787210526317,-1.8688395526315789,0.9391560315789473,4.441280494736842,-0.8535144894736841
645,1747679313770,0.9583517866666666,-1.1468657000000002,-1.5042265,0.27972046933333333,4.9170795,-0.6740455999999999
646,1747679313780,0.8877036494736842,-1.0658301842105264,-1.0050566631578948,-0.055800193789473686,5.294836894736842,-0.6178669368421053
647,1747679313790,0.86561006,-1.0505445,-0.8861109,-0.10839058,5.396093,-0.6261087
648,1747679313800,0.86561006,-1.0505445,-0.8861108999999999,-0.10839057999999999,5.396093,-0.6261087
649,1747679313810,0.86561006,-1.0505445,-0.8861108999999999,-0.10839057999999999,5.396093,-0.6261087
650,1747679313820,0.5578267488888888,-0.7837085538888888,-0.9387187888888889,0.9906064144444444,4.792443611111111,-0.5944467
651,1747679313830,-0.2615233984210526,-0.08585034610526315,-1.1514139368421052,4.080450347368421,3.172999942105263,-0.5612397568421053
652,1747679313840,-0.440841257368421,-0.17196401473684209,-1.7350960631578949,5.734636621052632,2.8745018157894733,-1.008874742105263
653,1747679313850,-1.3158249842105263,-1.073999607894737,-3.3137611631578947,8.490529842105262,2.4834379578947368,-2.217780842105263
654,1747679313860,-1.7635756705882353,-1.6779151529411767,-4.556703035294118,9.556746529411766,1.858853788235294,-2.633817270588235
655,1747679313870,-1.734575888888889,-2.6674509555555557,-6.063324111111111,9.870407111111112,0.9805751833333333,-2.860440033333333
656,1747679313880,-1.966173342105263,-3.0653013736842105,-7.493947578947369,8.482735684210526,0.8475293789473684,-2.6263374631578946
657,1747679313890,-2.0446913055555553,-2.9574450166666666,-8.014263277777777,6.693021527777777,1.9159950555555558,-2.0195919166666667
658,1747679313900,-2.1264503888888893,-2.7334546444444445,-7.769094238888887,3.548067722222222,3.989294072222222,-0.4763799822222222
659,1747679313910,-2.1958183684210524,-2.545947442105263,-7.18861937368421,1.2582866263157895,4.6308414052631575,0.9530045084210526
660,1747679313920,-2.0481081666666667,-2.4737236,-6.535059866666667,0.6330329,4.4469433,1.4351765
661,1747679313930,-1.370211312631579,-2.5195378421052634,-5.233284189473684,-0.967841094736842,1.7525549726315788,3.548154831578947
662,1747679313940,-0.26280792789473684,-2.6663576105263154,-4.434677684210526,-2.2442792210526314,-1.0613109768421054,5.569016031578947
663,1747679313950,0.9439252833333333,-2.793546977777778,-3.8688701944444444,-3.1228351111111112,-2.4648425333333335,6.477661144444444
664,1747679313960,2.205620061111111,-3.014581427777778,-3.007293822222222,-4.618465611111111,-3.1934236333333335,6.756168305555556
665,1747679313970,2.4006488666666668,-3.1192277944444444,-2.3037852333333335,-5.625021372222222,-3.3255756055555556,6.767767761111111
666,1747679313980,2.453392211111111,-3.2233588944444445,-1.396895611111111,-6.462199922222222,-3.4596804666666667,6.897493144444445
667,1747679313990,2.6079619333333337,-3.309321311111111,-0.8374621499999999,-7.183028366666666,-3.7491953333333337,7.277437233333334
668,1747679314000,2.7292314,-3.3603022,-0.55956227,-7.4021177,-3.8631785,7.4198275
669,1747679314010,3.43260435,-3.423025,-0.10049057,-7.561611261111111,-4.256319927777778,7.287675666666668
670,1747679314020,4.365472416666666,-3.4715110444444446,0.4977208688888889,-7.788216383333333,-5.107761583333333,6.746107527777777
671,1747679314030,4.7769742736842105,-3.3804689999999997,0.8229578442105263,-7.6712367684210525,-5.7347908789473685,5.6360715789473685
672,1747679314040,4.660648842105263,-3.2295645368421053,0.9302916452631579,-7.5822032,-6.108978668421052,4.625416705263158
673,1747679314050,4.3315483666666665,-3.1404879333333335,0.84994969,-7.6925794,-6.246173366666667,3.6690343666666667
674,1747679314060,4.11883905,-3.2187490277777777,0.6804655311111111,-8.088857444444445,-6.069339455555555,3.231802788888889
675,1747679314070,4.06256488,-3.45528934,0.55597463,-9.000652200000001,-5.66240878,2.83088492
676,1747679314080,4.12377442631579,-3.686054405263158,0.5148805210526316,-9.867585842105262,-5.366658042105263,2.5437234105263156
677,1747679314090,4.230003157894736,-4.002044247368421,0.5761003447368421,-10.83764905263158,-5.216399736842105,2.1491274000000002
678,1747679314100,4.2976511111111115,-4.293577233333334,0.8270625833333334,-11.636659333333334,-5.178424155555556,1.746470111111111
679,1747679314110,4.352828257894736,-4.459304789473684,1.155569305263158,-12.080307631578947,-5.084307252631579,1.331733705263158
680,1747679314120,4.331762499999999,-4.585392421052632,1.4603069105263158,-12.305021578947368,-4.813225847368421,0.8142398557894737
681,1747679314130,4.2001769736842105,-4.709604684210526,1.7796366000000001,-12.219744210526315,-4.579428236842105,0.5064347494736842
682,1747679314140,4.1032734333333325,-4.690251333333333,1.9356790666666666,-12.081820666666665,-4.425282599999999,0.34292612666666666
683,1747679314150,3.830135010526316,-4.522965105263157,2.2959332315789474,-11.652799894736843,-4.183149978947368,0.06883565368421055
684,1747679314160,3.2763563684210526,-4.0869506157894735,2.8933854736842104,-10.611812789473683,-4.114244368421052,-0.2360540142105263
685,1747679314170,2.714125505263158,-3.53168167368421,3.332071947368421,-7.882046889473683,-5.117666836842105,-0.2102073552631579
686,1747679314180,2.3703043333333333,-3.0129273333333333,3.592827733333333,-6.825336422222222,-5.547123755555556,-0.05631102166666667
687,1747679314190,2.2743084,-2.835091,3.6714141000000002,-6.144041,-5.8179374,0.053529497
688,1747679314200,2.2743084,-2.835091,3.6714141000000002,-3.240679147368421,-6.511031421052632,0.6540018044736842
689,1747679314210,2.023648852631579,-2.284035463157895,3.1079245684210526,-1.360692103157895,-6.754247789473685,1.1324172947368423
690,1747679314220,1.8447421052631578,-1.8757919263157894,2.6421606210526316,-0.64881564,-6.731260473684211,1.361729305263158
691,1747679314230,1.8064235999999998,-1.6702328555555555,1.8636008166666664,0.3367120688888889,-6.4203439611111115,1.7711487722222221
692,1747679314240,1.5639990736842104,-1.2904141684210526,1.4360039105263158,0.8061662821052632,-6.084197405263158,2.215005457894737
693,1747679314250,1.4085988999999999,-1.0772108315789473,1.3472955315789477,0.8745674452631578,-5.901420668421052,2.4569324842105265
694,1747679314260,1.34493845,-0.7969689,1.2979575,0.8426531388888888,-5.552095111111111,2.8552912666666668
695,1747679314270,1.321997,-0.5717041,1.2640336,0.7970835,-5.238434,3.2056446
696,1747679314280,1.5097926894736842,-0.14894556789473684,1.0836623473684213,0.5254413052631579,-4.445429363157895,3.7289133684210527
697,1747679314290,2.0113175684210525,0.5109081326315789,0.909713742105263,-0.38967626463157895,-3.331499947368421,4.283747368421053
698,1747679314300,2.4709643666666667,0.801904311111111,1.005848111111111,-0.9914054000000001,-3.6128416666666663,4.498519333333333
699,1747679314310,3.3394284333333335,0.9460879055555557,1.1900028444444444,-1.5986204611111112,-4.5662526,4.773357722222222
700,1747679314320,5.010922421428572,1.0201069785714285,1.376753057142857,-2.5733821285714287,-5.7531083,5.053268357142857
701,1747679314330,7.082131035714285,0.9510736742857143,1.6670069571428574,-3.837954614285714,-6.002227857142857,4.666425342857143
702,1747679314340,9.017284000000002,0.7165927866666667,2.3115271666666666,-5.303281958333333,-5.6592131,3.7489289583333334
703,1747679314350,9.288861857142857,0.7116186285714285,4.2562450571428565,-7.467098857142857,-3.260848171428571,1.1260977714285716
704,1747679314360,8.4485905625,0.9387661525000001,6.4259664,-8.323437875,-1.5895731231249999,-0.61365839625
705,1747679314370,7.388841928571429,0.9959801285714286,8.14400742857143,-8.101920142857143,-0.6453975807142857,-1.5340176214285715
706,1747679314380,4.884117142857143,0.06925994285714288,11.438432142857142,-4.069364142857142,1.2966541142857142,-2.621195371428571
707,1747679314390,3.3497874733333335,-1.0859488880000001,11.257234933333333,2.3743306,2.95848562,-2.0218881866666667
708,1747679314400,3.089041271428571,-1.3556857142857142,9.241637428571428,5.9439807714285715,4.009728442857143,-0.9679061485714285
709,1747679314410,3.6654347454545455,-1.4677935454545454,7.773306454545454,7.489457036363637,4.5507577999999995,-0.32270224
710,1747679314420,5.408491641176471,-1.7221038,4.59822895882353,9.573978764705881,5.4029232,0.16682342411764703
711,1747679314430,6.00377788125,-1.7058075875,2.96703461875,9.8885759375,5.46813159375,-0.308327241875
712,1747679314440,6.121781263157895,-1.4124685578947367,1.1000784221052633,9.148862421052632,5.102584868421053,-1.3873236105263158
713,1747679314450,6.074969117647059,-1.3066036705882353,0.6858475247058823,8.690436370588236,4.950311423529412,-1.8813025
714,1747679314460,5.6278992500000005,-0.9329088799999999,-0.47365413,6.3849239,5.18783375,-3.38887
715,1747679314470,5.051517416666666,-0.8047516877777778,-0.9381221888888889,4.371043,5.916296633333334,-4.304819133333333
716,1747679314480,3.9478361666666664,-0.6726353111111111,-0.9887504555555555,1.9296955138888887,7.1797586055555564,-4.9974772777777785
717,1747679314490,2.4848399789473685,-0.8020427978947368,-0.09639297894736842,0.11357673157894735,8.263390368421053,-5.099206705263159
718,1747679314500,2.001615222222222,-0.9053575177777778,0.37458041555555555,-1.2418310788888889,9.208849166666667,-4.623155194444445
719,1747679314510,1.427375577777778,-1.0537443,1.2004701666666666,-1.424523738888889,9.398702833333333,-3.850720838888889
720,1747679314520,1.3281114315789473,-1.0644685368421052,1.580768410526316,-1.0339925,9.159389421052632,-3.124992894736842
721,1747679314530,1.4548727555555556,-1.0817295166666667,2.0128823611111115,-0.05903336666666666,8.788602666666668,-2.2566723333333334
722,1747679314540,1.8423271333333335,-1.2357025,2.1514255666666666,1.2667464222222222,8.588333,-1.6813115777777778
723,1747679314550,2.0581822333333335,-1.3662460555555556,2.1114003,1.8696855777777779,8.474704666666668,-1.5553736666666669
724,1747679314560,2.1742449555555554,-1.552814222222222,1.9448990222222224,2.9994569111111113,7.870463555555556,-1.4849479444444444
725,1747679314570,2.2048334444444446,-1.7013094444444445,1.8173383555555556,3.7705895,7.256221,-1.4188424833333333
726,1747679314580,2.283274494736842,-1.9365493315789473,1.664544252631579,4.861624894736842,5.990005531578947,-1.1642911152631579
727,1747679314590,2.654875133333333,-2.250383955555556,1.4093832333333334,5.557747,4.9987497,-0.93823093
728,1747679314600,3.311294952631579,-2.530841515789474,0.916162047368421,5.557747,4.9987497,-0.9382309299999999
729,1747679314610,3.5943327000000003,-2.5235113333333334,0.56912118,5.969648666666667,4.070194866666666,-1.1364883577777778
730,1747679314620,3.647066247368421,-2.4468345684210524,0.2558972263157895,6.134670984210527,3.3995085473684212,-1.4691807789473683
731,1747679314630,3.4742994315789475,-2.371690542105263,0.1188398157894737,5.9518943,3.4796836,-1.6626102
732,1747679314640,3.060172666666667,-2.2596582555555553,0.04767929327777778,5.0059403,4.427768266666667,-1.9942622666666665
733,1747679314650,2.684812733333333,-2.2103044,0.151295151,4.175744699999999,5.3911218666666665,-2.0592434333333336
734,1747679314660,2.2124208105263157,-2.208120710526316,0.43390489157894735,3.807911110526316,5.94610547368421,-1.745588605263158
735,1747679314670,1.9470919684210528,-2.2126422684210527,0.6829974242105263,3.7574513000000005,6.147272063157894,-1.3766709842105265
736,1747679314680,1.632926,-2.2586279,1.01216635,4.0290934,6.0075545,-0.7283740000000001
737,1747679314690,1.3082528157894735,-2.3442277157894735,1.3034936105263157,4.662252342105264,5.387907589473684,0.16818549578947367
738,1747679314700,1.2645081555555555,-2.4384166555555553,1.3117602333333334,5.6291195,4.2088567,1.21200367
739,1747679314710,1.6640568777777778,-2.5530151666666665,1.1634276555555556,6.735573361111111,2.816793666666667,2.04267265
740,1747679314720,2.362014947368421,-2.6625812473684207,0.9151343631578946,7.541604026315788,1.8917119894736842,2.200932757894737
741,1747679314730,2.822204236842105,-2.6776614473684206,0.6779107210526315,7.958739026315789,1.4168287052631579,1.700034568421053
742,1747679314740,3.478649577777778,-2.519769144444444,-0.4192022066666667,8.102543166666667,1.2364160277777776,0.5008218596888889
743,1747679314750,3.3961498526315785,-2.4671555,-1.0677665168421053,7.476622842105264,1.9922392736842105,-0.9037500799157894
744,1747679314760,2.8360256578947367,-2.1699451684210525,-1.9595516789473684,6.085332421052631,3.3436103105263157,-1.9777040842105265
745,1747679314770,2.0632804333333334,-1.6289601333333334,-2.4854993666666667,4.929241,4.4650525666666665,-2.4125559333333335
746,1747679314780,1.4193888736842104,-1.2629512684210527,-2.7512477052631574,4.098727910526316,5.32421567368421,-2.500243936842105
747,1747679314790,0.97543585,-1.0798312,-2.8707843,3.0695712263157895,6.462085452631579,-2.3603018631578947
748,1747679314800,0.6859297055555555,-0.9599719911111113,-2.835748522222222,2.2055987444444445,7.506853888888888,-2.0444479777777778
749,1747679314810,-0.510153505263158,-0.44058112336842103,-2.8016005,2.4999355105263157,7.410955131578948,-1.9907674736842105
750,1747679314820,-2.260871888888889,-0.051265582000000004,-4.337405466666667,4.670027011111111,4.759183722222222,-1.7271178666666667
751,1747679314830,-3.2749841055555557,-0.25364327966666667,-6.522287577777778,5.761922361111111,1.152260172222222,-0.75873405
752,1747679314840,-3.3779033315789477,-0.403253232631579,-7.75742747368421,5.291767052631578,-0.8766839315789475,0.17810925789473683
753,1747679314850,-2.6629953105263158,-0.4362394578947368,-8.824393894736842,3.5537615,-2.4653284999999996,1.5348066157894735
754,1747679314860,-1.7406501888888888,-0.42255800111111114,-8.770109027777778,1.5640733333333334,-2.2936901666666665,2.2451319
755,1747679314870,-0.9685444084210527,-0.4370615515789474,-8.555545657894738,-0.22500891842105267,-1.7632636315789474,2.5780922263157895
756,1747679314880,-0.04197463526315788,-0.4432785947368421,-7.281977631578947,-2.379336452631579,-1.1406450789473683,2.621431621052632
757,1747679314890,0.629606715,-0.42160889777777777,-5.9198728888888885,-3.378498488888889,-0.9118065000000001,2.5816368444444446
758,1747679314900,1.3348508000000001,-0.3951693666666667,-4.370760499999999,-4.025232,-1.0434257,2.3449116
759,1747679314910,1.8701496,-0.40135214,-3.4130795000000003,-4.025232,-1.0434257,2.3449116
760,1747679314920,1.794157989473684,-1.0306858410526316,-3.315251210526316,-2.3648783263157895,-3.380502131578947,0.13269540842105262
761,1747679314930,1.49072205,-1.3914924333333334,-3.144698083333333,-2.3950603888888886,-4.267860416666667,-0.35144822888888894
762,1747679314940,1.3455036578947368,-1.8479694368421054,-2.8568088789473682,-2.8844674736842104,-4.936683936842105,-0.34336531789473684
763,1747679314950,1.3934416421052631,-2.226720468421053,-2.5880375157894737,-3.6538472,-5.262037657894736,0.02358997842105262
764,1747679314960,1.4734753833333334,-2.62324935,-2.0126791666666666,-4.747658283333333,-5.5604985,0.50165041
765,1747679314970,1.5600343,-2.7490202666666668,-1.4266163333333335,-5.374920977777778,-5.786807888888889,0.9327271222222223
766,1747679314980,1.7217885105263158,-2.8220404578947367,-0.9180695157894738,-5.89835787368421,-6.0497722631578945,1.4448759736842105
767,1747679314990,1.8916266,-2.8712115,-0.5566336,-6.151217815789473,-6.259068578947368,1.8605530000000001
768,1747679315000,2.795560477777778,-3.026865755555556,0.4327202666666667,-6.100720544444444,-6.247948755555555,2.1221530333333334
769,1747679315010,3.19342805,-3.0757314,0.8615831,-5.8047547,-5.926061649999999,1.85169445
770,1747679315020,3.22808405,-3.1090046499999997,0.9597755166666667,-5.255433866666667,-5.4646250499999995,1.1791580666666666
771,1747679315030,2.8957296,-3.2064947263157895,0.9351470531578947,-5.0681250421052635,-5.369180894736842,0.8567383105263157
772,1747679315040,2.3312457176470587,-3.2291142470588237,1.0547185029411763,-4.857578623529411,-5.249211894117647,0.9061164294117647
773,1747679315050,2.036079888235294,-3.238647023529412,1.0178802235294118,-4.644463294117647,-5.293451470588235,1.361548005882353
774,1747679315060,1.9910393444444443,-3.2627876555555555,0.8575425999999999,-4.536321666666667,-5.469241,1.947449966666667
775,1747679315070,2.0548704875,-3.2733566625,0.75123872375,-4.5261720875,-5.5790520625,2.26974391875
776,1747679315080,2.2689716599999996,-3.2710097266666667,0.6305259719999999,-4.643510853333334,-5.8513157866666665,2.7760592133333337
777,1747679315090,2.54169752,-3.2608243999999997,0.558415196,-4.8516634199999995,-6.155839080000001,3.15472492
778,1747679315100,2.76590075,-3.25480845,0.55108128125,-5.0576054375,-6.3232719,3.276351425
779,1747679315110,2.9839965,-3.2167660875,0.6194478143750001,-5.366132250000001,-6.4666829437499995,3.3528507312499998
780,1747679315120,3.11450625,-3.11719070625,0.8133817962500001,-5.569864000000001,-6.43738825,3.4155015
781,1747679315130,3.1536611294117645,-3.041764523529412,0.9083990105882354,-5.665612411764705,-6.200429588235294,3.4990935
782,1747679315140,3.187296075,-2.8991256,1.0143934506249999,-5.6323819375,-6.0678085,3.49959081875
783,1747679315150,3.2107290444444443,-2.8273896222222223,1.068923261111111,-5.580279983333334,-5.9829350888888895,3.4634384833333334
784,1747679315160,3.227840133333333,-2.7121674666666666,1.1387508,-5.4079440666666665,-5.919137555555555,3.2811600000000003
785,1747679315170,3.2096792529411764,-2.646707411764706,1.193141988235294,-5.261000482352942,-5.893194988235294,3.0700428235294117
786,1747679315180,3.1284831,-2.6503524105263154,1.3050865157894735,-5.138488494736841,-5.8892538,2.9554197157894735
787,1747679315190,3.0193339666666663,-2.6751520666666666,1.4404056,-4.914490144444445,-5.883628444444445,2.9419327
788,1747679315200,2.975241,-2.686216,1.4939355,-4.8476152,-5.881853,2.9531772
789,1747679315210,2.8342015263157894,-2.515581494736842,1.6883848578947367,-4.506282315789473,-5.849110263157895,3.218259642105263
790,1747679315220,2.703052789473684,-2.173130705263158,1.9712343052631578,-3.8025916000000004,-5.817264657894737,3.7018893157894737
791,1747679315230,2.8637066888888887,-1.5939514555555556,2.141717561111111,-2.940142366666667,-5.796750611111111,4.047321222222222
792,1747679315240,3.2348365,-0.8213746416666666,1.9002093833333333,-2.024844266666667,-5.389168716666667,3.74697615
793,1747679315250,3.131247638888889,-0.3925931872222222,1.6972892722222221,-1.8638119166666667,-5.059647233333333,3.3203381333333333
794,1747679315260,2.8431054411764705,0.14390046352941177,1.5593428411764705,-2.003909711764706,-4.835638952941176,3.1228047588235293
795,1747679315270,2.6906702941176475,0.3701271735294118,1.6085562,-2.3090372588235293,-4.9785095588235295,3.3267713705882356
796,1747679315280,2.8416602777777777,0.35636425555555556,1.7506836111111113,-2.540468811111111,-5.209908472222222,3.630684816666667
797,1747679315290,3.827136216666667,0.12407599092222221,1.998347538888889,-3.1807734888888892,-5.970506755555555,4.685710083333333
798,1747679315300,4.531658157894737,0.008638342084210526,2.1110149631578947,-3.5947530000000003,-6.23809977368421,5.1452653368421055
799,1747679315310,6.434824235294117,0.020522344235294115,2.3730583941176473,-4.364298894117646,-5.71717588235294,5.063025723529412
800,1747679315320,8.522662166666667,-0.10246336566666667,2.9188501777777778,-5.528673877777778,-3.9233066444444438,4.061643333333333
801,1747679315330,8.912719916666667,-0.5068119766666667,4.383546133333333,-6.516232277777778,-0.5129836222222223,1.4425148472222222
802,1747679315340,5.690866083333334,-0.2841233,7.902472216666666,-5.087891466666666,1.5396018555555555,-1.5209301166666664
803,1747679315350,4.533764768421053,-0.12626108842105263,8.942742157894736,-2.5899853684210528,0.5090558494736842,-1.4422688368421053
804,1747679315360,4.352417421052632,-0.10498957657894736,8.91669244736842,1.214750957894737,-0.562375067368421,-0.9504534315789475
805,1747679315370,4.970961031578947,-0.2811732084210526,7.659643526315788,3.938826131578948,-0.3899705763157895,-0.7397555421052631
806,1747679315380,5.715258421052631,-0.3200168578947369,5.9894697789473685,5.4353535631578955,0.5333326468421052,-0.8900137526315789
807,1747679315390,6.186437466666667,-0.42516129999999996,4.928742888888889,5.611010022222222,1.6260065333333333,-1.2257337777777777
808,1747679315400,6.482723088888889,-0.5353667077777778,4.187514,5.545318777777777,2.5569285444444443,-1.5289788444444445
809,1747679315410,6.548239,-0.73668677,3.415642,5.053877,4.0123153,-2.0194736
810,1747679315420,5.906639666666667,-0.9247735744444445,2.772415644444445,3.9642307111111115,6.12248425,-2.544825988888889
811,1747679315430,5.234780588235294,-1.0553968352941177,2.687317905882353,3.1793263705882353,7.592227870588236,-2.6596343294117646
812,1747679315440,4.9075778,-1.1326560777777777,2.849375111111111,3.1328516,8.032975533333333,-2.577671633333333
813,1747679315450,4.764668633333333,-1.243837688888889,2.837172333333333,3.758871444444445,7.9748594666666675,-2.6005156888888887
814,1747679315460,4.538752861111111,-1.4316533166666665,2.592193011111111,4.272446783333333,7.745650233333333,-2.7487648555555553
815,1747679315470,4.236366,-1.5591597,2.2988363333333335,4.926400566666667,7.381744333333334,-2.961876733333333
816,1747679315480,3.9722961000000003,-1.7316268333333333,1.9317742333333332,5.495724555555555,7.033876333333334,-3.148179511111111
817,1747679315490,3.8341054222222226,-1.8770035833333334,1.6772766722222223,5.732509027777777,6.934688599999999,-3.2200256555555553
818,1747679315500,3.682410255555556,-2.1392024222222226,1.2133238555555554,6.088484644444445,6.967830433333334,-3.2960145555555553
819,1747679315510,3.711724172222222,-2.2504654833333335,1.061845611111111,6.154471733333334,7.045949661111112,-3.2993286666666664
820,1747679315520,3.864612627777778,-2.4948753277777778,0.9438303833333332,6.282066599999999,7.236040111111112,-3.366381122222222
821,1747679315530,3.9329216500000004,-2.808977,0.8274151000000001,6.492929666666666,7.257818844444444,-3.5752319999999997
822,1747679315540,3.7682101111111113,-3.0582135555555556,0.6680999222222223,6.7300694,7.0440558,-3.7910069999999996
823,1747679315550,3.532342338888889,-3.1048826888888885,0.5380445222222222,6.867961955555555,6.711279222222222,-3.877825938888889
824,1747679315560,3.2383347,-3.0981848,0.3815225,6.928741,6.305828,-3.8847501
825,1747679315570,2.8684522055555552,-3.004683733333333,0.2087028522222222,6.639817888888889,6.034067333333334,-3.6123977388888893
826,1747679315580,2.5858881,-2.911480966666667,0.194574635,6.243303000000001,6.0920654,-3.2738806111111116
827,1747679315590,2.44384685,-2.871130138888889,0.24984002500000002,5.985450083333333,6.183145333333333,-2.9739497833333335
828,1747679315600,2.1733230444444445,-2.784489666666667,0.3149762233333333,5.770444366666666,6.153495333333333,-2.5734107333333336
829,1747679315610,2.0434846555555555,-2.6953003333333334,0.36603842555555555,5.594202322222222,6.047442444444444,-2.1674269111111113
830,1747679315620,2.083398329411765,-2.642256994117647,0.42111719,5.411617494117647,5.862803764705882,-1.6819729705882354
831,1747679315630,2.20792495,-2.61031425,0.48402651500000005,5.310723888888889,5.714133277777778,-1.3837478666666667
832,1747679315640,2.3160295368421053,-2.5888501,0.5175779531578947,5.304494315789474,5.468530894736841,-1.2849462263157896
833,1747679315650,2.552859283333333,-2.50284775,0.5395088683333333,5.370082833333333,4.83700725,-1.3130262166666666
834,1747679315660,2.5899559,-2.4027842666666666,0.41406346666666666,5.492883888888889,3.734755055555555,-1.6731444666666668
835,1747679315670,2.3654232666666664,-2.3453494666666668,0.27462541333333335,5.466134111111111,2.905861688888889,-1.9843198555555557
836,1747679315680,2.073128242105263,-2.282185684210526,0.13086284947368423,5.292440157894737,2.521731421052632,-2.0300700263157894
837,1747679315690,1.7339114777777778,-2.135134888888889,-0.05338752111111111,5.066897066666667,2.4184444666666667,-1.9131838444444444
838,1747679315700,1.5362793894736841,-1.888739852631579,-0.24557617,4.448639,2.6235482526315788,-1.5297886631578947
839,1747679315710,1.4861663444444444,-1.691276111111111,-0.3836783222222222,4.011102166666666,2.9831525333333335,-1.3200687888888887
840,1747679315720,1.5297440833333333,-1.5088569166666668,-0.5059238833333334,3.2237540944444443,3.770796561111111,-1.0877229499999999
841,1747679315730,1.58926695,-1.435883738888889,-0.5538404666666668,2.902044533333333,4.064868466666667,-1.0380106333333332
842,1747679315740,1.815609405263158,-1.3800216631578948,-0.6433638063157895,2.4541852,4.227610884210526,-1.1918197736842107
843,1747679315750,2.0426168666666666,-1.3634258000000001,-0.7563537216666667,2.071493766666667,4.208856766666667,-1.4996249166666666
844,1747679315760,1.8832774,-1.3409468789473684,-0.9772341099999999,1.6313531263157897,4.105329831578948,-2.0991439368421054
845,1747679315770,1.1064817105263158,-1.128745457894737,-1.2577972157894737,1.2733124684210526,4.670087736842105,-2.1016109315789477
846,1747679315780,0.4091459368421053,-0.6604638605263158,-1.6928613210526315,1.371540994736842,6.2018808684210525,-1.6447811157894738
847,1747679315790,-0.343989047368421,-0.599989074736842,-2.631608378947368,1.805720047368421,7.112905536842105,-1.217778547368421
848,1747679315800,-1.346935914736842,-0.3704210936842105,-4.054128105263158,1.8742893789473685,6.801512115789474,-0.6501051684210526
849,1747679315810,-1.7643509333333334,-0.1587592333333333,-4.517682566666667,1.7437478333333332,6.196816066666667,-0.28167346666666665
850,1747679315820,-2.328662736842105,0.17660109999999998,-4.9348407,1.4132543947368421,3.9903372631578953,0.6422278210526317
851,1747679315830,-2.2766142736842108,0.2387201042105263,-4.613507489473684,1.4752079157894737,2.091252647368421,1.2918143631578949
852,1747679315840,-1.9702067315789473,0.3219564784210526,-4.072959068421053,2.134213642105263,0.5591793357894738,1.8227081105263157
853,1747679315850,-1.2417600189473683,0.1917840392631579,-3.8774047894736845,3.874966489473684,-1.3202260663157894,2.5018978315789475
854,1747679315860,-0.5713219817894736,-0.09430243463157895,-4.389565263157895,4.88803227368421,-2.073928142105263,2.7525151631578946
855,1747679315870,0.03527590157894737,-0.445128297368421,-5.844763157894737,5.3743535157894735,-2.619006784210526,2.8205799105263156
856,1747679315880,0.6678722794736842,-0.7446764684210526,-7.363595584210526,3.3979527894736843,-2.9437999157894734,2.712427589473684
857,1747679315890,1.575653997222222,-1.0455819222222222,-7.281250961111111,0.561305213888889,-2.9357482333333333,2.291411638888889
858,1747679315900,2.0278107157894736,-1.3178513263157894,-6.87735627368421,-1.4880751605263158,-3.001548547368421,1.8235490842105264
859,1747679315910,2.298817036842105,-2.0624315263157897,-5.213297278947368,-3.0740845,-3.1611698,1.3286501
860,1747679315920,2.3123815,-2.1985898,-4.8881617,-5.163564052631579,-3.554252094736842,0.7508847282105263
861,1747679315930,2.3103205666666664,-2.367911288888889,-4.451787322222223,-7.784192,-3.9565666666666663,0.04039124266666667
862,1747679315940,2.2724845210526317,-3.0996748157894736,-2.2041227684210525,-8.728875368421052,-3.590751347368421,-0.26621779157894737
863,1747679315950,2.0976110842105262,-3.281124821052632,-0.648656007368421,-9.060004210526316,-3.0254888,-0.6100176178947369
864,1747679315960,1.8100346,-3.1887940263157892,0.41610154894736845,-8.322953915789475,-2.931465310526316,-0.7598833931578948
865,1747679315970,1.6213654842105263,-3.0032850157894737,0.9861935905263157,-7.553273031578947,-3.272181452631579,-0.6684949668421053
866,1747679315980,1.5958293444444445,-2.608578911111111,1.4146711055555556,-5.815466611111111,-4.38137,-0.29274036583333335
867,1747679315990,1.6711274157894735,-2.2821599894736844,1.3163388684210526,-3.4709513210526315,-5.764057684210526,0.3339180996842105
868,1747679316000,1.7630727315789472,-2.0347116,0.8775752736842106,-2.477144484210526,-6.136787578947368,0.7339526389473685
869,1747679316010,1.8369065421052628,-1.9785013684210526,0.5210461684210527,-2.0879307684210526,-6.136339157894737,1.0496071368421054
870,1747679316020,1.9159781333333332,-2.013106222222222,0.21540086555555554,-2.069999611111111,-5.8320227777777776,1.3445107111111112
871,1747679316030,1.9837775578947368,-2.0263623684210526,0.024248373999999993,-2.3287995736842104,-5.402092368421053,1.591489894736842
872,1747679316040,2.0450573333333337,-2.0305155999999998,-0.062010878,-2.5464240666666664,-5.140074766666667,1.7235078000000001
873,1747679316050,2.2007315473684215,-2.0698558947368424,-0.08788950789473685,-3.0079821368421054,-4.874842657894737,1.8036454631578949
874,1747679316060,2.353845336842105,-2.1518077368421054,-0.053978397894736845,-3.862639068421052,-4.6296636736842105,1.7724725315789474
875,1747679316070,2.4355146157894736,-2.2295978736842104,0.00919389305263158,-4.388935431578948,-4.658706010526315,1.6723938263157894
876,1747679316080,2.488076889473684,-2.3125260210526317,0.1192508610526316,-5.049623031578948,-4.805376105263157,1.528078636842105
877,1747679316090,2.4593037833333335,-2.3601557333333334,0.31009506000000003,-5.839020688888889,-4.896247688888888,1.4840602666666665
878,1747679316100,2.6666547,-2.4652710250000003,0.47865725000000003,-6.370942390000001,-4.660315499999999,1.5250847
879,1747679316110,2.862161,-2.575142777777778,0.6242238511111111,-6.840190866666666,-4.2626524833333335,1.4186649166666667
880,1747679316120,2.9392487894736843,-2.625689789473684,0.813966242105263,-6.8982477,-4.2029977,1.3946965
881,1747679316130,2.8627176210526315,-2.695978368421053,1.1039062631578946,-7.374757242105264,-3.5250976315789475,0.6473859552631579
882,1747679316140,2.545443242105263,-2.783273842105263,1.4834024315789474,-7.416246568421053,-3.350842842105263,0.2442677647368421
883,1747679316150,2.3320144333333332,-2.8240270555555558,1.7063736555555555,-7.319737333333332,-3.3685411666666667,0.14123620666666667
884,1747679316160,2.1109185842105265,-2.9077428789473685,1.9179014368421052,-6.897406842105262,-3.643117552631579,0.23120426631578947
885,1747679316170,1.9019542105263156,-3.011197505263158,2.136294210526316,-6.286001631578948,-4.120075347368421,0.6106624010526316
886,1747679316180,1.7254622526315793,-2.9606391684210527,2.3376027684210525,-5.303099526315789,-5.047191147368421,1.3934629789473683
887,1747679316190,1.749354147368421,-2.6905833263157897,2.3603642105263156,-4.400877126315789,-6.2229057999999995,2.241524957894737
888,1747679316200,2.747599568421053,-2.3123204052631583,2.2094343631578948,-3.213613005263158,-8.377373394736843,3.443366542105263
889,1747679316210,3.3471328263157893,-2.1179995,2.0323514736842103,-2.8703598789473683,-9.193253657894736,3.843793594736842
890,1747679316220,3.6699905666666663,-1.9779619666666666,1.9023246,-2.9142506,-9.074803666666666,4.088038
891,1747679316230,4.795522584210526,-1.8566783684210524,1.5389447684210527,-3.611068494736842,-7.7549228947368425,4.545690052631579
892,1747679316240,5.947729678947368,-1.9246547368421054,1.4187144315789475,-5.129797894736842,-6.736811331578947,4.12569597368421
893,1747679316250,6.683857736842105,-1.7449257947368422,1.6205626578947367,-6.806859421052632,-6.484287721052631,3.1990288263157898
894,1747679316260,6.908339157894737,-1.5742141789473683,2.0964485842105263,-8.30148042105263,-6.97021605263158,2.143913210526316
895,1747679316270,6.704101842105263,-1.5657364631578947,3.260524468421053,-9.439854578947369,-7.2996628421052625,1.3981165631578947
896,1747679316280,6.030322388888889,-1.581233438888889,5.794170111111111,-11.697674888888889,-6.356960750000001,0.1186289361111111
897,1747679316290,5.244485173684211,-1.6990944842105264,9.383382315789474,-11.622468157894737,-4.021622410526316,-0.37022116842105257
898,1747679316300,4.499699431578948,-1.6669559736842106,12.01719647368421,-8.762235342105264,-2.1733902,-0.7399798105263158
899,1747679316310,3.998097363157895,-1.6096924789473683,13.674524947368424,-2.248974815789474,-3.152984052631579,-1.1010480631578947
900,1747679316320,3.5304325,-1.4257503210526317,12.091646631578948,2.1432963578947373,-3.287151315789474,-1.1048605789473684
901,1747679316330,3.390112468421053,-1.286406494736842,10.519686315789475,4.045296768421053,-2.2332131052631574,-0.8702222736842105
902,1747679316340,3.4386670842105262,-1.1335495947368421,8.688640868421054,5.628670736842105,0.9565226052631579,-0.32923655263157897
903,1747679316350,3.5040488631578945,-1.0500050210526315,7.642816789473684,6.221405894736842,3.020891447368421,0.012544878947368417
904,1747679316360,3.721850710526316,-1.0963244842105262,6.8943059263157895,6.678179710526315,4.383363705263157,0.2587889810526316
905,1747679316370,4.229232815789474,-1.3858533789473686,5.838436978947368,7.360901615789474,4.8692921315789475,0.25677058894736843
906,1747679316380,4.4416139999999995,-1.6850418789473682,4.768387052631579,8.096606521052632,4.434103847368421,-0.05204373526315789
907,1747679316390,4.214889044444444,-1.7896582333333333,3.682261111111111,8.611265833333334,3.180285311111111,-0.7135195333333333
908,1747679316400,3.931534252631579,-1.7962549263157892,2.815287068421053,8.575021842105263,2.676923252631579,-1.1424252157894736
909,1747679316410,3.6107918052631582,-1.7284327684210525,1.8070736736842106,7.566497821052632,3.4120673789473686,-1.5369090684210527
910,1747679316420,3.2767673210526316,-1.5050048,1.1834945421052632,6.520296615789474,4.609087342105263,-1.6849807631578948
911,1747679316430,3.0859915421052633,-1.353586505263158,1.0224167789473684,5.439110163157895,5.773924973684211,-1.7340950263157895
912,1747679316440,2.911811605263158,-1.2279097578947369,0.9712418736842106,4.775506673684211,6.5066021473684215,-1.7438506421052633
913,1747679316450,2.9433411,-1.2635919705882355,1.0553214529411765,4.383262058823529,6.9927978,-1.767194094117647
914,1747679316460,3.0837820736842105,-1.4199186157894736,1.2667309263157895,4.176940736842106,7.363242552631579,-1.9378967578947368
915,1747679316470,3.216125388888889,-1.805033916666667,1.5271272666666666,4.458572361111112,7.250480388888889,-2.2459604388888885
916,1747679316480,3.2194483384615387,-1.9502146153846154,1.5810451692307692,4.724301076923077,7.078881892307692,-2.4360736
917,1747679316490,3.1273527,-2.289199157894737,1.6249299842105263,5.347272889473683,6.581955826315789,-2.7529916684210525
918,1747679316500,2.9335070500000002,-2.5986807833333336,1.5234663666666668,6.335626105555556,5.587485272222223,-3.098585677777778
919,1747679316510,2.6314862249999997,-2.8826821125,1.11650095,6.9788084,4.830438,-3.2647667
920,1747679316520,2.3006153263157896,-3.0111462631578947,0.5615853421052632,7.387421315789474,4.033732852631579,-3.297958057894737
921,1747679316530,2.1219306941176472,-2.9415861764705884,0.2956717588235294,7.221124588235294,3.9378722705882354,-3.2298009705882356
922,1747679316540,1.95927942,-2.82405966,0.1197954972,6.878673600000001,3.9643786,-3.0778129499999998
923,1747679316550,1.7930850470588235,-2.625862211764706,-0.01850169470588235,6.352433411764705,4.13431954117647,-2.8051994058823526
924,1747679316560,1.7969325600000001,-2.3853423200000003,-0.075157434,5.67194308,4.4041194,-2.44493978
925,1747679316570,2.0741816571428573,-2.140992242857143,0.025547565714285715,4.9213277714285715,4.614341528571429,-2.2060468285714285
926,1747679316580,2.278945666666667,-2.072412,0.18595129066666663,4.543793266666667,4.68644975,-2.2486827666666667
927,1747679316590,2.3228757499999997,-2.04922655,0.25985995500000003,4.3827609,4.6871601,-2.3571621
928,1747679316600,2.2988361375,-2.0138382875,0.3062918475,4.3187785375,4.5563325125,-2.457629875
929,1747679316610,2.2073148375000002,-1.942939725,0.3597403875,4.28702040625,4.364651675,-2.547511625
930,1747679316620,2.08238805625,-1.90495835,0.35653713125,4.3064613125,3.8907422375,-2.561826
931,1747679316630,1.8229652333333333,-1.8923792666666666,0.28991968,4.313814861111111,3.2609495055555557,-2.387936511111111
932,1747679316640,1.6078102727272727,-1.8899238454545455,0.19750332727272726,4.275363181818182,2.985110927272727,-2.0504630818181817
933,1747679316650,1.4341007000000001,-1.8481234333333332,0.10167017666666667,4.255995,2.9502478,-1.9342525000000002
934,1747679316660,,,,,,
935,1747679316670,1.4153663857142857,-1.343831485714286,-0.3561579771428572,3.5160927714285712,3.5423820285714283,-0.034126482285714285
936,1747679316680,1.8051442882352942,-1.2332714823529414,-0.49785885882352937,3.3899351529411765,3.6224916529411764,0.07853186211764707
937,1747679316690,2.2858334166666667,-1.2027547722222223,-0.6702015777777778,3.2128646888888888,3.7334531333333336,-0.031218143333333337
938,1747679316700,2.718004576923077,-1.169006046153846,-1.0116313923076925,2.6413007538461537,4.0833604615384615,-0.945605836923077
939,1747679316710,2.4576385294117644,-1.0371356470588236,-1.2291117705882353,2.118637135294118,4.206068323529411,-1.9152657117647058
940,1747679316720,1.5281711722222222,-0.7969960500000001,-1.3813843944444446,1.7025575999999998,4.048889666666667,-2.4011930666666665
941,1747679316730,1.034204826,-0.68982779,-1.41161496,1.45349898,3.6972106200000003,-2.3228606600000004
942,1747679316740,0.7666583672222222,-0.8252253511111111,-1.4281348777777778,1.500631,3.2222449333333336,-1.776475111111111
943,1747679316750,0.66975406875,-0.8267439262499999,-1.6351225125,1.74836393125,3.2194264125,-1.4772543374999998
944,1747679316760,0.58238157625,-0.75749267,-1.7962612624999998,1.9110829374999998,3.32109255,-1.3904353624999999
945,1747679316770,-0.18839185111111112,-0.28697064666666666,-2.7566739555555557,2.2870322000000005,3.605384755555556,-1.4223340999999998
946,1747679316780,-0.49803830470588234,-0.11465666,-3.1943756411764705,2.2724110000000004,3.5927269882352943,-1.3264881705882354
947,1747679316790,-0.6808761642857143,0.00040095192857142914,-3.4828452,2.22187365,3.5217616499999997,-1.2343742
948,1747679316800,-0.7245043155555555,0.11979143333333332,-3.8095368888888888,2.2430013666666664,3.3962380666666667,-1.3259869
949,1747679316810,-0.7887127884210526,0.19615137894736842,-4.135720105263158,2.327755263157895,3.248914057894737,-1.5940969157894738
950,1747679316820,-1.6250212833333333,0.03700178888888889,-4.8532073888888885,2.6748473888888893,3.0106717444444446,-2.393025888888889
951,1747679316830,-2.831043666666667,-0.26411062,-5.532716833333334,3.1047997,1.5153374866666667,-2.2470848
952,1747679316840,-4.129984894736842,-0.5951079147368421,-6.743433368421053,3.024661963157895,-1.165202234736842,-0.8596257105263158
953,1747679316850,-3.818336611111111,-0.8078972644444444,-7.008964555555555,2.8253455,-2.034121,-0.23089589000000002
954,1747679316860,-2.796577322222222,-1.0127426433333333,-7.105042155555555,1.50335332,-2.9646288,1.503885905
955,1747679316870,-1.197084694736842,-1.2283208315789473,-6.912732178947369,-1.2004820221052632,-3.8117096315789474,3.9545250473684215
956,1747679316880,-0.2991396055555555,-1.3529584222222222,-6.516131911111112,-2.6736489333333333,-3.704336033333333,4.438864944444444
957,1747679316890,1.5977047263157895,-1.6437062631578947,-5.217048168421052,-5.00847,-3.4988585000000003,4.6725125
958,1747679316900,2.4202034210526318,-1.8844752736842103,-3.8236096210526314,-6.4051988842105265,-3.3616076789473683,4.032681657894737
959,1747679316910,2.8008813736842106,-2.056676884210526,-2.761729247368421,-7.346667689473684,-3.292757936842105,3.4960131315789473
960,1747679316920,2.916070644444444,-2.207077544444444,-1.7295183666666667,-7.732112533333334,-3.4190226944444446,2.7803085722222223
961,1747679316930,2.928459010526316,-2.3448957157894736,-0.7381093601052632,-7.65133332631579,-3.6194013947368417,2.212706789473684
962,1747679316940,2.8616643947368425,-2.459448294736842,0.3750228925263158,-6.762566947368422,-3.7812655210526316,1.477674842105263
963,1747679316950,2.7359620315789472,-2.4318827263157896,0.7302931810526316,-6.105747736842106,-3.7689869157894735,1.2438775
964,1747679316960,2.5944601368421054,-2.351523694736842,0.8195924042105263,-5.20363752631579,-3.7695475473684215,1.113242552631579
