id,timestamp,acc_x,acc_y,acc_z,gyro_x,gyro_y,gyro_z
0,1747679576680,0.09975840500000001,0.9812321925,0.039110174,-0.22037642,0.010253162,-0.15100113
1,1747679576690,0.08393321894736842,0.9817074684210526,0.053509552210526314,-0.21992788736842106,-0.005221194000000001,-0.1461794094736842
2,1747679576700,0.06892582944444445,0.9887166344444444,0.12284893066666666,-0.20996050222222223,-0.15024656,-0.10093373
3,1747679576710,0.196405065,1.0019770499999998,0.18530047,-0.129829002,-0.25339959,-0.08282424499999999
4,1747679576720,0.25896078842105263,0.9973528231578946,0.19811989631578947,-0.07852815458947368,-0.23111314842105263,-0.12907911368421052
5,1747679576730,0.22813252,0.98733366,0.20043202,-0.0019973693,-0.16551533,-0.24261379
6,1747679576740,0.18574362315789472,1.0081169984210525,0.2108879389473684,0.03708098638947368,-0.13024950105263156,-0.2721608457894737
7,1747679576750,0.1568678,0.99953645,0.21165864,0.11411637000000001,-0.018508956,-0.30013803
8,1747679576760,0.13612292666666667,0.993543525,0.20935366666666666,0.19460295666666666,0.05629622266666666,-0.30771324777777775
9,1747679576770,0.06808234157894737,0.9862032842105264,0.1856344452631579,0.2737377084210526,0.027970177789473683,-0.294307122631579
10,1747679576780,0.01166657992105263,0.9942443157894737,0.14722753684210527,0.34684843,-0.12015753789473683,-0.1986576547368421
11,1747679576790,-0.010067361,1.0014889,0.102809116,0.3942807,-0.24754064,-0.08175898
12,1747679576800,-0.0019235563684210527,1.0150020421052632,0.026714636105263156,0.3435405084210526,-0.2497272373684211,0.03598068168421052
13,1747679576810,0.04174984647368421,1.0238394210526316,-0.016984457157894737,0.22125946578947372,-0.1565446957894737,0.1556826747368421
14,1747679576820,0.087067425,1.031752,-0.028493684,0.09421275505263159,-0.052709524,0.19459283263157895
15,1747679576830,0.1482101815789474,1.0551043736842107,-0.01683031557263158,-0.014107734631578947,0.021858928842105264,0.19414430263157895
16,1747679576840,0.19494073,1.0668962,-0.00067115744,-0.11704584000000001,0.07736477,0.15579481
17,1747679576850,0.18967994000000002,1.0698791333333333,0.014351921444444447,-0.1879450622222222,0.1010372961111111,0.10560905511111111
18,1747679576860,0.14759362,1.070313,0.056438237,-0.24807326000000002,0.11891005,0.069508456
19,1747679576870,0.128703583,1.06767726,0.1073973917,-0.24908526649999999,0.124982051,0.050280443650000006
20,1747679576880,0.12180061947368422,1.0535373105263157,0.15290507473684212,-0.21028444000000002,0.10988334105263159,0.04371785863157895
21,1747679576890,0.10463955,1.0346806333333334,0.19717792666666667,-0.09153869555555555,0.048543470222222225,0.037077091944444446
22,1747679576900,0.0967320905,1.011495284,0.20028557399999997,0.11816436550000001,-0.0573910778,0.0433029674
23,1747679576910,0.10587267263157896,0.9846361115789474,0.1495653407368421,0.25232029947368423,-0.10642123421052632,0.047698581
24,1747679576920,0.10610388736842105,0.9613093421052632,0.09040073110526316,0.31539512210526316,-0.12206379263157895,0.049829108000000004
25,1747679576930,0.0984738867368421,0.9375459184210526,0.03532086336842105,0.3253189052631579,-0.11869980263157894,0.052071767894736845
26,1747679576940,0.084138736,0.9111877700000001,-0.010921562,0.2920154,-0.10053425,0.06418213
27,1747679576950,0.08619395621052632,0.8857030794736843,-0.03394001084210527,0.24626512631578948,-0.09784306684210527,0.08122634894736842
28,1747679576960,0.10394590736842106,0.8675656947368422,-0.04727324552631579,0.21671807842105262,-0.10905637052631578,0.08935599315789475
29,1747679576970,0.13067232666666667,0.8211306083333334,-0.05468916083333333,0.141990765,-0.16551533833333332,0.08406705833333333
30,1747679576980,0.11869209894736842,0.7770076384210526,-0.05533998,0.08625130894736842,-0.21132167526315793,0.08896353394736842
31,1747679576990,0.12691297684210526,0.7398595421052633,-0.046939273578947366,0.040837440684210524,-0.2545489552631579,0.12529462342105263
32,1747679577000,0.14612928,0.7125251,-0.035327286,0.00972053,-0.30613014,0.16644745
33,1747679577010,0.15655950684210526,0.6771497052631578,-0.01739550089473684,0.0009180890484210526,-0.3601782384210526,0.2134311763157895
34,1747679577020,0.1641124394736842,0.6421596157894737,-0.005989036526315789,0.012972387868421052,-0.4225802810526316,0.2651805526315789
35,1747679577030,0.16635551125,0.6167937,-0.008938596875,0.0342881726875,-0.4990760125,0.324838825
36,1747679577040,0.15422169368421051,0.5634704210526316,-0.024357556210526314,0.05149007868421053,-0.5595507926315789,0.4232881284210526
37,1747679577050,0.14979013125,0.509835618125,-0.032398599875,0.050733179749999996,-0.60806580125,0.539556030625
38,1747679577060,0.14669447,0.4692129021052632,-0.03946341631578948,0.04212697178947369,-0.6485282947368421,0.670821742631579
39,1747679577070,0.14808173,0.3947626,-0.05241129,0.011851058,-0.6757766,0.85247725
40,1747679577080,0.15336963888888888,0.3313077222222222,-0.045713278333333336,-0.02200065166666667,-0.6765459833333334,1.0186583083333334
41,1747679577090,0.1794238236842105,0.23396741,-0.03396570410526316,-0.06950144263157894,-0.665908897368421,1.252455652631579
42,1747679577100,0.23080429210526318,0.15093656105263156,-0.030009406736842107,-0.13700551684210527,-0.6513316157894737,1.517874494736842
43,1747679577110,0.3614905336842105,-0.008368595736842108,-0.016059608263157898,-0.26365974894736843,-0.6506588231578947,1.8349306000000003
44,1747679577120,0.4550543715789474,-0.08936991315789473,0.018673590210526315,-0.38694999684210524,-0.6719641,2.0725405263157897
45,1747679577130,0.5068459,-0.14362769,0.05155709,-0.45153861999999995,-0.6800377,2.2106884
46,1747679577140,0.5863543,-0.22601057,0.10584627111111111,-0.49343899111111106,-0.6734093555555556,2.366690355555556
47,1747679577150,0.5951175473684212,-0.2740570242105263,0.13797904631578947,-0.49224290421052636,-0.6620403421052632,2.486928184210526
48,1747679577160,0.5771344,-0.31397966,0.15991852,-0.47497442,-0.6534061,2.6101623
49,1747679577170,0.5651370236842105,-0.33751190315789475,0.16770264894736844,-0.4547904894736842,-0.6574428936842105,2.717137152631579
50,1747679577180,0.56883645,-0.3832919,0.18481235,-0.4104075977777778,-0.6657158005555555,2.9424061722222223
51,1747679577190,0.5793180236842105,-0.45316935315789475,0.20097151210526315,-0.3325094210526316,-0.7070056605263157,3.2151199210526316
52,1747679577200,0.6192749166666667,-0.4875856844444445,0.20211329222222224,-0.23481665277777777,-0.7685137444444444,3.5779543055555556
53,1747679577210,0.7403273072222222,-0.5102287788888888,0.1937882283333333,-0.1348002350666667,-0.8169240583333334,3.9980231833333337
54,1747679577220,1.022725511764706,-0.5209114870588235,0.15658785088235294,-0.002310682317647059,-0.8548035999999999,4.594309511764705
55,1747679577230,1.3058892823529413,-0.5085650811764706,0.11512683029411765,0.043182341411764705,-0.8371954264705882,4.950796917647059
56,1747679577240,1.5417771368421054,-0.4972537715789474,0.08929604368421053,0.03674458736842105,-0.8282775278947367,5.094525136842106
57,1747679577250,1.8338124333333334,-0.4848739577777778,0.08648440066666667,0.016112112666666664,-0.7812377133333334,5.120633600000001
58,1747679577260,1.9394332352941177,-0.46983174294117647,0.12138618270588235,0.013354959647058823,-0.7207683329411765,5.119045823529412
59,1747679577270,1.970213,-0.47212875,0.14527509,0.037417386,-0.63955766,5.173187
60,1747679577280,1.9963459538461537,-0.4996134115384615,0.16464946846153844,0.10543036738461538,-0.5011553215384615,5.334779061538462
61,1747679577290,2.0297632,-0.5355836,0.16772833,0.1833585,-0.42224386,5.5162015
62,1747679577300,2.1211382199999997,-0.5839069400000001,0.1277517655,0.32551794,-0.4747613735,5.826779175
63,1747679577310,2.3551345176470586,-0.6034028235294118,0.005990168882352941,0.4637734835294118,-0.6896250388235294,6.215891735294117
64,1747679577320,2.644402057894737,-0.5825710578947368,-0.15226924842105263,0.5155525557894737,-0.9831892747368421,6.5437884526315795
65,1747679577330,2.9646309,-0.5128220684210527,-0.35599281473684213,0.40044802421052633,-1.165405447368421,6.699653042105263
66,1747679577340,3.1754826117647057,-0.4508239994117647,-0.4844213176470588,0.09036726352941177,-1.2836662647058823,6.825347588235295
67,1747679577350,3.3874663263157894,-0.3843195257894737,-0.6077828421052631,-0.41559999684210525,-1.1762823552631578,6.810160157894737
68,1747679577360,3.5140648666666667,-0.3184811433333333,-0.7286125666666666,-1.0376703555555555,-0.9366478266666667,6.738413955555555
69,1747679577370,3.513631,-0.25296533,-0.7728683,-1.7128108,-0.64594924,6.6730776
70,1747679577380,3.4619167894736838,-0.11010193684210527,-0.7528555578947369,-2.3108162210526317,-0.49950351263157894,6.629794568421053
71,1747679577390,3.4189370000000006,0.05503491,-0.5917778,-3.3714262999999995,-0.39667755,6.5516376
72,1747679577400,3.401880144444444,0.1430853427777778,-0.40461301333333327,-3.8885526055555553,-0.38058024055555556,6.448011172222222
73,1747679577410,3.3694318105263164,0.2639993036842105,-0.11540375105263158,-4.3650370368421045,-0.39488342263157894,6.272258631578947
74,1747679577420,3.3118228,0.4332694011111111,0.24588090777777774,-4.440832744444444,-0.38223730888888885,6.171812366666667
75,1747679577430,3.21881,0.64223665,0.66951007,-4.5925736666666666,-0.26263187000000005,5.45743435
76,1747679577440,3.21881,0.64223665,0.66951007,-4.4185805,-0.24221432,5.1050096
77,1747679577450,2.7835474555555555,0.9703308861111112,0.9910419394444444,-4.369933455555556,-0.2520384172222222,5.037602083333333
78,1747679577460,2.242581133333333,1.1940500666666667,1.12337515,-3.457535083333333,-0.43840035833333335,3.7954455000000005
79,1747679577470,1.6836898,1.3490264,1.1400524,-3.030542,-0.5351618,3.3143015
80,1747679577480,0.7094134,1.7634357,1.1727561,-2.4519854666666667,-0.6383740666666666,2.8900897666666667
81,1747679577490,0.16750869933333334,2.0627801333333333,1.1565506866666666,-2.09161866,-0.7362125733333333,2.766897966666667
82,1747679577500,-0.07303413,2.242276,1.0663471,-1.5790136866666666,-0.9192958933333333,2.7600802333333334
83,1747679577510,0.002894790888888889,2.394133777777778,0.8437669222222222,-1.2555759444444445,-1.0822338999999999,2.6476831222222224
84,1747679577520,0.16057746786666668,2.4694119,0.6580230866666666,-1.1198139666666667,-1.18397834,2.21992066
85,1747679577530,0.22645122666666667,2.579888511111111,0.5743277,-1.2345074,-1.1381011,1.4277196
86,1747679577540,0.13490264,2.699639,0.7109997,-1.3713345444444445,-1.133070611111111,0.999128538888889
87,1747679577550,0.1654740205263158,2.8469469894736843,1.1589090052631579,-1.427376152631579,-1.0986863421052633,0.4349499484210526
88,1747679577560,0.3210465282352941,2.852993223529412,1.3993847529411765,-1.3206684235294117,-1.021987388235294,0.16694873705882354
89,1747679577570,0.6906851947368421,2.783800384210526,1.7443637631578945,-1.0303132236842105,-0.8654496578947368,-0.2532664321052631
90,1747679577580,1.3121534,2.60779245,2.1801430833333333,-0.3174929466666667,-0.41656251216666673,-1.0282457083333334
91,1747679577590,1.6586675947368423,2.426397957894737,2.3345457052631575,0.39170165736842105,0.07579491257894737,-1.7277595315789473
92,1747679577600,1.8545557368421053,2.254324652631579,2.3207756263157897,1.1303779,0.62384504,-2.4445138
93,1747679577610,2.0658836,2.0055404,2.2060945,1.623595,0.9583377999999999,-2.938796
94,1747679577620,2.3270791555555554,1.6046356888888889,1.8884946777777776,2.3435947777777777,1.3088096,-3.7325358
95,1747679577630,2.4294773842105264,1.2464709789473685,1.484481432631579,3.101339852631579,1.5270204210526317,-4.663233784210526
96,1747679577640,2.5226772166666667,0.9606771077777778,0.9547858688888888,3.5613095999999995,1.5431676,-5.2642665
97,1747679577650,2.7995196,0.8962188999999999,0.490778795,3.583206611111111,1.4464652888888887,-5.526794888888889
98,1747679577660,3.2465810842105265,0.894180794736842,0.14098481105263158,3.375280863157895,1.4268295157894737,-5.727768621052632
99,1747679577670,3.862524466666667,0.9186721355555556,-0.11315443,2.697735888888889,1.5608035555555555,-5.989237666666666
100,1747679577680,4.2789946,0.9209500599999999,-0.17541614,2.314951,1.6411718,-6.159088
101,1747679577690,4.79805548,0.8794928,-0.15214935533333335,2.1831423733333333,1.6913102,-6.263057733333333
102,1747679577700,5.333322,0.81405294,-0.11244938,1.3263863,2.0172098,-6.938861
103,1747679577710,5.7994714,0.7388833,0.030080057999999996,1.0153294,2.32081,-7.35964
104,1747679577720,6.1211386,0.6275932,0.14527509,1.0185252,2.3666162,-7.5055814
105,1747679577730,6.512931844444444,0.3598895288888889,0.25678210333333334,1.3123012555555555,2.2398498444444446,-7.423082477777778
106,1747679577740,6.7757001789473685,0.11417384,0.023940085263157895,1.5855258263157896,1.7510621263157895,-7.694301210526316
107,1747679577750,6.570348023529412,-0.2342734117647059,-0.4644947705882353,1.6598139058823531,1.1271508117647058,-8.335860588235294
108,1747679577760,5.818914588888889,-0.47012205222222225,-0.8111310833333333,1.2287372044444445,1.0635622333333332,-8.764959999999999
109,1747679577770,4.962192322222222,-0.58412388,-0.9582976000000001,0.72664297,1.2193274,-8.8850975
110,1747679577780,4.243362133333333,-0.64540935,-0.8669116666666666,-0.022829191944444445,1.501918177777778,-8.775493222222222
111,1747679577790,3.6102780111111112,-0.66867617,-0.5919404666666667,-0.6486124,1.8691382000000003,-8.487755
112,1747679577800,3.1924517,-0.65956473,-0.3120882,-0.9127978000000001,2.2494373,-8.137282
113,1747679577810,2.9697632111111107,-0.6452195772222222,-0.11329002388888888,-0.859593775,2.4979988777777775,-7.821668672222223
114,1747679577820,2.5940235,-0.62686104,0.26632747,-0.5889576,2.6126924,-7.490668000000001
115,1747679577830,2.3812869166666664,-0.70414584,0.5026562450000001,0.07860758333333334,2.5017274,-6.89767075
116,1747679577840,2.136985555555556,-0.8055109155555555,0.5746531466666666,0.9336591799999999,2.208720533333333,-6.313196366666666
117,1747679577850,1.963584994736842,-0.8403469447368421,0.5291899684210527,1.3637266263157894,2.0084634736842104,-6.071287894736843
118,1747679577860,1.6853494733333332,-0.90088856,0.3867615790666667,2.34058836,1.1931929466666666,-5.2217981133333335
119,1747679577870,1.0326026352941176,-1.0631205294117645,0.024911785294117646,2.4491742,0.9572724999999999,-4.970254
120,1747679577880,0.723465952631579,-1.2401383421052632,-0.12280254631578948,2.395854936842105,0.7165229557894737,-4.5929821578947365
121,1747679577890,0.47838274062499997,-1.37038139375,-0.175782235625,2.20942339375,0.763927196875,-4.313252375
122,1747679577900,0.17104880684210527,-1.5751904210526315,-0.20043844894736842,2.0006983,0.9317061999999999,-4.077563
123,1747679577910,-0.18139556,-1.7446432000000003,-0.23887102000000002,1.9048245210526318,0.870145205263158,-3.8959073789473684
124,1747679577920,-0.5428299417647059,-1.8517413588235296,-0.3539224894117647,1.7360742,0.5478979688235295,-3.4336422235294117
125,1747679577930,-0.67341495,-1.9545324,-0.47414219999999996,1.4703153500000001,0.20501887,-2.8781944944444446
126,1747679577940,-0.655403538,-2.07446235,-0.5308122839999999,1.01666098,-0.032091068,-2.189649425
127,1747679577950,-0.615329308125,-2.10761753125,-0.49863947374999995,0.47337651,-0.117578476,-1.4175996
128,1747679577960,-0.5344050663157894,-2.0731956052631575,-0.3561212742105263,-0.01607007157894738,0.0024599189473684217,-0.6747183763157895
129,1747679577970,-0.39350841500000006,-1.9956153277777777,-0.15355946022222222,-0.54208606,0.2584596,0.27190855
130,1747679577980,-0.12066837352941177,-1.9101427588235296,0.03019490705882353,-0.7974359823529412,0.5298511764705882,0.9851965823529412
131,1747679577990,0.1825323394736842,-1.8001855736842107,0.20068892315789474,-0.8916607421052632,0.7741032631578948,1.4336626736842104
132,1747679578000,0.3297687933333333,-1.6866660444444443,0.33959888222222223,-0.8712525,0.9263799,1.6024228
133,1747679578010,0.34637107470588235,-1.5652754352941176,0.4677464670588235,-0.8077126552941176,0.9544527352941178,1.6400203529411765
134,1747679578020,0.28573003,-1.4210232,0.5743277,-0.33116382,1.164999,1.9220019999999998
135,1747679578030,0.23409835722222225,-1.296554111111111,0.6153564444444445,0.02581785111111111,1.1223884222222222,2.0593025333333332
136,1747679578040,0.207265621875,-1.17071215,0.5857374,0.61472371625,0.92731200625,2.25822563125
137,1747679578050,0.21773853705882354,-1.0912589411764706,0.4477338105882353,1.2045703635294116,0.6418291764705882,2.4335165411764703
138,1747679578060,0.22819759199999998,-1.0408472533333333,0.25897322066666667,1.6341056,0.4052529266666667,2.56066296
139,1747679578070,0.2310612,-1.0280912,0.20092013,1.8705119000000001,0.2214556947368421,2.665107378947368
140,1747679578080,0.27910194736842103,-0.9232749263157894,-0.22096493315789473,1.9602183,0.134889,2.7166886
141,1747679578090,0.32308515294117646,-0.8635678647058824,-0.4131565905882353,1.7549357235294119,-0.0028433162352941186,2.9351303529411763
142,1747679578100,0.3318953915789474,-0.8467694789473684,-0.4984451526315789,1.456012152631579,0.06738493173684211,3.116162505263158
143,1747679578110,0.34707829631578946,-0.8361337368421052,-0.5841991736842105,0.9080181199999999,0.32467412631578946,3.427780047368421
144,1747679578120,0.4135346583333333,-0.8296726499999999,-0.5694872566666667,0.37924864435555555,0.5873893,3.7683404555555557
145,1747679578130,0.5812448052631579,-0.8067697694736842,-0.5177128568421052,-0.0051931604,0.72824085,4.015245
146,1747679578140,0.8070363,-0.74693716,-0.4233783,-0.41391800423157893,0.8473261499999999,4.2402957789473685
147,1747679578150,0.9453011210526315,-0.6919087347368421,-0.32626919052631576,-0.6606106410526316,0.8844421473684211,4.348111694736842
148,1747679578160,1.0165659157894738,-0.6552230947368421,-0.23072721368421054,-0.8133918473684211,0.8312910684210526,4.473420473684211
149,1747679578170,1.0931798444444445,-0.5988757888888889,-0.04064231066666667,-0.9152833888888888,0.6077477333333332,4.804131877777778
150,1747679578180,1.3044763684210525,-0.5982934884210527,0.14997639789473685,-0.7093884815789473,0.10590262,5.507903684210526
151,1747679578190,1.697408452631579,-0.7123324410526316,0.19896768210526317,-0.43163501315789476,-0.25909034421052635,6.187541863157895
152,1747679578200,2.3578788842105265,-0.8753113242105264,0.12253922342105264,-0.12141903263157895,-0.5071846821052631,7.018615510526316
153,1747679578210,3.1353167157894735,-0.9215537578947369,-0.04069654868421052,0.07683214,-0.55007553,7.755385400000001
154,1747679578220,3.9516055444444445,-0.8859413605555555,-0.2803607733333333,0.07683214,-0.55007553,7.755385399999999
155,1747679578230,4.792003,-0.81771374,-0.62057656,-0.13409006947368424,-0.5480570952631579,8.200441652631579
156,1747679578240,5.2601047,-0.7557233,-0.8763486,-0.6015165426315789,-0.6008717810526316,7.93810645263158
157,1747679578250,5.444612184210526,-0.6868220473684211,-1.075653505263158,-1.2500938894736842,-0.49473786947368426,7.5643670842105255
158,1747679578260,5.2752366,-0.62588483,-1.1155246,-2.1442425,-0.19214693,7.323953599999999
159,1747679578270,5.047503611111112,-0.5804088366666666,-0.9325630116666667,-2.865899438888889,0.05173925944444444,7.459360661111112
160,1747679578280,4.952926568421052,-0.5311135489473684,-0.5876673573684211,-3.6102135736842103,0.18775972421052634,7.701337563157895
161,1747679578290,4.970909526315789,-0.42801863368421056,-0.09456896421052631,-4.1017486000000005,0.011150232631578943,7.831916384210527
162,1747679578300,4.951385347368421,-0.26817394778947373,0.25615414526315794,-4.065529631578947,-0.35182434,7.744116447368421
163,1747679578310,4.830692363157895,-0.057745224947368425,0.5259530042105263,-3.826294,-0.6768419,7.584943299999999
164,1747679578320,4.6621647,0.11653733,0.65584284,-3.4114016894736836,-0.9250483368421052,7.343521052631578
165,1747679578330,4.467869052631579,0.3568437994736842,0.689368594736842,-3.0189360894736845,-1.1259346421052632,7.121273210526316
166,1747679578340,4.37076,0.53533953,0.677808,-2.6758091,-1.2904338,6.7902569999999995
167,1747679578350,4.240998631578948,0.7413495463157894,0.5866847210526316,-2.602306,-1.3032169,6.6304674
168,1747679578360,3.978804,0.9790357,0.3961659,-2.5962694888888884,-1.2106572833333336,6.089194955555556
169,1747679578370,3.733719315789474,1.1173005210526317,0.32726470421052634,-2.809864105263158,-0.9751157105263158,5.520462389473685
170,1747679578380,3.4680824210526313,1.1939601894736842,0.5114894047368421,-3.0303176210526317,-0.7571291157894737,4.859887052631579
171,1747679578390,3.1705637789473684,1.2310054789473683,0.7724507947368422,-3.0428765684210526,-0.6250364315789474,4.2018904210526316
172,1747679578400,2.285072731578947,1.2618594578947369,1.281657005263158,-2.4345549263157893,-0.45465032421052626,2.9251438631578948
173,1747679578410,1.479632347368421,1.2933299578947368,1.4841731684210526,-1.774259705263158,-0.390510222631579,2.3451919736842104
174,1747679578420,0.8670472444444445,1.348728188888889,1.5328760611111112,-0.9240422527777779,-0.41182796055555554,1.9334238722222221
175,1747679578430,0.42533076,1.3885638,1.4919829,-0.27470487,-0.47337654,1.752625
176,1747679578440,0.11406786,1.4513507210526315,1.3306739736842106,-0.19996821368421053,-0.49204668526315787,1.7349079842105264
177,1747679578450,-0.2802772684210526,1.5890760631578948,1.0256280947368421,1.1452916,-0.8281093,1.4160017
178,1747679578460,-0.6158945610526316,1.8127352526315788,0.6558428347368421,1.4187839789473684,-0.9249922157894738,1.2272818368421052
179,1747679578470,-0.848159945,1.9822329,0.3468663675,1.4908364625,-1.016128275,1.0108020475
180,1747679578480,-0.9101504599999999,2.0794232000000004,0.04188355454545453,1.1494558,-1.0963621000000001,0.8454077527272726
181,1747679578490,-0.743215325,2.1446531,-0.37066195,0.45100600375,-1.0603367625,0.63103553125
182,1747679578500,-0.46616729529411766,2.1387096941176473,-0.38751622823529414,-0.43236387,-0.8515451,0.3752391
183,1747679578510,-0.2512935513333333,2.1364527066666668,-0.20382440466666668,-0.6158732873333332,-0.7954412200000001,0.33376483733333334
184,1747679578520,0.087555535,2.1339145,0.07791527,-1.8086845,-0.43076600000000004,0.06418213
185,1747679578530,0.7433373777777779,2.0151942722222222,0.5403224072222222,-2.1550136055555558,-0.18427581527777778,-0.4269044077777778
186,1747679578540,1.095512,1.9362283,0.79837227,-2.185788,-0.041944757,-0.8285088
187,1747679578550,1.127768225,1.9260999083333334,0.8239169225,-2.185788,-0.041944757,-0.8285088000000002
188,1747679578560,1.6085203,1.7214577,1.2293773,-1.5732613,0.14021532,-2.2378526
189,1747679578570,1.5884750733333335,1.59441786,1.2790999133333332,-1.2766919133333334,0.162372808,-2.6628218266666663
190,1747679578580,1.3503076999999999,1.2753212,1.2733077,-0.46325654,0.32131013,-3.6429353
191,1747679578590,1.189096809090909,1.1153527454545455,1.1698718181818182,-0.12566479727272728,0.5226449763636364,-3.9188385818181817
192,1747679578600,1.0416566333333332,0.8422550833333333,0.9198585633333334,0.41014131111111113,1.080132961111111,-4.325769233333333
193,1747679578610,1.0886085285714286,0.7268897,0.7814277171428572,0.5721797185714286,1.4637292857142856,-4.491798
194,1747679578620,1.1786743875,0.6437010249999999,0.71124384,0.69108977625,1.8471671625000001,-4.661860375
195,1747679578630,1.3414131999999999,0.5746599333333333,0.7045458,0.8310388,2.115569155555556,-4.850470844444445
196,1747679578640,1.4640385,0.5602334,0.7349174,1.0185252,2.271808,-5.0171256
197,1747679578650,1.650785394117647,0.5612670941176471,0.7511112941176471,1.2192960705882352,2.3131652235294116,-5.132925882352941
198,1747679578660,2.133731433333333,0.6205155383333333,0.8403500666666667,1.7288785,2.3472641666666667,-5.328714916666667
199,1747679578670,2.3387396,0.66810673,0.8818399,2.0422435,2.357029,-5.363336
200,1747679578680,2.7845508666666667,0.83536731,0.9068964,2.4122451666666667,2.327201533333333,-5.2979998
201,1747679578690,3.7435045588235294,1.299726894117647,0.6579963117647059,2.9499109411764706,2.1894692588235296,-5.024958288235294
202,1747679578700,5.2832904,1.7031534222222222,0.08667422566666666,2.854270383333333,1.9222239055555557,-4.7627050055555555
203,1747679578710,7.588102263157896,1.8201082736842107,-0.5163769815789474,2.034506489473684,1.9276156263157893,-5.154039789473684
204,1747679578720,8.371563222222223,1.3047165133333332,-0.7126674999999999,1.0567563222222223,2.7965094666666666,-6.5380852222222225
205,1747679578730,7.8742512,0.47413003400000003,-0.550190445,0.43710430999999994,3.7420137733333334,-7.738163733333334
206,1747679578740,6.621944336842105,-0.13766755842105263,0.013843822368421056,0.36159392631578946,4.528765210526316,-8.500929789473684
207,1747679578750,5.370798355555555,-0.3371379755555556,0.40766372,0.8887997444444444,4.4370153777777785,-8.536283222222222
208,1747679578760,4.438608052631579,-0.4272222263157895,0.4177970842105263,1.5565393631578948,3.88983117368421,-8.118668168421053
209,1747679578770,4.006627,-0.5443697,0.2536365,2.0113509,3.4063136999999997,-7.5705624
210,1747679578780,3.888734447368421,-0.6271950263157894,0.17882652894736842,2.130884736842105,3.3618530157894737,-7.345343284210526
211,1747679578790,3.4291058722222223,-0.8668777666666667,0.16642669222222223,2.4502394,3.658781,-6.725808
212,1747679578800,3.1758044473684213,-0.9329858894736842,0.2742657442105263,2.694465221052632,3.737722673684211,-6.514886068421053
213,1747679578810,2.558635144444444,-1.0617981555555556,0.46198001666666666,3.643867388888889,3.409687005555556,-6.028001611111112
214,1747679578820,1.836084463157895,-1.1478847684210525,0.5374622178947369,4.806658684210526,2.502521563157895,-5.545440078947368
215,1747679578830,1.4026900789473684,-1.1203705894736842,0.40924225684210525,5.610932905263158,1.5216941242105262,-5.123651789473684
216,1747679578840,1.0139968,-1.0666522,0.16772833,6.0945063,0.72611034,-4.756136
217,1747679578850,0.6564658621052631,-0.9629149947368422,-0.2877595536842105,6.249362021052631,-0.2523062936842105,-4.116585357894738
218,1747679578860,0.44436726000000004,-0.8313811,-0.686472,5.9901104,-0.81745666,-3.6088470000000004
219,1747679578870,0.3330000631578947,-0.6793976105263159,-1.0524551578947368,5.267693505263158,-1.1849726389473685,-3.0722905263157894
220,1747679578880,0.30083586842105264,-0.5190905136842106,-1.3551888631578948,4.5408475263157895,-1.371786247368421,-2.6836373894736845
221,1747679578890,0.3717152342105263,-0.2627019452631579,-1.6756488315789475,2.3929396421052633,-1.248664205263158,-1.9958695894736842
222,1747679578900,0.5169935663157895,-0.20443648473684212,-1.6225728631578946,0.11400423789473683,-0.668880447368421,-1.530461447368421
223,1747679578910,0.66941374,-0.34902113842105265,-1.2773217210526315,-1.2602418831578948,-0.13030557684210525,-1.3813806578947367
224,1747679578920,0.7910312815789474,-0.6780360131578947,-0.5044052936842105,-3.058575152631579,0.5982226336842105,-1.3230715052631579
225,1747679578930,0.8349101931578948,-0.9723690684210526,0.24156207999999998,-4.250212552631578,1.2446694894736843,-1.5721750052631578
226,1747679578940,0.9407539631578948,-1.3939201263157894,1.097560810526316,-3.888751873684211,1.1994798315789474,-1.829071705263158
227,1747679578950,1.0715671833333333,-1.837140988888889,1.5874094333333335,-2.650834622222222,0.5015764444444444,-2.102682477777778
228,1747679578960,1.0901170368421051,-2.0942360368421054,1.6130096631578947,-1.0660836442105264,-0.49557886315789473,-2.349929505263158
229,1747679578970,0.9839135273684212,-2.185847484210526,1.2733334,0.33782172,-1.4832464,-2.5329306
230,1747679578980,0.7686037042105263,-2.145821931578947,0.6764464063157893,1.3644554736842105,-2.4953591315789474,-2.669844931578947
231,1747679578990,0.5011683242105264,-2.0185524999999997,0.12497979684210526,1.5405044210526315,-3.1541405526315787,-2.6883469210526316
232,1747679579000,0.29939723,-1.9154832,-0.17199935,1.2869717,-3.3581104,-2.5968463
233,1747679579010,0.07537836684210526,-1.7975136842105264,-0.4025949289473684,0.613108252631579,-3.2160939210526314,-2.302329084210526
234,1747679579020,-0.1995371361111111,-1.665460188888889,-0.4932871416666667,-0.34181647555555555,-2.6819048444444444,-1.736705188888889
235,1747679579030,-0.4659663,-1.5127888,-0.42142584999999994,-1.5690002,-1.8784592,-0.7933551
236,1747679579040,-0.5426003,-1.3761168,-0.19786942,-2.291249,-1.2851074,0.08548741
237,1747679579050,-0.4119654136842105,-1.2318147684210528,0.04659887463157895,-2.7597967000000003,-0.7106499726315789,1.0060995
238,1747679579060,-0.17409953,-1.1262278631578948,0.24605786947368422,-2.929285694736842,-0.2733872957894737,1.7046882421052634
239,1747679579070,0.030548904526315784,-1.067345757894737,0.3489215778947368,-2.9250808,-0.10266478,2.0082884
240,1747679579080,0.33014846,-0.9612194999999999,0.47426426,-2.9250808,-0.10266478,2.0082884
241,1747679579090,0.35126583263157896,-0.9439556536842105,0.47899126421052635,-2.9250808,-0.10266478,2.0082884
242,1747679579100,0.5307635,-0.79721296,0.5191708,-1.9791267000000001,-0.34661016,2.2074926
243,1747679579110,0.4007623277777778,-0.7243754588888889,0.48459599222222227,-1.4630656333333334,-0.7054856177777777,2.199917488888889
244,1747679579120,0.22346831111111115,-0.6849466333333333,0.47128132666666667,-0.9809746577777777,-0.9529818944444445,2.3571028666666667
245,1747679579130,0.03974600947368421,-0.6421724,0.4746496,-0.5310970063157894,-1.0617944894736844,2.7256031684210527
246,1747679579140,-0.10273204776315789,-0.5662834605263157,0.42046888000000004,0.24676972368421052,-1.140287594736842,3.6662310473684214
247,1747679579150,0.01932226857894737,-0.5225073105263158,0.3135975257894737,0.7091502168421053,-1.1871592368421051,4.456039936842105
248,1747679579160,0.39784221315789475,-0.5106127236842105,0.0333427152631579,1.043755152631579,-1.3602925736842106,5.35002044736842
249,1747679579170,0.8363231758823529,-0.4509962605882353,-0.21343164647058824,1.1263674588235293,-1.6418454411764707,6.045951005882352
250,1747679579180,1.375124494736842,-0.3738892731578948,-0.5049447942105263,1.0430262,-1.9594193,6.5793347
251,1747679579190,1.9421079842105262,-0.29794894,-0.7546796084210525,0.728381005263158,-2.1766210368421053,7.103948705263157
252,1747679579200,2.5256875,-0.22026166,-0.91051656,0.2099901,-2.1788635,7.643532799999999
253,1747679579210,3.1162032684210526,-0.1892792452631579,-1.0432323031578947,-0.32286600315789477,-1.8720677105263157,7.835280357894736
254,1747679579220,3.3077753842105264,-0.22622179736842105,-1.0547158736842106,-0.6000027463157895,-1.6837402894736841,7.830514710526315
255,1747679579230,3.784303431578947,-0.4268368589473684,-0.7786229105263158,-1.7808755052631582,-0.8803633,7.773046526315789
256,1747679579240,3.822119444444444,-0.4100297288888889,-0.45396681555555557,-2.252070888888889,-1.1422437666666667,8.285531333333331
257,1747679579250,4.0442114,-0.35498127,-0.37310252,-2.35623,-1.7250612999999997,8.811062
258,1747679579260,4.6222418,-0.3475824742105263,-0.48315952210526314,-2.474306210526316,-2.2942484894736843,9.241988631578947
259,1747679579270,5.213271705263158,-0.3208903347368421,-0.6769409252631579,-2.9859129263157898,-2.2710369894736844,9.186763421052632
260,1747679579280,5.462672,-0.2715137,-0.73821217,-3.5226936,-1.8678067,8.852607
261,1747679579290,5.213462694444445,-0.10156848811111112,-0.47305752277777774,-4.195466811111111,-1.1782851833333332,8.29150913888889
262,1747679579300,4.9052453,-0.016229806,-0.24521651999999997,-4.553869,-0.9101346,8.0078535
263,1747679579310,4.55722,0.14387175,0.1696808,-4.9032755,-0.9090693599999999,7.75432
264,1747679579320,4.5210996,0.2805438,0.68952274,-4.873448,-1.3394358,7.2866697
265,1747679579330,4.420650536842105,0.4368946163157894,1.1118444884210528,-4.715284326315789,-1.4952446736842104,7.051975284210526
266,1747679579340,4.218185657894737,0.6875028568421053,1.543260594736842,-3.6332007210526314,-2.0324740736842104,5.897229578947368
267,1747679579350,3.9059123000000002,0.9820727666666667,2.0527723,-2.3532709444444446,-2.246093611111111,4.861656
268,1747679579360,3.610919989473684,1.1538063,2.409818031578947,-0.9327013678947369,-2.3383727210526315,3.9008132473684207
269,1747679579370,3.1890094578947368,1.2115322105263158,2.4247954,0.4501229500000001,-2.3175160894736844,3.1042203842105263
270,1747679579380,2.5968235789473684,1.1903121368421052,2.0847851315789474,2.020545815789474,-2.223885089473684,2.252009410526316
271,1747679579390,1.9826728052631581,1.157300247368421,1.4517521526315789,3.0126987,-2.1053605,1.7025576000000002
272,1747679579400,1.5675187,1.1396253,0.9638431,3.4270864,-1.8997645,1.3680649
273,1747679579410,0.9543926388888888,1.1400863777777779,0.21794990055555555,3.2731557444444443,-1.4238876555555557,1.1185564666666667
274,1747679579420,0.7125476368421053,1.1539861315789472,-0.03401708842105263,2.9823666578947368,-1.1385495315789473,1.0567836052631578
275,1747679579430,0.22295307777777781,1.1959482499999998,-0.3015666233333334,2.1047390000000004,-0.5461695333333334,0.9767579833333334
276,1747679579440,-0.1450122476923077,1.2518916076923077,-0.27934698153846155,1.305081146153846,-0.11036745846153846,0.928848416923077
277,1747679579450,-0.4871274929411765,1.2983486529411765,-0.022033342941176474,0.5073866521176471,0.22368186764705883,0.8972182994117647
278,1747679579460,-0.7648208263157895,1.3837852894736842,0.3346891947368421,-0.05890487494736842,0.47610977894736844,0.8162022010526315
279,1747679579470,-0.8587357916666667,1.4743904500000002,0.5681449333333334,-0.07461283833333333,0.5265509733333333,0.7301494433333333
280,1747679579480,-0.813298302631579,1.521356547368421,0.827016847368421,0.21980173421052632,0.5013396842105263,0.5831337157894737
281,1747679579490,-0.6962535357894737,1.5168093736842105,0.8850767684210527,0.5413431368421053,0.4421895478947368,0.44935903631578944
282,1747679579500,-0.41918438315789475,1.5306049684210528,0.7928231605263157,1.2082542052631577,0.21041059521052632,0.05543576105263159
283,1747679579510,-0.2633988,1.5227952,0.64608055,1.599990936842105,0.047088859894736844,-0.27614155842105265
284,1747679579520,-0.18139556,1.5330456,0.49720562000000007,1.7887107999999998,-0.018508956,-0.49614653000000003
285,1747679579530,-0.08670134,1.607239,0.21556357,1.9761972000000003,-0.10159952,-0.8444877
286,1747679579540,0.1203105947368421,1.6447980842105263,-0.14648893736842106,1.9761971999999999,-0.10159952,-0.8444876999999998
287,1747679579550,0.3666285778947368,1.6077014315789473,-0.48092444473684215,1.5465035578947368,-0.41826316631578947,-1.415917594736842
288,1747679579560,0.44457275368421056,1.5823451736842107,-0.5808594721052632,0.6720341894736842,-0.5162113600000001,-1.8738127842105263
289,1747679579570,0.7814102833333333,1.4119118333333334,-0.9329699,-0.7404026083333334,-0.20084658333333333,-2.2746042666666666
290,1747679579580,0.9393153263157894,1.2846724157894736,-0.7106465631578947,-1.717520357894737,0.25133914736842106,-2.545321252631579
291,1747679579590,1.0154868842105262,1.1814233421052631,-0.3924986294736842,-2.4144832631578947,0.7087858,-2.8546401631578946
292,1747679579600,1.090194052631579,1.0757337147368422,0.05428026315789474,-2.772748,1.0552768,-3.1103034
293,1747679579610,1.263217805263158,0.970301032631579,0.5564730157894736,-2.6200229315789474,1.1773335789473685,-3.5886068631578945
294,1747679579620,1.4625741,0.9341291,0.9350443,-2.2869878,1.031841,-3.8922070999999994
295,1747679579630,1.5824189684210528,0.9275780789473685,1.089185642105263,-1.7200433789473686,0.7133832315789475,-4.095840531578947
296,1747679579640,1.822931094736842,0.92213178,1.249595610526316,-0.6701419557894738,0.15512902421052632,-4.50944325263158
297,1747679579650,2.0848284,0.9988042974999999,1.03977529375,0.12769848,-0.202533255,-4.758
298,1747679579660,2.408621383333333,1.1166025,0.6730895333333334,0.6300590383333334,-0.3666726216666667,-4.896928333333333
299,1747679579670,3.148418826315789,1.3278063736842105,0.14206379578947367,0.36596710947368427,-0.11466301894736844,-4.872754210526316
300,1747679579680,3.7087144,1.4573879333333335,-0.029307206666666665,-0.29944265555555555,0.42357544444444445,-4.844493444444445
301,1747679579690,4.523694263157895,1.5251073421052632,-0.0016987678947368418,-1.4882083473684211,1.5302722210526316,-4.924559684210527
302,1747679579700,5.930388642105264,1.502731063157895,0.3260058884210526,-1.8417077,1.9777951,-5.044822
303,1747679579710,6.586713882352941,1.3631243529411763,0.6783248294117648,-2.0565149470588238,2.8399066470588235,-5.3563176529411765
304,1747679579720,7.298037166666666,1.060876138888889,1.052218938888889,-1.7319854833333332,3.4755559000000003,-5.590947416666667
305,1747679579730,7.654793999999999,0.8091718,1.1576246,-1.1620694,3.8377453999999998,-5.908751
306,1747679579740,7.628153747368421,0.3409929184210526,1.0772655105263158,-0.5323304473684211,3.8508649999999998,-6.507877621052631
307,1747679579750,6.45674806875,-0.540525778125,0.8211610625,0.6611292437499999,3.7999950124999997,-7.7551192250000005
308,1747679579760,5.098484811111111,-0.7539877444444444,0.6420129355555555,1.5148197155555556,3.6664746666666668,-8.166400222222222
309,1747679579770,4.275192731578947,-0.6779846157894737,0.5049640931578947,2.0346184789473685,3.5312297368421057,-8.045670242105263
310,1747679579780,3.254416805263158,-0.5851400999999999,0.1871758514736842,2.819437457894737,3.1717312842105265,-7.337213736842105
311,1747679579790,2.896979977777778,-0.6692185333333334,-0.06841060122222223,3.259543877777778,2.8564008666666663,-6.696158627777778
312,1747679579800,2.7546132,-0.75084215,-0.24228783000000004,3.3631704,2.7075007,-6.499972299999999
313,1747679579810,2.470693211111111,-0.7766037166666666,-0.3899424605555556,3.321625144444445,2.6149410777777775,-6.371193911111111
314,1747679579820,2.0797564210526316,-0.823648205263158,-0.4437249878947368,3.163685889473684,2.581351015789474,-6.204221484210526
315,1747679579830,1.6617248,-0.9041101000000001,-0.37944803,3.0201557,2.5732775,-5.996103
316,1747679579840,1.4134286631578947,-0.9340905815789473,-0.31894749631578945,2.9753584631578947,2.5475429894736843,-5.839789521052631
317,1747679579850,1.0647608,-0.9729342500000001,-0.21397719,2.9751341684210524,2.490018789473684,-5.458088363157895
318,1747679579860,0.7389172088888889,-1.0154543833333334,-0.11288325222222222,3.1094601666666666,2.2748260333333334,-4.959423733333334
319,1747679579870,0.5498542133333334,-1.0523341555555554,-0.14108542333333332,3.253448233333333,1.8488981333333332,-4.542017866666666
320,1747679579880,0.39799634,-1.1071657,-0.28231323,3.2944329,1.046362194736842,-4.000247184210526
321,1747679579890,0.4095055673684211,-1.1260737105263157,-0.29829255315789477,2.9687426842105262,0.44863718421052634,-3.6130519315789478
322,1747679579900,0.507334,-1.2867918,-0.4341168,2.4864585,0.3990744,-3.4586446
323,1747679579910,0.49122621526315785,-1.390657489473684,-0.3623126115789474,2.2138631947368417,0.5287001494736842,-3.4386289947368422
324,1747679579920,0.44729592999999995,-1.6026019,-0.3116001,1.8835193,0.59934396,-3.3595753
325,1747679579930,0.4353242657894737,-1.784463042105263,-0.37392460052631576,1.6003834210526315,0.32607579842105266,-3.180274489473684
326,1747679579940,0.4419267,-2.1009667,-0.5375971,1.1197252,-0.09733847,-2.8887286
327,1747679579950,0.42093772,-2.1317182,-0.5683483,0.6552703,-0.25819328,-2.6447833
328,1747679579960,0.31073233333333333,-2.1039500222222225,-0.5739887444444445,0.06535096577777777,-0.21084823111111112,-2.327571477777778
329,1747679579970,0.08645085842105263,-1.982123747368421,-0.47075111157894733,-0.7346745011578948,0.014289949894736843,-1.7636980684210526
330,1747679579980,-0.03832662,-1.8375647473684211,-0.27291059631578946,-1.3506771936842106,0.18787186115789475,-1.111532562631579
331,1747679579990,-0.08184587842105263,-1.7316952947368422,-0.09166597473684211,-1.8162535000000002,0.3056675905263158,-0.37465041131578947
332,1747679580000,-0.05416994294117647,-1.5842258058823528,0.12437228941176469,-1.9531216764705883,0.3584690329411765,0.08580071852941176
333,1747679580010,-0.02080588,-1.4483577,0.28878075,-1.9258635,0.38948703,0.4956139
334,1747679580020,,,,,,
335,1747679580030,0.10805635,-1.0861768,0.51136094,-1.2803137,0.30000487,1.1965574
336,1747679580040,0.20714359,-0.91826534,0.4898839,-0.7977493,0.10719215,1.4223933
337,1747679580050,0.2432640633333333,-0.831381,0.4300085333333333,-0.31926839166666665,-0.14935884166666666,1.5324704666666669
338,1747679580060,0.3095662866666667,-0.72245009,0.31554568166666663,0.117312156,-0.3892206999999999,1.6482291
339,1747679580070,0.34332752,-0.6781130400000001,0.24192174,0.3942806882857143,-0.5524343071428571,1.7154929571428572
340,1747679580080,0.28685644846153846,-0.64875108,0.07093148461538462,0.7551592338461539,-0.7754197538461539,1.8580042384615385
341,1747679580090,0.194513627,-0.6487041375,-0.0537536085,0.918057524375,-0.88596645,2.0828567687499997
342,1747679580100,0.040208431866666665,-0.6730149777777777,-0.22070232222222222,0.8723473500000001,-0.8778216111111111,2.676918722222222
343,1747679580110,0.005691763314285714,-0.6908737357142857,-0.3016983342857143,0.8054724999999999,-0.86006725,3.021354
344,1747679580120,0.062173583,-0.71179295,-0.40043694,0.54128706,-0.80893457,3.8149755000000005
345,1747679580130,0.3493941014285714,-0.7274126528571428,-0.49785063714285716,0.13260631,-0.648155862142857,4.722275592857143
346,1747679580140,0.7648632,-0.75562564,-0.53164208,-0.365678386,-0.46464136599999994,5.65468556
347,1747679580150,1.168241,-0.7981892,-0.5312516,-0.71678925,-0.44674495,6.298105
348,1747679580160,1.7515378000000001,-0.79282,-0.46584427,-1.1524822,-0.5564671,7.296257
349,1747679580170,2.2816303,-0.71765035,-0.3589472,-1.301619,-0.6757766,7.8224974
350,1747679580180,2.814651233333333,-0.6649339833333333,-0.23236284000000004,-1.3740569333333335,-0.7531857999999999,8.345896466666666
351,1747679580190,4.06851976,-0.55143108,-0.0007036993333333336,-1.24963412,-0.82143368,9.0461302
352,1747679580200,4.780888992307692,-0.36729677461538457,0.022533056538461542,-0.9103394538461539,-0.9449605307692308,8.954380961538462
353,1747679580210,5.3792048,-0.11141214,-0.044113345,-0.53163311125,-1.1334404687500002,8.5882218125
354,1747679580220,5.240719785714286,0.13501595428571428,-0.25344474285714286,-0.3192937514285714,-1.307934542857143,7.964937857142858
355,1747679580230,4.917518142857143,0.28828391999999997,-0.3807031757142857,-0.32675059142857144,-1.3691110857142859,7.6824911
356,1747679580240,4.645569,0.4108704,-0.49366682999999995,-0.48562706,-1.4257222,7.6222277
357,1747679580250,4.413295714285715,0.4246073028571429,-0.6233657785714285,-0.9036669714285714,-1.4085258142857142,7.644750057142857
358,1747679580260,4.258494,0.41916832,-0.68110275,-1.321859,-1.3564801,7.690404400000001
359,1747679580270,4.145739,0.45528883,-0.70599663,-1.757990576470588,-1.2702563823529411,7.76158934117647
360,1747679580280,4.05495,0.5187437,-0.7264974,-2.4446468,-1.0986863,7.8565855
361,1747679580290,4.046530199999999,0.5615757125,-0.6920853375,-3.1101703250000003,-0.9940241,7.861379125
362,1747679580300,4.070189938888889,0.6132752061111111,-0.45480746166666663,-3.841325861111111,-0.8952800861111112,7.720646211111112
363,1747679580310,4.042287747058824,0.6806828500000001,-0.08649317235294117,-4.576991323529412,-0.7662613764705883,7.1404150294117645
364,1747679580320,3.9949121,0.7896472,0.18139556,-4.831338470588235,-0.7555460970588235,6.4696125
365,1747679580330,3.6639701999999996,0.9263193,0.55285066,-4.8990145,-0.7386272,5.59077
366,1747679580340,3.1882129947368423,0.9537307368421053,0.985654132631579,-4.7903575789473685,-0.7352632100000001,5.3568044684210525
367,1747679580350,2.67326075,0.9753747416666667,1.4274706000000001,-4.105274555555556,-0.7296316377777778,4.032170933333333
368,1747679580360,2.1446135470588232,0.9995077647058823,1.7494203,-3.189015670588235,-0.8392005705882353,3.388869888235294
369,1747679580370,1.6002223,1.014668,1.8697834999999998,-2.0430424,-1.0166609,2.9286761
370,1747679580380,1.2159478789473683,1.019754705263158,1.7657381,-1.2060816421052631,-1.1521175736842106,2.7124835947368418
371,1747679580390,0.9678971833333334,0.9943841999999999,1.5660679499999999,-0.28979608846666666,-1.3306177833333335,2.5196147277777774
372,1747679580400,0.6213358666666667,0.9658565888888889,1.1913044611111112,0.4086617626,-1.4646043,2.3598252499999997
373,1747679580410,0.3700111361111111,0.9626024655555556,0.8860701661111112,0.8884446622222222,-1.5252059833333333,2.22134105
374,1747679580420,-0.22912801736842106,1.1241084210526315,0.3154472305263158,0.8830124631578947,-1.3459396052631578,2.0417039736842106
375,1747679580430,-0.5653875242105264,1.2974917631578948,0.1599185147368421,0.4404234505263157,-1.1614807736842103,1.9950566263157894
376,1747679580440,-0.7618921031578947,1.4282037368421054,0.28816417052631577,-0.019994716842105267,-0.9414758105263159,2.016081578947368
377,1747679580450,-0.8428449422222222,1.5671051222222223,0.7465236777777777,-0.34110628833333334,-0.5396004066666668,2.0835669333333335
378,1747679580460,-0.8174087,1.6726463,1.1493267,-0.32157648,-0.23156169000000001,2.1350546
379,1747679580470,-0.4675847847368421,1.8084706631578948,1.6275503894736842,0.1568951142105263,-0.04760747263157895,2.1236170894736843
380,1747679580480,0.07684270421052632,1.9435242631578946,1.9477791578947368,1.2190189505263158,-0.0587647052631579,1.7715755263157893
381,1747679580490,0.6531261315789474,2.055276789473684,2.025569157894737,2.096964336842105,-0.14235986421052632,1.3214736
382,1747679580500,0.9713410722222222,2.1173457222222223,1.6152318666666667,3.3531687111111115,-0.3907002411111111,0.32594107777777775
383,1747679580510,0.9628990289473683,2.1494057473684207,0.9525907668421053,3.9180044368421054,-0.6489207631578948,-0.5834420936842105
384,1747679580520,0.84266865,2.1641777,0.10769027,3.866647621052632,-0.8030475789473684,-1.5817623
385,1747679580530,0.8642484657894738,2.0948653894736844,-0.33305141789473686,2.8822318736842107,-0.5134080021052633,-2.0398256157894736
386,1747679580540,0.9167265083333334,1.9932561666666666,-0.8501801561111111,1.8382455049999997,-0.11757847499999999,-2.2850792
387,1747679580550,1.0989544736842107,1.8485474526315788,-0.8485003452631579,0.4131751078947368,0.47891310263157894,-2.5575999578947366
388,1747679580560,1.2707450631578947,1.7055555157894735,-0.586588402631579,-0.6076838473684211,0.9637762631578947,-2.8146088315789473
389,1747679580570,1.4288942,1.5247476,-0.12416412999999998,-1.3474253,1.4259886,-3.1870024
390,1747679580580,1.6123224105263159,1.3496172684210526,0.42262687631578943,-1.5323326000000002,1.678568157894737,-3.6473644578947364
391,1747679580590,1.7037027000000002,1.270928,0.6602358,-1.4528865,1.7231970999999997,-3.8772933
392,1747679580600,1.9076317842105264,1.151160210526316,0.9400539473684212,-0.9121249736842106,1.6248004157894738,-4.290223089473684
393,1747679580610,2.271790915789474,1.0243789736842104,1.1517415263157893,0.016728849999999993,1.4059728263157896,-4.768694752631578
394,1747679580620,2.799082878947368,0.9914954610526315,1.1890436842105263,1.1752870921052632,1.104783554736842,-5.201528205263157
395,1747679580630,3.42238075,1.01051905,1.0254810166666666,2.168181244444445,0.8166577577777778,-5.528807088888889
396,1747679580640,4.225969947368421,1.0760932842105262,0.5887656052631579,2.7248531684210526,0.47661438157894737,-5.820054
397,1747679580650,4.960890736842106,1.1271398368421053,0.11557716315789475,2.828800468421053,0.11061221315789474,-6.195307105263158
398,1747679580660,5.898841368421053,1.1169664894736844,-0.5859204410526315,2.222721594736842,-0.08618123684210528,-6.811477842105264
399,1747679580670,6.386724578947368,1.030030695263158,-0.9100798631578947,1.3406833636842106,0.19673035894736843,-7.247955815789474
400,1747679580680,6.780093,0.82820827,-1.014485,0.46245756999999993,0.73676294,-7.6067815
401,1747679580690,6.984613,0.4396691,-0.9295530300000001,-0.04034686,1.2129358,-7.8219647
402,1747679580700,6.958794447368422,-0.03046220263157896,-0.8020010036842106,-0.5054184968421053,1.6359575894736842,-8.20714125263158
403,1747679580710,6.452491447368421,-0.5438045300000001,-0.5168907489473685,-0.7515505473684211,1.7225243263157894,-8.767020894736842
404,1747679580720,5.527694205263157,-0.5972402252631579,-0.24745157368421056,-0.6763653421052631,1.6133628315789474,-9.077405210526315
405,1747679580730,4.512981110526315,-0.4852307568421053,-0.07111378589473685,-0.5439922857894737,1.8314616105263157,-9.023133763157896
406,1747679580740,3.9902478444444447,-0.4510855899999999,0.06142785155555555,-0.3059526003333334,2.191558066666667,-8.650917666666667
407,1747679580750,3.6442659684210525,-0.43302820000000003,0.2526602557894737,0.13295471178947368,2.299336605263158,-8.25933952631579
408,1747679580760,3.4373226,-0.42526976222222224,0.3589607444444444,0.6137249888888889,2.184278827777778,-8.001698666666666
409,1747679580770,3.1694846631578946,-0.4715635747368421,0.3984780315789474,1.0837304789473685,2.0146308736842102,-7.824767747368421
410,1747679580780,2.942537,-0.51508284,0.404952,1.5622021210526316,1.8188465157894735,-7.5965772631578945
411,1747679580790,2.7185955578947367,-0.5412097621052631,0.3704500084210527,1.9232143684210528,1.6601222315789474,-7.343661142105263
412,1747679580800,2.3211675,-0.54339343,0.21409921,2.33093,1.4451632,-6.9601665
413,1747679580810,2.0164483555555552,-0.5046697627777778,0.06104820716666667,2.440592938888889,1.2992813833333332,-6.665384138888888
414,1747679580820,1.6570605,-0.43774381111111116,-0.11196126144444445,2.3864421888888887,1.2035852555555555,-6.234248177777777
415,1747679580830,1.3889230111111113,-0.3836173222222222,-0.22241072722222224,2.0720709333333334,1.2723538555555556,-5.670782983333333
416,1747679580840,1.0212643333333333,-0.35172716388888886,-0.33410758333333335,1.6496938666666667,1.3995344,-5.0789107499999995
417,1747679580850,0.8831534176470588,-0.3798176711764706,-0.31306444,1.2644758058823529,1.5122748705882352,-4.711081476470588
418,1747679580860,0.7154605694444445,-0.4257849838888889,-0.19762535444444446,0.9149578777777777,1.606728288888889,-4.403296722222222
419,1747679580870,0.5266755512500001,-0.49751070124999996,-0.073827316,0.70773455,1.6804533125,-4.171439100000001
420,1747679580880,0.33829224315789475,-0.5772532121052631,0.06707400010526317,0.623144192631579,1.7068817684210529,-3.9504040736842105
421,1747679580890,0.155566154,-0.6825061016666667,0.21540085833333333,0.7161678916666667,1.6312292833333333,-3.6740055666666667
422,1747679580900,0.090484224,-0.79721296,0.3073291,0.90880305,1.4749907,-3.4778194
423,1747679580910,0.07757629966666667,-0.9613279755555555,0.3663367138888889,1.1140439083333333,1.3029506055555558,-3.3651383
424,1747679580920,0.07681701,-0.9709818,0.36980775,1.6844925722222222,0.7103088833333334,-3.1653421166666664
425,1747679580930,0.02128043488888889,-1.441741,0.24051163444444443,2.170903711111111,-0.08337167777777778,-2.9551301444444444
426,1747679580940,-0.016438540052631578,-1.6244642263157894,-0.03316931157894737,2.3756149578947365,-0.8906234526315788,-2.6290286263157894
427,1747679580950,0.008969104,-1.7666084,-0.49415493,2.1673278947368417,-2.1465692421052633,-1.7441870263157895
428,1747679580960,0.19717577642105263,-1.7986698105263157,-0.7056369521052632,1.380042067368421,-2.2913330736842106,-1.061969725263158
429,1747679580970,0.675322452631579,-1.8763056894736843,-1.174792047368421,-0.008445001052631573,-1.8856918105263158,-0.364502372631579
430,1747679580980,1.147560347368421,-1.9454638052631579,-1.168575036842105,-1.4943195736842105,-1.1686012631578946,0.06552773052631579
431,1747679580990,1.3622536631578948,-2.020941794736842,-0.9068685631578947,-2.815751184210526,-0.3145961968421053,0.26512449578947367
432,1747679581000,1.3752016,-2.0770493,-0.5659077,-4.0308247,0.72184926,0.31558436
433,1747679581010,1.1087938842105263,-2.0779228315789475,-0.01649634052631579,-4.642734242105264,1.534869732631579,0.3460845431578948
434,1747679581020,0.7505177621052631,-1.9961763789473683,0.5202754205263158,-4.728067705263158,2.0222557473684213,0.4573765684210526
435,1747679581030,0.42736026736842103,-1.8272117684210525,0.9698802657894736,-4.204854778947368,2.1275488000000005,0.7553139578947369
436,1747679581040,0.23565975157894736,-1.5859803736842106,1.2941937631578948,-2.8550537052631584,1.675764863157895,1.303980852631579
437,1747679581050,0.29261499789473683,-1.2949356736842106,1.3749381894736843,-1.013941752631579,0.8083599047368422,1.782900957894737
438,1747679581060,0.45412952,-1.1349883,1.2396278,0.7635347052631578,-0.04340248389473684,2.0823521789473687
439,1747679581070,0.5869994031578948,-1.086562147368421,0.8967145189473684,2.199734321052632,-0.7249469421052632,2.0867252684210524
440,1747679581080,0.7067416094736843,-1.0449439694736842,0.36520916926315783,3.1907658368421052,-1.3051231315789473,1.9416252263157896
441,1747679581090,0.6567483863157895,-0.9649188684210526,-0.10574422631578946,3.681347836842105,-1.7233792368421053,1.7378234631578948
442,1747679581100,0.43532427736842105,-0.8869232894736843,-0.44169545578947367,3.7383114157894735,-1.8077593578947369,1.671272552631579
443,1747679581110,0.07347729842105263,-0.7548497947368421,-0.8754494031578947,3.4677346263157895,-1.6699479578947367,1.8482184368421053
444,1747679581120,-0.23850495,-0.5809783,-1.1960635,2.464088,-1.1924295,2.597379
445,1747679581130,-0.2890633184210526,-0.5174720263157894,-1.2497047631578946,1.9250646105263156,-0.9771901842105263,3.0580775263157896
446,1747679581140,-0.1700661489473684,-0.44548796,-1.2119915157894736,0.4321816778947369,-0.37839987105263156,4.416793426315789
447,1747679581150,0.13395209736842106,-0.4286865505263158,-1.1076891368421051,-0.3800538147368421,-0.0728934707894737,5.2211796368421055
448,1747679581160,1.0026417236842107,-0.4061305210526316,-0.7673705768421053,-1.7949481473684212,0.38774894868421056,6.598509289473684
449,1747679581170,1.8393985,-0.3993997,-0.33991072,-2.7652912,0.63449764,7.54979
450,1747679581180,2.4720718157894734,-0.2029464447368421,0.12891039421052633,-2.9222774736842103,0.47358680052631574,8.087243315789474
451,1747679581190,2.9973088263157894,0.04856096842105263,0.5040905978947369,-2.733501494736842,0.14705543368421053,8.560164789473685
452,1747679581200,3.7723317000000005,0.3010446,0.7773833,-2.1612868,-0.3050649,8.876043
453,1747679581210,4.429436573684211,0.47445369157894735,0.9179602684210526,-1.2671380315789473,-0.8066358473684211,8.764022368421053
454,1747679581220,5.016664021052631,0.6531036505263158,0.8746722605263159,-0.1619551057894737,-1.4076127578947368,8.282130805263158
455,1747679581230,5.105963410526316,0.7220048368421054,0.7021879868421053,0.56578815,-1.8209350000000002,7.9354153
456,1747679581240,4.834032515789474,0.819062494736842,0.20138254947368422,1.4989591,-2.2843246,7.6701646
457,1747679581250,4.608634533333333,0.8692099,-0.29646852333333334,1.6608791666666667,-2.2630193999999997,7.834214866666667
458,1747679581260,4.450411563636363,0.8961005745454546,-1.0596577454545455,1.1239862836363637,-1.9176802727272728,8.374884727272727
459,1747679581270,4.581207028571429,0.8561702285714287,-1.6743461142857143,-0.22296348714285713,-1.4357661142857143,8.814105428571429
460,1747679581280,4.68530086,0.8298190569999999,-1.7280108200000002,-0.995462235,-1.16867412,8.9211033
461,1747679581290,4.70550931,0.752940997,-1.46501468,-2.8624432499999997,-0.5320725599999999,8.8012614
462,1747679581300,4.626344507692307,0.6880442907692307,-0.9535833384615384,-3.9652697153846153,-0.26704315384615385,8.488123
463,1747679581310,4.556174214285714,0.6847723,-0.5235812285714286,-4.573652485714285,-0.25256258857142855,8.092922185714285
464,1747679581320,4.30272940625,0.7226230250000001,-0.0009152150000000005,-4.852143,-0.39135122,7.5934653
465,1747679581330,3.977828,0.8008739,0.47133556,-4.852143,-0.39135122,7.5934653
466,1747679581340,3.700091,0.88775826,0.75785875,-4.4590607,-0.9229178,6.646446
467,1747679581350,3.37159,0.9902623,0.95798576,-3.6995275,-1.384177,5.991309
468,1747679581360,3.0982456,1.0297996,1.0468225,-2.9730177,-1.6291876,5.412871
469,1747679581370,3.0982456,1.0297996,1.0468225,-2.485431242857143,-1.675450457142857,4.988591571428572
470,1747679581380,2.1568627333333334,1.0194135666666666,0.9171468105555556,-1.6197185388888888,-1.6852914833333335,4.197700838888888
471,1747679581390,1.4088814,0.9961197,0.8110632299999999,-1.1663306,-1.6196002,3.7638428000000004
472,1747679581400,0.9568874,0.9829406,0.77445465,-0.9468862400000001,-1.5397054000000001,3.5859437
473,1747679581410,0.3885003172727273,0.9562717545454545,0.7701504045454546,-0.7093324336363636,-1.3771074545454545,3.491910081818182
474,1747679581420,0.09227397666666666,0.9665615888888889,0.7881761111111111,-0.58150077,-1.29576,3.4890049
475,1747679581430,-0.07303413,1.0346807,0.7690854,-0.4898881299999999,-1.2073432,3.478352
476,1747679581440,-0.18847320833333336,1.1617531583333334,0.6997324166666666,-0.49477057166666666,-1.1067646083333333,3.4549162250000003
477,1747679581450,-0.25607708,1.2937474,0.66450685,-0.57723970375,-0.94848414,3.3586429625
478,1747679581460,-0.31936925666666666,1.5122193333333334,0.7598654888888889,-0.6590874916666666,-0.8339682683333334,3.171201
479,1747679581470,-0.35286730235294117,1.8545407588235294,0.9734043911764706,-0.6405289358823529,-0.8228456617647059,3.0504293529411766
480,1747679581480,-0.36443847,2.1099968,1.0780619,-0.39614493,-0.879242,2.4056315
481,1747679581490,-0.016622032142857148,2.487100207142857,1.0474501485714285,-0.2304964242857143,-0.9632456307142857,1.9192627428571427
482,1747679581500,0.5643214,2.683165325,0.750659065,-0.34021858250000003,-0.91040095,0.9297088
483,1747679581510,0.6508397,2.7040322,0.6885465,-0.44260681,-0.8891571384615384,0.643521636923077
484,1747679581520,0.7847661125,2.67791815,0.50831023625,-0.75087774,-0.8323704,0.09187899
485,1747679581530,0.8548715,2.5263586,0.31757948,-0.75087774,-0.8323704,0.09187898999999998
486,1747679581540,0.7998447486666667,2.3280213733333333,0.4021534553333333,-2.392449,-0.0014647375,-1.3270522
487,1747679581550,0.78458303,2.076805,0.64705676,-3.0316072,0.64408505,-1.7041556
488,1747679581560,0.8614482347368422,1.8994910631578945,0.9169584589473684,-3.2087213210526313,1.0179925210526317,-1.8819985421052632
489,1747679581570,1.0344976,1.6742734444444443,1.2810632444444443,-3.2258403555555555,1.6388045222222223,-2.2449542777777776
490,1747679581580,1.3163966368421054,1.425480642105263,1.7011528842105264,-2.290856505263158,2.142126052631579,-2.9391324052631576
491,1747679581590,1.5409978111111111,1.2274316666666667,1.8806306666666666,-1.2520842283333335,2.335191083333333,-3.4895373166666666
492,1747679581600,1.6324379,1.114121325,1.7726488750000002,-0.1673795525,2.342647925,-3.92336605
493,1747679581610,1.7188343,1.0566459,1.5910702,0.7398404055555555,2.289799038888889,-4.236524194444445
494,1747679581620,2.0392685263157895,1.0190866894736843,1.0472849157894737,1.7875334157894738,2.239177105263158,-4.575321410526316
495,1747679581630,2.2670894684210525,1.0236082421052632,0.6755729105263159,2.1221383,2.2696774,-4.7188516
496,1747679581640,2.6906703,1.1493876,0.1257505,2.233991,2.4497068,-4.853075
497,1747679581650,3.135830521052631,1.324440810526316,-0.14412543105263156,2.0567648157894736,2.564531242105263,-4.860083263157895
498,1747679581660,3.8909435000000006,1.5345099,-0.36773324,1.5319823,2.656368,-4.947883
499,1747679581670,4.876935,1.6794798,-0.40043694,1.034448089473684,2.710864610526316,-5.2405504
500,1747679581680,5.591842926315789,1.7271609736842104,-0.2547476064736842,0.7466026526315789,2.833426105263158,-5.596460563157894
501,1747679581690,6.629610635294118,1.6412921470588235,0.054916471470588236,0.49861387176470595,3.389833476470588,-6.24857005882353
502,1747679581700,7.324113280000001,1.3856675266666667,0.28054788199999997,0.69788086,3.7216318,-6.280528
503,1747679581710,8.17091953846154,1.0148933,0.08471133384615384,1.5451751476923077,3.2206300076923076,-6.669021576923077
504,1747679581720,8.074367894736843,0.6080943026315789,-0.3331285131578947,2.0610258368421053,2.4120863315789474,-7.450916368421052
505,1747679581730,7.1138551111111115,0.007742036666666668,-0.9915978322222221,2.1594226,1.7476982,-8.384424
506,1747679581740,5.859698816666667,-0.2767744733333333,-1.3730864111111112,1.614717777777778,1.7701870277777776,-8.969194388888889
507,1747679581750,4.4107857,-0.2085469,-1.3786184,0.5359608,2.4560986,-8.779636
508,1747679581760,4.0949755,-0.23148829,-1.2111951,0.037417386,2.8289409,-8.356727
509,1747679581770,3.9608212368421056,-0.3692393594736842,-0.9119552684210527,-0.3377796784210526,3.211987236842105,-7.925014894736843
510,1747679581780,3.7314927499999992,-0.4741625283333334,-0.3486968,-0.4788803966666666,3.6728070833333337,-7.432610666666666
511,1747679581790,3.456738722222222,-0.4775522333333333,0.1164220827777778,-0.03750615666666667,3.793004383333334,-7.201625966666667
512,1747679581800,3.1135315684210525,-0.5118458415789474,0.5408790231578947,1.0590612821052632,3.6261504473684205,-6.935609210526316
513,1747679581810,2.9376562,-0.56291807,0.69733256,1.8967758555555554,3.311150122222222,-6.750131966666666
514,1747679581820,2.7670214526315786,-0.7049593399999999,0.6737745710526316,3.2012505789473686,2.6189717315789474,-6.429216484210526
515,1747679581830,2.5805732333333333,-0.8874056977777777,0.28243523555555555,4.090390277777778,1.9470208777777778,-6.239929555555555
516,1747679581840,2.3948727,-0.9412068,-0.01824328,4.4540005,1.4962959,-6.170806
517,1747679581850,2.0907773444444446,-0.984947261111111,-0.4434181188888889,4.4941253055555554,0.9616519633333334,-6.081501177777778
518,1747679581860,1.9116395000000002,-1.0178407,-0.68159086,4.2047286,0.6334324,-5.9950376
519,1747679581870,1.6680702,-1.1803828,-0.99691284,3.4601095,0.44381547,-5.8906417
520,1747679581880,1.5548277333333334,-1.4335516000000001,-1.0691538133333334,2.590735944444445,0.5038252972222222,-5.85602075
521,1747679581890,1.2664094647058823,-1.861359994117647,-1.0003871188235294,1.402897411764706,0.7459116911764706,-5.846464705882353
522,1747679581900,0.7588671447368421,-2.2326548526315793,-0.7869979505263158,0.7138597789473685,0.8003424105263157,-5.685494157894737
523,1747679581910,0.1158661853125,-2.490604125,-0.58945926875,0.12769847225,0.612326849375,-5.118791425
524,1747679581920,-0.31969466,-2.596159066666667,-0.52376715,-0.5974205868888889,0.09535588899999999,-3.718332277777778
525,1747679581930,-0.1886915863157895,-2.6079122736842106,-0.5040456052631579,-1.2337225105263159,-0.12346545052631579,-2.5545722736842107
526,1747679581940,0.18355138666666668,-2.6271543333333334,-0.37668201333333334,-1.9975912166666667,0.12050795333333333,-1.4463617833333333
527,1747679581950,0.3775469363157895,-2.6095821684210527,-0.24614137147368423,-2.341035905263158,0.32803812210526323,-1.0219382421052632
528,1747679581960,0.60202825,-2.5431986,0.019829651,-2.8004448,0.53010184,-0.40240335
529,1747679581970,0.7260363744444445,-2.4606800333333334,0.3079527995,-2.8306275444444444,0.4757733627777778,-0.05329277422222222
530,1747679581980,0.738135107368421,-2.3885690789473686,0.5467621178947368,-2.7265493578947364,0.46809226473684207,0.141273574
531,1747679581990,0.603763731111111,-2.1732620111111114,0.8583561377777778,-2.1859061555555557,0.5979235900000001,0.59622212
532,1747679582000,0.48723994333333337,-1.9215847,1.0160714549999998,-1.503545688888889,0.6755694866666667,1.0069404
533,1747679582010,0.4563902615789474,-1.718567552631579,1.0146070263157896,-0.5226309768421052,0.6174534505263157,1.4788522526315788
534,1747679582020,0.4675797711111111,-1.4006852666666667,0.7947928000000001,0.8349448,0.34208278166666667,1.9743773833333331
535,1747679582030,0.48048767000000003,-1.2697078,0.58409,1.3844153105263157,0.16824858852631577,2.138194342105263
536,1747679582040,0.5049747983333333,-1.1174704277777778,0.21694655366666668,1.975842077777778,-0.0728374028888889,2.308100788888889
537,1747679582050,0.5138336663157894,-1.0011677684210525,-0.050150552,2.2039953368421052,-0.20565896157894736,2.3718235578947366
538,1747679582060,0.47267786,-0.9031337999999999,-0.31696934,2.228250488888889,-0.3148889561111111,2.420486133333333
539,1747679582070,0.3457681,-0.8094159,-0.5317397,2.040113,-0.3189133,2.5100274
540,1747679582080,0.2250753621052632,-0.7308037421052631,-0.6579815252631579,1.6979391473684213,-0.2607723157894737,2.705419136842105
541,1747679582090,0.1986401215789474,-0.7141050736842105,-0.6818477347368421,1.2731233,-0.1431448,2.9798088
542,1747679582100,0.19864012368421052,-0.6994616236842105,-0.6237621647368421,0.7903905842105263,0.046920657894736845,3.3658266947368425
543,1747679582110,0.216227935,-0.6927293472222221,-0.4692882122222222,0.36616957033333336,0.3163389166666667,3.880785033333334
544,1747679582120,0.28768247,-0.6366233,-0.24668086,0.085354246,0.5961482,4.6341634
545,1747679582130,0.5827091989473684,-0.5519226478947368,-0.10903257105263159,0.19221700947368422,0.5829164421052632,5.4562661052631585
546,1747679582140,1.018261472631579,-0.44692665368421053,-0.14045173315789472,0.48544485684210525,0.3324113015789473,6.278369563157894
547,1747679582150,1.6141336,-0.34473084000000004,-0.33193818500000005,0.6577559399999999,-0.0019973683333333356,6.820616900000001
548,1747679582160,2.3826442210526313,-0.2163310487294737,-0.6224005663157894,0.6919938389473683,-0.5031478373684211,7.256954289473685
549,1747679582170,2.987854642105263,0.02998692702421053,-0.9133168421052632,0.47793196157894735,-0.9162458552631579,7.6003058368421055
550,1747679582180,3.3315644,0.28591305,-1.0242473,0.084288985,-0.9048082999999999,8.002527
551,1747679582190,3.9716455111111113,0.5277196055555556,-1.08073295,-0.2272414461111111,-0.6964900777777778,8.21368611111111
552,1747679582200,4.5806494,0.6554158,-1.0598795,-0.8383974921052633,-0.20016443263157893,8.307696578947368
553,1747679582210,4.925540926315789,0.7918309078947368,-0.940805355263158,-1.373103805263158,0.11778872052631578,8.089430105263158
554,1747679582220,5.034704538888889,0.9836998883333332,-0.741412,-1.9020726,0.10742887555555555,7.741715027777778
555,1747679582230,4.978231542105263,1.085778647368421,-0.5374943473684212,-2.2947251,-0.29530929894736846,7.394597763157894
556,1747679582240,4.834468931578947,1.100678952631579,-0.42440594315789476,-2.5577892263157893,-0.6319326210526316,7.111797973684212
557,1747679582250,4.6514263,1.0864209,-0.35504228,-2.8258338666666667,-0.8569306277777778,6.898262527777778
558,1747679582260,4.401077822222223,1.0856073666666666,-0.26674779111111113,-3.0909069222222225,-0.9972495555555556,6.765045466666667
559,1747679582270,4.193493333333333,1.1087927333333334,-0.21519748333333333,-3.3962824166666667,-1.0724098333333334,6.652837600000001
560,1747679582280,4.071058,1.1205889,-0.1505223,-3.7176369999999994,-1.0795115,6.5516376
561,1747679582290,3.9461007,1.133768,0.046187833,-4.012715,-1.041162,6.3758693
562,1747679582300,3.835889621052632,1.1318412105263158,0.25273734905263157,-4.012715,-1.041162,6.3758693
563,1747679582310,3.8065000000000007,1.1313274,0.30781722,-4.012715,-1.041162,6.3758693
564,1747679582320,3.8065000000000007,1.1313274,0.30781722,-4.012715,-1.041162,6.3758693
565,1747679582330,3.601877215789474,1.1236203368421054,0.45240185368421054,-3.7599111105263154,-1.1010410368421053,5.948474284210526
566,1747679582340,2.5105557,1.082516,1.2235199,-2.4116237,-1.4203959,3.6690342
567,1747679582350,2.319214938888889,1.0578390944444445,1.1992227055555555,-2.113349888888889,-1.5082209722222222,3.453200011111111
568,1747679582360,1.5409550342105263,0.9554263157894738,1.0076706421052632,-1.193690972631579,-1.7506276263157894,2.8311204
569,1747679582370,0.9656735700000001,0.8701861,0.80032474,-0.479531395,-1.8958585833333335,2.406401033333333
570,1747679582380,0.524109735263158,0.7845348368421053,0.6419187294736842,-0.23102905,-1.901895,2.274604
571,1747679582390,0.1974084117777778,0.7089998277777778,0.5688500066666666,-0.1050912188888889,-1.7687371555555556,2.236491422222222
572,1747679582400,-0.034473088,0.6490702,0.575304,-0.04354265,-1.6153392,2.2383852
573,1747679582410,-0.1984795654736842,0.6560579894736842,0.5810585263157895,-0.00048357353684210544,-1.5148679578947368,2.256326505263158
574,1747679582420,-0.42398846,0.6925124,0.5762802,0.04518754274117647,-1.4076754529411764,2.313266970588235
575,1747679582430,-0.4754303005555556,0.7528487933333333,0.5986792,0.07671377911111112,-1.3365951777777778,2.3394669111111113
576,1747679582440,-0.56749415,0.8745791000000002,0.6582834,0.10985532,-1.2478232,2.3449116
577,1747679582450,-0.6097590764705882,1.047888505882353,0.7651517705882354,0.21512842941176472,-1.0668537470588235,2.274541623529412
578,1747679582460,-0.6369348105263157,1.2188283684210526,0.8740557221052633,0.3562115452631579,-0.8699349147368421,2.22162152631579
579,1747679582470,-0.49406003,1.4373751555555556,0.9878149355555556,0.6124229999999999,-0.5774172644444444,2.1632249999999997
580,1747679582480,-0.12541652842105264,1.604104752631579,1.059564942105263,0.9113260289473685,-0.36236484210526315,1.9554175526315791
581,1747679582490,0.24234206666666663,1.7073566333333334,1.0690589222222222,1.2392714666666667,-0.20753406444444444,1.5425313222222221
582,1747679582500,0.44070635499999994,1.782146716666667,0.9873538666666667,1.6147176888888888,-0.1283494711111111,0.8625380511111111
583,1747679582510,0.46633238,1.8220093000000002,0.8218017,1.8760623999999997,-0.1463406,0.21012326
584,1747679582520,0.39026788222222225,1.8183214333333335,0.6281830333333334,1.9548919000000002,-0.18682061,-0.30439907
585,1747679582530,0.3857935,1.8181045,0.6167937,1.9005634666666669,-0.18504517333333334,-0.48442861333333337
586,1747679582540,0.39005094555555553,1.8056303444444444,0.22369881077777778,1.355385188888889,0.04404568958333333,-1.1479103444444445
587,1747679582550,0.5743684166666667,1.7735775222222223,0.011857115111111111,0.825594118888889,0.34865191111111105,-1.4428107666666667
588,1747679582560,0.83339447,1.6868017,-0.005064188,0.23520133666666668,0.7458177166666666,-1.8342951666666667
589,1747679582570,1.0642469726315789,1.5591211631578947,0.149257062,-0.16587976631578946,1.0517445421052631,-2.2567470210526315
590,1747679582580,1.2680875111111112,1.422568977777778,0.41769720444444447,-0.3356616022222222,1.2400408777777778,-2.8532198666666666
591,1747679582590,1.3896280666666667,1.3458807,0.5878864666666667,-0.24061642205555556,1.2435917555555553,-3.2579016333333333
592,1747679582600,1.624885047368421,1.3006774210526315,0.6792980526315789,0.009103799315789474,1.193648947368421,-3.635534557894737
593,1747679582610,1.9080056222222224,1.3233733555555556,0.6910412955555556,0.3814975444444444,1.0909039333333332,-4.07993
594,1747679582620,2.0806354222222225,1.365703611111111,0.6766148344444445,0.5348955,1.052081,-4.252266
595,1747679582630,2.455887,1.458364,0.6231392,0.7377441315789474,1.0056578631578947,-4.523740105263157
596,1747679582640,2.9648278888888893,1.5915650666666668,0.48820263111111106,0.8342345666666666,1.0939813777777776,-4.808688666666667
597,1747679582650,3.764290857894737,1.814661952631579,0.30815117736842107,0.64590719,1.3440192736842105,-5.0051270789473685
598,1747679582660,5.145723333333333,2.0026118,0.22288528333333332,0.30479857,1.6337149,-5.217395
599,1747679582670,6.092882422222222,1.9905717111111112,0.3316805788888889,-0.09266313944444445,2.0847949166666666,-5.733337644444444
600,1747679582680,6.816265136842105,1.898720405263158,0.5352015021052632,-0.24751260894736843,2.5727729368421053,-6.527501052631579
601,1747679582690,7.293281894736841,1.5365394263157894,0.9018011894736843,-0.0019412984210526291,2.9486428526315787,-7.241003363157894
602,1747679582700,7.431238,1.2274859,1.095634,0.50400287,3.149585,-7.687741300000001
603,1747679582710,7.446044277777777,1.0216100566666666,1.094576377777778,0.8717555583333332,3.0980381944444444,-7.909316261111111
604,1747679582720,7.194448333333333,0.48294860444444443,0.8134496,1.6240683944444443,2.727385688888889,-8.44614988888889
605,1747679582730,6.419322555555556,0.08611153011111111,0.21458734355555556,2.237660333333333,2.0787583888888888,-9.034944666666668
606,1747679582740,5.418613463157895,-0.20461632036842103,-0.5069486338947369,2.099935936842105,1.7499408,-9.179278421052633
607,1747679582750,4.526550105555555,-0.48517225388888885,-0.8105073305555556,1.1502627833333332,2.248017016666667,-8.952623666666668
608,1747679582760,3.9236471666666666,-0.6507243933333333,-0.6132548522222222,0.4707429555555555,2.8844528611111113,-8.503023388888888
609,1747679582770,3.548338515789473,-0.8014519042105263,-0.31686660210526313,0.23348195473684208,3.1382036315789477,-7.944582315789472
610,1747679582780,3.2949843058823527,-0.9435037647058823,-0.11471768588235294,0.21631901176470586,3.1379924823529413,-7.4910435117647065
611,1747679582790,2.9620616,-1.099844,0.12819107,0.3687144,3.071821,-7.0539093
612,1747679582800,2.477287005263158,-1.1863172736842105,0.4221130442105263,0.7671230000000001,2.9946172,-6.6345320947368425
613,1747679582810,2.0467114833333335,-1.3113873166666667,0.7111353555555556,1.3426021,2.8958747722222222,-6.09659248888889
614,1747679582820,1.6757260105263156,-1.5011255421052632,0.8794506394736842,2.5627089052631575,2.6887745947368424,-5.548131421052632
615,1747679582830,1.4718482,-1.6211503,0.81984925,3.1682272,2.5051007,-5.327117
616,1747679582840,1.3039368666666666,-1.7282101666666665,0.6187461233333332,3.8776928666666666,2.0953291666666667,-5.0650623333333336
617,1747679582850,1.074548705263158,-1.969535610526316,0.15002777894736843,4.606501321052631,1.4114112315789473,-4.769871968421053
618,1747679582860,0.7028880657894737,-2.2713445105263155,-0.2854217284210526,4.6370015,0.8235538915789474,-4.645965121052632
619,1747679582870,0.26278865,-2.4597309,-0.626922,4.359192,0.28828698,-4.4344263
620,1747679582880,-0.05905865052631578,-2.3884148157894733,-0.8369654084210526,3.9373476631578948,0.04742525747368422,-4.037475331578948
621,1747679582890,-0.4304424388888889,-2.1724484444444445,-1.2722636777777778,2.40620865,-0.5550467333333333,-2.6369714833333333
622,1747679582900,-0.24243555,-2.025668652631579,-1.4257856157894737,1.1408062768421052,-0.7210222726315789,-1.6922693421052633
623,1747679582910,0.22064808055555557,-1.9002975222222223,-1.3962176055555555,-0.5985450244444445,-0.4107627044444444,-0.7603319511111111
624,1747679582920,0.5800887242105264,-1.8686755315789474,-1.238067107368421,-2.100847110526316,0.17077157368421053,-0.2234390505263158
625,1747679582930,0.84413296,-1.8959587000000002,-0.94858944,-2.9112325,0.5482113,-0.07004108
626,1747679582940,0.915723128888889,-1.9510614555555554,-0.6079940266666667,-3.8657084999999998,0.9610601,-0.02080223111111111
627,1747679582950,0.7792394947368421,-1.9968185473684212,0.06915490578947368,-4.444426894736843,1.0908229842105264,-0.03180372578947368
628,1747679582960,0.6455788977777778,-1.9805109444444444,0.4289238177777778,-4.425327,0.9849694333333334,-0.015357550466666666
629,1747679582970,0.24296577522222224,-1.778892627777778,1.0838378999999998,-3.166836527777778,0.29527038333333333,0.4064276761944444
630,1747679582980,-0.06872245416666667,-1.4982268166666666,1.4018445333333334,-1.2283525611111112,-0.45455687499999997,1.1414595833333334
631,1747679582990,-0.103622644,-1.3085129333333334,1.2042395,0.08144830666666664,-0.8427862944444444,1.709896111111111
632,1747679583000,0.03207319077777778,-1.2130322555555555,0.7579130333333333,1.1726333999999998,-1.1562105777777778,2.2340058666666667
633,1747679583010,0.20779440999999998,-1.15841775,0.3289688533333333,1.7833844500000002,-1.3519823444444445,2.5554785833333336
634,1747679583020,0.39165086,-1.08276,-0.04850638,2.104843494117647,-1.5137004588235297,2.771455694117647
635,1747679583030,0.39165086,-1.08276,-0.04850638,1.9723927142857143,-1.5438143714285713,2.8545641857142856
636,1747679583040,0.558586,-0.9236346,-0.7767731999999999,1.6108118,-1.4598106,2.9020445
637,1747679583050,0.5378411666666666,-0.8833651833333334,-0.8044330333333334,1.27436605,-1.3408562666666668,3.007683
638,1747679583060,0.4917143600000001,-0.87238264,-0.68207896,0.8928241,-1.2520843,3.3217582999999995
639,1747679583070,0.49171436,-0.87238264,-0.68207896,0.8928241,-1.2520843,3.3217583
640,1747679583080,0.48810230400000004,-0.8803388919999999,-0.809476879,0.5758016386,-1.6849008900000002,4.14211772
641,1747679583090,0.7267602923076922,-0.8472635538461538,-0.9911305692307693,-0.098936364,-2.0116172,5.325519
642,1747679583100,1.1514282444444444,-0.8208052444444445,-0.9470167111111112,-0.9992024988888889,-1.6291875666666666,6.1900397666666676
643,1747679583110,1.78704821875,-0.77494273125,-0.7468456906250001,-1.6001590875,-1.3331773625,6.6096946375
644,1747679583120,2.378834642857143,-0.6967311285714286,-0.3881643185714286,-1.8856878285714287,-1.2027777571428573,6.7481028571428565
645,1747679583130,2.559022823529412,-0.5460924411764706,-0.054880575294117655,-1.8118804,-1.2286484,6.767886
646,1747679583140,2.600369,-0.302753,0.29268566,-1.1716568,-1.5152044,7.0714865
647,1747679583150,2.7083643125,-0.2098587125,0.40342661,-0.624377628125,-1.9566229,7.4200274375
648,1747679583160,3.2199147368421053,-0.13132206315789474,0.29818336947368423,-0.58789235,-1.9860508,7.443263499999999
649,1747679583170,3.8307045352941174,-0.10282706188235294,-0.05439246117647059,0.8857431823529411,-2.6801014529411766,8.452569352941177
650,1747679583180,4.506455900000001,0.0657734244,-0.526858572,1.3337721933333333,-2.5664065133333334,8.850902866666667
651,1747679583190,5.613671964705882,0.6378149017647059,-0.8414627470588235,0.7972636676470589,-0.39122590176470584,9.110777235294119
652,1747679583200,6.248306870588235,1.104796905882353,-0.48502429411764714,0.5243055323529413,0.13463836458823528,8.712744647058823
653,1747679583210,6.6144598,1.5458993,-0.16890795366666667,0.8186107333333333,0.05819002800000001,7.829954033333333
654,1747679583220,6.3913918333333335,1.7756385333333333,-0.021985490333333333,1.649753111111111,-0.38590655333333335,6.295027455555556
655,1747679583230,5.4408155,1.8839999277777777,-0.08438279605555556,2.404847538888889,-0.7640751555555556,5.175849583333334
656,1747679583240,4.065201,1.9005958000000003,-0.6610901,2.973284,-1.0518147,4.460525
657,1747679583250,3.3025218333333335,1.8265650500000001,-1.2541491833333334,2.9350527944444447,-1.1463864555555554,4.345831666666666
658,1747679583260,2.663634227777778,1.684062738888889,-1.8941487333333333,2.1762301388888887,-1.1046636222222224,4.448748222222223
659,1747679583270,2.3819377055555555,1.5451670777777777,-2.200033866666667,0.5069027466666667,-0.7507593211111111,4.5799532166666665
660,1747679583280,2.3404750888888888,1.4886271555555557,-1.9716232777777778,-0.8261563466666666,-0.42561719833333334,4.482540533333333
661,1747679583290,2.072974131578947,1.3730467526315788,-0.9373628404210527,-1.8318400052631576,-0.29491683315789474,4.0390172
662,1747679583300,1.5046803105263158,1.2780957473684211,0.0384036974736842,-2.1287680947368424,-0.5417776768421053,3.491023110526316
663,1747679583310,1.219926911111111,1.2514577111111111,0.3879764455555555,-1.813537311111111,-0.7527123355555556,3.2307374777777778
664,1747679583320,1.1291919,1.2260215,0.5489457,-1.4464948,-0.8206525,3.0202887
665,1747679583330,0.9424338666666667,1.2115950833333333,0.6016078855555556,-0.9810338266666666,-0.8213626588888889,2.6524176722222226
666,1747679583340,0.73284286,1.2030802,0.6128888,-0.43555966000000007,-0.79721665,2.1979053
667,1747679583350,0.4520999821052632,1.2188282526315788,0.568727282631579,0.043640767368421055,-0.8314172242105263,1.883820694736842
668,1747679583360,0.23984726,1.2211404,0.44156057,0.36658385,-0.89095986,1.675926
669,1747679583370,0.17464544315789474,1.1716610526315792,0.3615611710526315,0.4786047184210527,-0.8748127610526316,1.5346384105263158
670,1747679583380,-0.05546201,1.1098503,0.259982,0.5331200644444444,-0.783013211111111,1.2266214555555555
671,1747679583390,-0.2588972872222222,1.1280461333333334,0.23641690166666665,0.47991606,-0.6818131555555556,1.0191909555555556
672,1747679583400,-0.5800224044444444,1.17471535,0.21464157166666664,0.27994241555555555,-0.5427962066666666,0.7890940377777778
673,1747679583410,-0.6573842505263158,1.2981340421052632,0.2760640642105263,0.0658431014736842,-0.4235334052631579,0.6295568105263157
674,1747679583420,-0.5808901555555556,1.3927939999999999,0.32712484888888893,-0.040820311222222225,-0.2868370511111111,0.43276337555555555
675,1747679583430,-0.4516054736842105,1.4718257684210527,0.36790667,-0.09960915694736842,-0.13966868368421054,0.1439647747368421
676,1747679583440,-0.3776176,1.5227952,0.37078395,-0.08165541466666666,-0.14752422444444444,-0.2310142577777778
677,1747679583450,-0.28666556388888886,1.57917245,0.3124542922222222,-0.04567318,-0.26778066,-0.453536
678,1747679583460,-0.1374652443076923,1.6366761692307692,0.22386151076923078,-0.06476597876923076,-0.48427500461538464,-0.7801622407692308
679,1747679583470,0.026541224,1.6794797999999997,0.10671403999999998,-0.1415469,-0.5511408,-0.98510253
680,1747679583480,0.2076317,1.7253628,-0.058268666,-0.5250418,-0.5362271,-1.4175996
681,1747679583490,0.33909722,1.7126717333333332,-0.12367600866666667,-0.8637956666666667,-0.42828036666666663,-1.6647408
682,1747679583500,0.5111361778947368,1.6304372315789473,-0.09133200105263158,-1.5166900736842106,-0.12940850736842105,-2.0995925789473686
683,1747679583510,0.7082573463157895,1.4519414631578946,0.18512063210526317,-2.0823451263157895,0.31503068263157896,-2.5536753
684,1747679583520,0.8533557842105263,1.3260593157894736,0.4493190215789474,-2.4133057473684207,0.7252692915789474,-2.979556442105263
685,1747679583530,1.0371009333333334,1.2159339,0.7555808933333333,-2.371380522222222,0.9933139655555556,-3.3145381555555553
686,1747679583540,1.1900777157894737,1.1726886736842104,1.0031747789473684,-2.082232994736842,1.2194394894736842,-3.581934957894737
687,1747679583550,1.3058894,1.1654954,1.2308416,-1.6819181,1.4195969,-3.7899417999999994
688,1747679583560,1.6051035,1.2792261,1.3411556,-0.6986798,1.5282538,-4.0072556
689,1747679583570,1.8692546944444441,1.381106438888889,1.2503391444444443,-0.18758997722222223,1.5141686388888889,-4.078687144444444
690,1747679583580,2.319215,1.5310931,0.9809271000000002,0.4964338857894736,1.4801487736842105,-4.173492536842105
691,1747679583590,3.106514882352941,1.7386853352941176,0.4675454823529412,1.062702245882353,1.4316282235294118,-4.362489494117647
692,1747679583600,3.823121378947368,2.0310764684210523,-0.0501762547368421,1.0856928315789474,1.4259886,-4.5780123947368425
693,1747679583610,4.38034267368421,2.3025452631578944,-0.3997690047368421,0.6590827909473684,1.6808108315789472,-4.7967840736842104
694,1747679583620,5.891074166666667,2.4682730333333334,-0.9084014333333335,-0.2734620562222222,2.239850011111111,-5.2678174166666665
695,1747679583630,6.561803384210526,2.2523723789473684,-0.7701451210526316,-0.9111718526315788,2.6129724631578948,-5.906676563157895
696,1747679583640,6.918306657894736,1.8487015526315789,-0.16958444526315788,-1.1721614184210525,2.9661915684210522,-6.946430010526316
697,1747679583650,6.658523876470588,1.4626135470588235,0.3666493588235294,-0.7793891823529411,3.083664094117647,-7.679219294117647
698,1747679583660,6.3110156,1.1908773,0.5816494,-0.206528,3.0494504,-8.00732
699,1747679583670,5.807823333333333,0.8024737961111111,0.49655480611111114,1.0823226611111112,2.51545735,-8.000691722222221
700,1747679583680,5.701956849999999,0.6173699255555555,0.2631818438888889,1.5934125666666665,2.1641571055555553,-7.886057999999999
701,1747679583690,5.5876293,0.31910485,-0.3047665,2.003894,1.8190707999999998,-7.852857
702,1747679583700,5.064804677777778,0.06007876022222222,-0.9213093444444443,1.7884740555555554,1.940037488888889,-8.00696511111111
703,1747679583710,4.513520836842106,-0.08366667652631579,-1.1995316999999999,1.167662105263158,2.4152821894736842,-8.07118047368421
704,1747679583720,3.8523014166666667,-0.375563445,-0.9409423699999999,0.31130850694444445,3.2590705499999997,-7.944292416666666
705,1747679583730,3.2647442315789474,-0.6968669789473685,-0.2986778842105263,-0.03429167894736842,3.881701684210526,-7.7821572
706,1747679583740,2.745284544444444,-0.8713521444444444,0.21675674444444443,0.28876041666666663,4.038665944444444,-7.619327716666667
707,1747679583750,2.205920921052632,-0.9944883157894736,0.637217427368421,1.1023445684210527,3.900259610526316,-7.318935957894737
708,1747679583760,1.5887787444444443,-1.1363440444444444,1.0187288533333332,2.4054983333333335,3.4181498888888893,-6.843934444444445
709,1747679583770,1.2959643333333333,-1.2436749833333334,1.0722858833333333,3.836384233333333,2.7395177333333334,-6.306804694444445
710,1747679583780,1.1342014263157894,-1.3833357789473686,0.885847544736842,4.521112,2.4571638,-6.0206037
711,1747679583790,1.0437717,-1.5337778,0.57920885,5.1975546,2.2121532,-5.5870414
712,1747679583800,1.0437717,-1.5337778,0.57920885,5.421820621052631,2.065931557894737,-5.134921063157894
713,1747679583810,0.9876386666666667,-1.6163504666666666,-0.28841465833333335,5.101680916666667,1.9737115833333334,-4.608951749999999
714,1747679583820,1.052503668888889,-1.5936803222222222,-0.5290822072222222,4.309302366666667,1.7775255666666667,-4.229185516666667
715,1747679583830,1.1739356666666667,-1.6257873666666667,-0.43924202833333337,3.4265537333333334,1.45191,-4.0370827
716,1747679583840,1.237604710526316,-1.7596977789473682,-0.22774715157894734,2.7578764842105263,1.105288125263158,-4.064443184210526
717,1747679583850,1.1079588500000002,-1.9187374166666666,-0.13295017833333334,2.1993107555555556,0.7101313544444445,-4.178407888888889
718,1747679583860,0.7862770470588236,-2.030735876470588,-0.1610311205882353,1.9250646000000002,0.4044007,-4.218178
719,1747679583870,0.2681579,-2.1263487,-0.298421,1.1932285,-0.06751108,-3.838944
720,1747679583880,0.09839681568421052,-2.127427657894737,-0.35237050105263157,0.7796818894736842,-0.19040886526315792,-3.4926770526315787
721,1747679583890,-0.13057741144444446,-2.0423388666666664,-0.3503780733333334,-0.004423799999999996,-0.23233102388888888,-2.7466342833333335
722,1747679583900,-0.1240806335263158,-1.9527598789473681,-0.14160779631578946,-1.0544778,0.05392896999999999,-1.6178691
723,1747679583910,-0.007626788999999999,-1.8774103999999998,0.17016892,-1.5107658,0.33622384499999997,-0.9858127333333333
724,1747679583920,0.10577848172222222,-1.8506726111111114,0.4933278511111111,-1.7355363777777777,0.4930543133333334,-0.30641125555555554
725,1747679583930,0.1376258157894737,-1.8037822421052632,0.652605852631579,-1.5300900789473684,0.2779707342105263,-0.013582113684210528
726,1747679583940,-0.02175641842105263,-1.6965254684210525,0.6453355263157894,-0.9152086315789473,-0.19175447473684212,0.3444025463157895
727,1747679583950,-0.23712194500000003,-1.5850297000000002,0.421303795,-0.6334027805555555,-0.38117205888888894,0.6249842888888889
728,1747679583960,-0.36443847,-1.4996097,0.21751602000000003,-0.15707732368421054,-0.6841305489473684,1.2497085105263157
729,1747679583970,-0.3522356116666667,-1.4782140166666666,0.15096974333333335,-0.08491039,-0.6750664416666666,1.8980335333333334
730,1747679583980,-0.2847987605263158,-1.3688464157894737,-0.18941733000000002,-0.17905539947368423,-0.6363058236842105,2.449307484210526
731,1747679583990,-0.16919269,-1.3258411,-0.32721975,-0.34501225,-0.59055555,2.875413
732,1747679584000,-0.05081207610526316,-1.2962458157894738,-0.3847658636842105,-0.5943960731578947,-0.5609523921052632,3.2844742210526316
733,1747679584010,0.09839682036842105,-1.2430156894736843,-0.38815697263157894,-0.8483773757894738,-0.5688578,3.665277789473684
734,1747679584020,0.23268826,-1.1627023333333333,-0.3351380422222222,-1.0927089488888888,-0.6442921777777778,4.141537977777777
735,1747679584030,0.3811835416666667,-1.0238879333333335,-0.2851063388888889,-1.2622042666666666,-0.7806459111111111,4.783063577777778
736,1747679584040,0.7843261736842105,-0.8321516973684211,-0.2740923557894737,-1.3867840315789473,-0.7700244447368421,5.618130231578948
737,1747679584050,1.0109597333333333,-0.700132431111111,-0.2636564022222222,-1.4628288777777778,-0.6096119333333333,6.195602977777778
738,1747679584060,1.4777570210526316,-0.43757537,-0.23103550421052632,-1.5168023,-0.3274354,6.875478
739,1747679584070,2.1564287944444445,-0.25847017833333336,-0.19193068833333335,-1.4975091833333334,-0.3069586877777778,7.479127166666667
740,1747679584080,3.2053482789473686,-0.16009513368421052,-0.2968796068421053,-1.451877257894737,-0.5618495105263158,7.853389631578947
741,1747679584090,3.6359852333333333,-0.06520396483333332,-0.4432283,-1.5452092666666666,-0.7279745555555555,7.791604411111111
742,1747679584100,3.6293914736842106,0.014367265,-0.5269356368421052,-1.8296533999999998,-0.7175461263157894,7.737220257894736
743,1747679584110,3.342303,0.03209353,-0.4961073999999999,-2.1869713333333336,-0.5509632377777778,8.038153944444444
744,1747679584120,3.1856182,0.08725046,-0.34820867,-2.460626,-0.45739758,8.698144
745,1747679584130,3.7826080947368417,0.13580502421052632,0.023118000526315793,-2.635553494736842,-0.4215150031578948,9.805120842105264
746,1747679584140,4.780342644444444,0.16217604166666666,0.35776758277777776,-2.536082066666667,-0.4414186283333333,10.644735666666666
747,1747679584150,6.1191319222222225,0.2904687922222222,0.59504543,-2.1605765444444445,-0.5398963138888889,10.838021722222223
748,1747679584160,6.926736385714285,0.4648070278571429,0.6048348649999999,-1.6840486357142856,-0.70925629,10.158240000000001
749,1747679584170,6.783370357142857,0.939916757142857,0.36897098857142857,-1.3459035285714285,-0.9827247328571429,8.93333867857143
750,1747679584180,6.327367,1.2586439,0.26950022500000004,-1.27723635,-1.03802548,8.187468822222222
751,1747679584190,5.680294368421052,1.5985042684210526,0.2104768947368421,-1.3573490894736842,-0.7824151263157895,7.590381921052631
752,1747679584200,5.361633,1.7243863,0.17846686,-1.4464948,-0.5671197,7.279213
753,1747679584210,4.902317,1.7707573,0.1462513,-1.547414547368421,-0.46519081578947363,6.7544301052631575
754,1747679584220,4.5206113,1.7795433999999999,0.13746524,-1.6168809842105265,-0.4709656642105263,6.235366368421053
755,1747679584230,3.780711138888889,1.7721673833333336,0.08906055444444444,-1.7344710666666667,-0.46254635166666663,5.684157916666667
756,1747679584240,2.9170738833333334,1.723789911111111,0.17103666555555558,-1.9544480833333333,-0.4579302116666667,5.232131
757,1747679584250,2.5591619210526315,1.6436421,0.3170143115789474,-2.0730940315789472,-0.4834685115789474,4.96047047368421
758,1747679584260,2.197349216666667,1.5217376333333332,0.5362548149999999,-2.0203759944444446,-0.42076435,4.519884305555555
759,1747679584270,1.8169453,1.3929567,0.76566863,-1.9045581999999999,-0.30826068,4.1132493
760,1747679584280,1.3033339147058824,1.271186594117647,0.9557748529411764,-1.525763017647059,-0.10009561380588235,3.5914581294117647
761,1747679584290,0.8646880166666667,1.1715155222222222,1.0273521444444444,-1.0724097433333333,0.009365442583333333,3.2532262999999997
762,1747679584300,0.6069094,1.1054573,1.0189999,-0.63476396,0.07416898,3.0490508
763,1747679584310,0.50831025,1.07592635,0.9601821500000001,-0.31465224185,0.060853185,2.9180234
764,1747679584320,0.2276172811111111,0.9818559388888889,0.6939157611111111,0.3037332751444444,0.012502052222222221,2.604244177777778
765,1747679584330,0.06661799515789472,0.9526774789473684,0.5564729868421052,0.48062313157894737,0.00644064,2.4636603842105265
766,1747679584340,-0.2757101275555556,0.9314716333333334,0.3395988777777778,0.6201757805555554,0.040613175,2.2576190777777776
767,1747679584350,-0.7124641133333333,0.9515385333333334,0.12371668333333334,0.5698716416666667,0.06902021166666666,2.11854305
768,1747679584360,-0.9763904717647058,1.0072888164705882,0.021150431029411765,0.3045479235294118,0.10976132,2.1813623647058824
769,1747679584370,-1.0307419238888889,1.0900274944444444,0.01389092511111111,0.02658720577777778,0.19134799,2.2847241888888887
770,1747679584380,-0.8925240877777778,1.2285163777777777,0.08252524666666666,-0.22392730000000002,0.3289445366666667,2.303366383333333
771,1747679584390,-0.7706011036842104,1.3637982578947367,0.1286278005263158,-0.3487687052631579,0.37266706157894736,2.2309284315789473
772,1747679584400,-0.434037904117647,1.587484717647059,0.2315852088235294,-0.3908186,0.29361328,2.1190758
773,1747679584410,-0.0029625800000000046,1.7821467555555555,0.3593946244444445,-0.36513390444444443,0.22898729277777777,2.0221367666666668
774,1747679584420,0.3584591,1.9630744,0.45571586,-0.11065426,-0.028096329999999996,1.1624689
775,1747679584430,0.6191122,2.0660665,0.47133556,0.17625674444444445,-0.0015831002222222222,0.4892223222222223
776,1747679584440,0.6995740568421054,2.0919623421052633,0.45515068947368426,0.3574450221052632,0.06531047397368421,-0.05310899578947369
777,1747679584450,0.5990995266666668,2.0637075,0.37778028,0.6060906,0.167379544,-0.813595115
778,1747679584460,0.48408433157894737,1.9783858789473685,0.2141249142105263,0.7584887421052632,0.22072682789473683,-1.351665394736842
779,1747679584470,0.4822774566666667,1.8984535111111112,0.061210914888888884,0.7543989988888888,0.23555641833333332,-1.7228568277777778
780,1747679584480,0.7027967388888889,1.7465685777777777,-0.16497591744444443,0.5498091877777778,0.2821321161111111,-2.2073150888888886
781,1747679584490,0.9220000947368421,1.6206236578947368,-0.32025769578947366,0.23527608736842104,0.3913372184210526,-2.6557724210526317
782,1747679584500,1.2765482,1.5111888777777778,-0.37825484444444446,-0.2900920022222222,0.6239634055555556,-3.2562446
783,1747679584510,1.4655570222222223,1.4437748444444445,-0.3230436522222222,-0.6810437422222222,0.7336855666666666,-3.7943210444444446
784,1747679584520,1.5440892,1.3661104,-0.16077271,-1.051282,0.8624641,-4.340683
785,1747679584530,1.628533,1.3221802,-0.0011592719,-1.229181,0.9902957,-4.6368265
786,1747679584540,1.7749674210526316,1.3379796210526316,0.2077023638105263,-1.2544110000000002,1.0365505684210525,-4.822686842105263
787,1747679584550,2.1819464666666666,1.4025020444444443,0.6452127555555556,-1.0035819166666666,0.9563256211111111,-5.1680377
788,1747679584560,2.7324853333333334,1.509507588888889,0.9719783222222222,-0.3705785916666666,0.7333896066666666,-5.557391583333334
789,1747679584570,3.4768171421052627,1.6154598894736842,1.0624422157894735,0.4915561042105263,0.6211538221052632,-6.112552815789473
790,1747679584580,3.867677133333333,1.7083872111111111,0.8948562166666668,1.1207905,0.56419027,-6.563888
791,1747679584590,4.22717355,1.8402323999999999,0.5796970083333333,1.4357534222222221,0.577150965,-6.810437577777779
792,1747679584600,4.688550116666666,1.9051786888888889,0.3303247033333333,1.4014283222222224,0.6315386077777778,-6.886663022222223
793,1747679584610,5.3508400555555555,1.821439888888889,0.20233024,1.1622766183333333,0.7471789027777778,-6.984726527777777
794,1747679584620,5.912333888888889,1.5997546111111112,0.3005497111111111,0.9724821377777777,0.7844630844444445,-7.0888265
795,1747679584630,6.163117,1.4969251,0.562613,1.0861413789473684,0.6616899189473685,-6.867824968421053
796,1747679584640,6.617062833333333,1.5803114333333332,0.6423383333333333,1.632117,0.32663646,-6.2986374
797,1747679584650,7.307256999999999,1.5740472,0.21751602,1.8227991999999997,-0.13249217,-6.4286
798,1747679584660,7.263435666666668,1.0664081777777779,-0.5864627533333333,1.5292599111111111,-0.659916018888889,-7.123624888888888
799,1747679584670,6.465178,0.37043824166666667,-1.1921586,0.5897565833333334,-0.41159125,-7.926005499999999
800,1747679584680,5.076655166666666,-0.22598343277777777,-1.2628810000000001,-0.7802316444444444,0.4444664333333333,-8.381464944444444
801,1747679584690,3.9287727,-0.51337439,-0.9476133,-1.7628781,1.1692600000000002,-8.367911999999999
802,1747679584700,2.387415561111111,-0.6852178316666666,0.30844092222222225,-2.592836988888889,2.3672081666666664,-7.313892900000001
803,1747679584710,2.0726657,-0.7843165052631579,1.0511899578947368,-2.1553997210526314,2.7195550315789476,-6.756252294736842
804,1747679584720,1.8668413444444445,-0.9270514444444444,1.6795274222222223,-0.7971574666666666,2.94103,-6.289641911111111
805,1747679584730,1.6758801,-1.0022211,1.956668,0.56578815,2.874747,-6.056823
806,1747679584740,1.3522601,-1.078367,1.8937011999999998,2.3367048578947367,2.458229105263158,-5.861431084210526
807,1747679584750,1.0774517777777777,-1.2213573166666667,1.3744558277777779,4.095894444444444,1.8471227555555556,-5.599528677777778
808,1747679584760,0.9588399,-1.3795334999999997,0.8335165,5.133639,1.3673991,-5.3569446
809,1747679584770,0.9184240499999999,-1.6018209899999998,0.1943305825,5.133639,1.3673991,-5.3569446
810,1747679584780,0.9079714042857143,-1.8809319071428572,-0.7195940725,5.045297928571429,0.8100378892857142,-4.687959028571428
811,1747679584790,0.89099205,-1.9764977,-1.2077783,4.10779,0.67284715,-4.2117863
812,1747679584800,0.8821788672222222,-1.977419688888889,-1.1889587777777777,2.6657778055555554,1.2235884194444444,-3.869422077777778
813,1747679584810,0.73235476,-1.9930935,-0.8690269,1.4680665,1.8595508000000003,-3.6056510999999998
814,1747679584820,0.4586852699999999,-2.1670250166666665,-0.630989675,0.75327456,2.0491679,-3.3979247
815,1747679584830,0.18553097744444444,-2.2315917444444446,-0.5807410055555555,0.6956319611111111,2.000284127777778,-3.3501061944444444
816,1747679584840,0.008969104,-2.1536832,-0.4594988,-0.28429222,1.16926,-2.5371916
817,1747679584850,0.029958028222222224,-2.113874788888889,-0.2886044781111111,-0.6074222033333334,0.8088457833333333,-2.0924440166666667
818,1747679584860,0.045089576,-2.1683266,-0.110008806,-0.92664623,0.49281758,-1.5060165
819,1747679584870,0.003787580615384615,-2.1258982153846153,0.01089340169230769,-0.9996576892307693,0.31164082769230766,-1.1310436769230767
820,1747679584880,-0.01090800313888889,-1.942600861111111,0.20574703966666666,-0.9777196822222223,-0.04727107444444445,-0.4471444138888889
821,1747679584890,0.13164854983333335,-1.7657136,0.23956252000000003,-0.9085959211111112,-0.24546929833333334,0.058441543333333304
822,1747679584900,0.3744583994444445,-1.5024571833333333,0.27584571,-0.7894047583333333,-0.4128340616666667,0.9147951833333333
823,1747679584910,0.4623190155555556,-1.3363626222222222,0.3113424822222222,-0.6864884666666666,-0.4173910122222222,1.2195197666666668
824,1747679584920,0.4738710377777778,-1.1574956611111111,0.3124813988888889,-0.5288886205555555,-0.4481061194444444,1.4306194333333333
825,1747679584930,0.40222667333333334,-0.9724460666666666,0.23487119777777776,-0.3523507433333333,-0.4762172333333333,1.6492944555555555
826,1747679584940,0.33124670749999996,-0.8511496375000001,0.16663008499999998,-0.24920511062500003,-0.500607346875,1.83877826875
827,1747679584950,0.30151239333333335,-0.7775799333333333,0.12260487,-0.16569287933333332,-0.5401330777777777,2.0366954
828,1747679584960,0.31824387777777774,-0.7200909388888889,0.07561028533333332,-0.086153194,-0.6139913,2.221341
829,1747679584970,0.3150169,-0.6868991,0.036425546,-0.030286037555555558,-0.6660708911111111,2.3766328222222217
830,1747679584980,0.2936426178947369,-0.6441505526315789,-0.007967184105263158,0.038258383,-0.6978107673684211,2.668527542105263
831,1747679584990,0.32393853777777776,-0.5833374855555555,-0.07893218427777778,0.045584405555555554,-0.7063733811111111,2.9629421166666665
832,1747679585000,0.41654468333333333,-0.48180969,-0.19485937833333333,-0.033955280000000004,-0.6512755750000001,3.5726278833333334
833,1747679585010,0.5035575273684211,-0.36374163894736844,-0.24025832000000003,-0.19940754210526315,-0.45616415263157895,4.204525510526316
834,1747679585020,0.7552962,-0.21538053,-0.25693128,-0.33649015,-0.2837596,4.6906223
835,1747679585030,1.1490247894736842,-0.12805940815789474,-0.1839966842105263,-0.4456516310526316,-0.15099411684210526,5.318847357894737
836,1747679585040,1.6164587,0.12383335942105264,-0.08200644368421053,-0.41913217157894733,-0.17229938894736843,5.905471205263158
837,1747679585050,1.9414145,0.34692737,-0.03825597,-0.331696465,-0.30044874499999996,6.3463969
838,1747679585060,2.0106453944444445,0.380200505,-0.04300152777777778,-0.21280120444444442,-0.4716011,6.7256308
839,1747679585070,3.1875706,0.9458438,-0.12367601000000002,-0.13515532,-0.53409654,6.933001999999999
840,1747679585080,3.6245957388888885,1.0836819722222222,-0.20988245277777778,-0.154270885,-0.43550049722222217,6.931995883333332
841,1747679585090,3.6503031,1.0917901,-0.21495341999999998,-0.25586652157894735,-0.20094937842105262,6.7543180052631575
842,1747679585100,3.843976177777778,1.247227511111111,-0.2031302,-0.4188705444444445,0.00871444777777778,6.600166366666667
843,1747679585110,3.8933841736842103,1.3260079894736843,-0.11473580105263158,-0.4439135742105263,-0.030002591578947368,6.631196168421052
844,1747679585120,4.091640127777778,1.3381251611111111,-0.14745802444444445,-0.36608080111111113,-0.20942787777777777,6.748948244444445
845,1747679585130,4.420493799999999,1.335467611111111,-0.3044410666666667,-0.36258912000000004,-0.2986732916666667,6.7062785
846,1747679585140,4.561587447368421,1.3862001631578946,-0.5105452526315789,-0.5816129210526316,-0.24170972473684213,6.380410663157894
847,1747679585150,4.496077205263158,1.4930202,-0.6390220999999999,-1.0584585710526315,-0.19091346736842105,5.986991957894737
848,1747679585160,4.4442856736842105,1.5358458,-0.6384826410526315,-1.4685289789473683,-0.18435367842105263,5.657040557894737
849,1747679585170,4.1843001157894735,1.5236428947368423,-0.5211296484210526,-1.9863592315789473,-0.06139983678947368,5.090768805263158
850,1747679585180,4.0085793,1.5286525,-0.42825943,-2.2411816,-0.018508956,4.7257757
851,1747679585190,3.3773701736842106,1.5429877,-0.19797217631578948,-2.469260168421053,-0.1597965587368421,4.232278510526316
852,1747679585200,2.807740594736842,1.567367752631579,0.03755590894736842,-2.535306547368421,-0.43738182789473684,3.9027195684210527
853,1747679585210,2.305933057894737,1.6040534315789474,0.32002006842105263,-2.359930394736842,-0.7188917831578948,3.6922457684210523
854,1747679585220,1.9037011105263155,1.6525051210526316,0.5511551368421053,-1.9773886263157896,-0.8824377684210527,3.523765931578947
855,1747679585230,1.6436645,1.7058381,0.630949,-1.3061167888888887,-0.9546389500000001,3.246538888888889
856,1747679585240,1.6436645,1.7058381,0.630949,-0.9660609399999999,-0.9484841,3.0703561
857,1747679585250,1.1945992,1.69448945,0.44375707124999997,-0.55107421,-0.9311735875,2.7128935937499996
858,1747679585260,0.8992201428571429,1.5987319142857142,0.26737342571428574,-0.3555127128571428,-0.9299180749999999,2.4222193499999998
859,1747679585270,0.588361,1.5008300000000003,0.14185826,-0.32583752,-0.8270440699999999,2.1116188
860,1747679585280,0.2300275411764706,1.4075714588235295,0.10556552211764707,-0.42008201882352947,-0.6064718252941176,1.9411766352941175
861,1747679585290,-0.14684788222222223,1.3505450222222224,0.1844327051111111,-0.5812640333333333,-0.30388126000000004,1.8292056
862,1747679585300,-0.43877543,1.2830448764705884,0.344339665882353,-0.6788784176470588,-0.08229944964705883,1.7072572235294117
863,1747679585310,-0.6528056511111111,1.2610031555555556,0.46189868444444443,-0.6539387111111111,0.03700311688888889,1.5728321666666667
864,1747679585320,-0.86085089375,1.28148363125,0.61529883125,-0.408528596875,0.28309380875,1.28490765625
865,1747679585330,-1.0035430222222221,1.3257596111111112,0.7443000444444444,-0.1123113377777778,0.4756550222222222,1.0199602933333332
866,1747679585340,-0.9603114264705884,1.3172990058823528,0.7156799705882353,0.2965897517647059,0.5850568976470588,0.6818470435294117
867,1747679585350,-0.8920902489473684,1.2846210210526317,0.6408397684210526,0.7139158368421054,0.6178458600000001,0.27403906210526313
868,1747679585360,-0.7743972494117647,1.2167761529411765,0.47739393823529414,1.0731670176470587,0.5812971458823529,-0.19430095823529414
869,1747679585370,-0.7133890105263158,1.1612308157894737,0.3549331047368421,1.3219011157894736,0.5103664294736842,-0.6480867789473684
870,1747679585380,-0.69944774,1.0876411166666666,0.21263488,1.5010896777777778,0.42771814222222226,-1.1445961388888888
871,1747679585390,-0.72222644,1.0156442,0.09304683,1.5564834,0.38309544,-1.4069469
872,1747679585400,-0.7296251978947369,0.976183987368421,0.030157128315789473,1.5396634421052633,0.3608930968421053,-1.5172857631578947
873,1747679585410,-0.6652454684210527,0.9146816447368421,-0.061557018684210534,1.438799705263158,0.35736090789473685,-1.6656377947368421
874,1747679585420,-0.6407113,0.9009373999999999,-0.08121005,1.2510891,0.47196084105263153,-1.7808544526315788
875,1747679585430,-0.24888380184210526,0.829801057368421,-0.15219217526315787,0.95724452,0.708897934736842,-1.9327386947368421
876,1747679585440,-0.025918241052631585,0.8723697747368421,-0.11984816263157895,0.72585804,0.8115557052631579,-2.0329295684210527
877,1747679585450,0.1929308388235294,0.9141738682352941,-0.0866080211764706,0.555950144117647,0.7972950411764705,-2.164600176470588
878,1747679585460,0.5746424115789474,0.9479247599999999,-0.0004913250526315804,0.4303875289473684,0.7341839421052632,-2.4381782631578948
879,1747679585470,0.7306592157894736,0.973024085263158,0.09864730105263157,0.3738164347368421,0.6448139105263158,-2.789603142105263
880,1747679585480,0.80850065,0.99075043,0.21117054,0.37297544,0.5556682,-3.0730193
881,1747679585490,0.8056233394736843,0.9920349426315789,0.25304561999999997,0.4894255610526315,0.45704718,-3.3419142105263155
882,1747679585500,0.7817313868421053,1.0123559263157895,0.6224197984210526,0.7220455421052631,0.3389150371052631,-3.549528710526316
883,1747679585510,0.79190475,1.1816032,0.86426777,1.2720579,0.099735305,-3.6514575000000002
884,1747679585520,1.0119955649999999,1.3314055000000002,0.824730437,1.6921979,-0.0724112958,-3.64975294
885,1747679585530,1.5003387578947367,1.5728654315789474,0.5740194505263158,2.025143357894737,-0.2730509044210526,-3.7213163473684205
886,1747679585540,2.3261028444444443,1.9488106888888888,0.2434945666666667,1.9632364666666666,-0.32388453666666667,-3.913334783333333
887,1747679585550,2.7873681368421055,2.1313712157894735,0.15850555210526315,1.6931173842105265,-0.2686216363157895,-4.133853610526315
888,1747679585560,3.3220846473684214,2.368672,0.28500426842105264,1.318705210526316,-0.15340497305263157,-4.291456589473684
889,1747679585570,3.7290950842105266,2.5180863842105263,0.4749321894736842,1.1320598578947367,-0.06952947652631579,-4.314612136842105
890,1747679585580,3.9934477999999998,2.6493635,0.5943404,1.1218557,-0.06325003,-4.271441
891,1747679585590,4.6570265157894735,2.9064713315789477,0.6026640452631579,1.176352405263158,-0.13591222157894736,-4.190705031578947
892,1747679585600,4.693892,2.9207551,0.60312647,1.0515484,-0.11970900000000001,-4.4962115
893,1747679585610,6.205557010526316,2.979945352631579,0.10602039421052631,0.8507181368421053,-0.02484447157894737,-4.907963868421052
894,1747679585620,6.432350568421052,2.388402,-0.2705471010526316,0.2806899526315789,0.3302807863157895,-6.097919421052632
895,1747679585630,5.738456957894737,1.690809242105263,-0.35008405894736844,-0.33093957105263155,0.8453077368421053,-7.288267421052631
896,1747679585640,4.3441194526315785,1.0181361531578947,-0.1888264489473684,-0.7044546578947368,1.1949385105263157,-7.8110876052631575
897,1747679585650,2.5859310210526316,0.6531036257894737,0.15257109368421054,-0.8947443315789474,1.2737679736842105,-7.544323131578947
898,1747679585660,2.046847,0.57146007,0.30830532,-0.80840194,1.1309105,-6.969753700000001
899,1747679585670,2.0127818684210523,0.4329126105263158,0.40728977894736845,-0.5269480915789474,0.9646172231578948,-6.20164257368421
900,1747679585680,1.9978815315789475,0.32640086421052633,0.43709048,-0.27621865394736844,0.9996587842105263,-5.835696389473685
901,1747679585690,1.8691734,0.24393523,0.4679187799999999,0.022503695,1.1298453,-5.594498
902,1747679585700,1.6546085684210527,0.18012067315789473,0.5146236357894738,0.30177095789473685,1.1898925210526314,-5.376231421052631
903,1747679585710,1.4064409,0.027212382999999996,0.51819456,0.8779104,1.1404979,-4.8509445
904,1747679585720,1.3069740111111112,-0.07908810733333334,0.4498585222222223,1.1847063111111111,1.0297104333333333,-4.5498296555555555
905,1747679585730,1.0772204105263157,-0.230435008,0.2630648110526316,1.4661601368421053,0.8813024210526316,-4.142600152631579
906,1747679585740,0.8330347578947368,-0.32551457368421055,0.10111356184210525,1.5911324315789475,0.8579226947368422,-3.624209231578947
907,1747679585750,0.5551692,-0.42673409999999995,-0.013362135,1.6097466,0.9615336,-3.0868678
908,1747679585760,0.45230550421052634,-0.48535921052631575,-0.07414523499999999,1.6097466,0.9615336,-3.0868678
909,1747679585770,0.18959716189473683,-0.6078759636842106,-0.17338661710526315,1.4231571578947368,1.1224444105263158,-2.366749505263158
910,1747679585780,-0.005854161894736844,-0.6630072242105264,-0.21801055157894736,1.267348305263158,1.1107265210526318,-2.0612430421052634
911,1747679585790,-0.10679110210526317,-0.6765203105263158,-0.22135030210526316,1.118323597368421,1.0893651789473686,-1.8104576631578946
912,1747679585800,-0.1512865947368421,-0.713334427368421,-0.1937846652631579,0.9145778942105263,1.1292845263157893,-1.4652000631578947
913,1747679585810,-0.1357183136842105,-0.7789472705263158,-0.1442795794736842,0.79162407,1.1788474,-1.2450268
914,1747679585820,-0.13160788,-0.8767756999999999,-0.07974571,0.7522093,1.0957568,-1.0415615
915,1747679585830,-0.14121601157894736,-0.9435959894736843,-0.055288597368421045,0.7760375736842104,0.9213339368421053,-0.8890605842105263
916,1747679585840,-0.14234638,-0.9514571999999999,-0.05241129,0.8271328466666666,0.5902300444444445,-0.6703763311111112
917,1747679585850,0.059578871315789476,-1.0231329631578947,-0.03584109,0.8802652031578948,0.3310657210526316,-0.518292812631579
918,1747679585860,0.2556210615789474,-1.078469763157895,-0.0738112647368421,0.9256230210526316,0.09822151263157894,-0.43565078736842106
919,1747679585870,0.3182538852631579,-1.0797028631578949,-0.20501129894736841,0.876620852631579,-0.11146722631578947,-0.38844278684210526
920,1747679585880,0.27478597894736845,-1.0518032736842104,-0.3761853384210527,0.6780333105263159,-0.25920248631578946,-0.3074266684210526
921,1747679585890,0.2237908710526316,-1.0302491368421054,-0.467462747368421,0.22254899473684212,-0.3422930189473684,-0.10188685242105264
922,1747679585900,0.1674436025,-1.0150747166666667,-0.47804715,-0.20380565555555555,-0.3554873388888889,0.1211145591111111
923,1747679585910,0.105615765,-0.9988043,-0.4097111,-0.5825661,-0.33276173,0.38908756
924,1747679585920,0.07681701,-0.9851370500000001,-0.34381565,-0.7565965,-0.32468815526315786,0.5667062378947368
925,1747679585930,0.07943742578947369,-0.9462677578947369,-0.2293913252631579,-0.9919636210526316,-0.350086267368421,0.9166733694736843
926,1747679585940,0.17495371789473682,-0.8818623263157895,-0.08971351578947369,-1.1195710842105264,-0.44758592684210524,1.3315655789473684
927,1747679585950,0.29991104105263156,-0.7999104684210526,-0.012899709684210526,-1.0927712631578945,-0.5836033015789474,1.5923868736842106
928,1747679585960,0.4008708088888889,-0.7146674222222222,0.01559932511111111,-0.99062121,-0.7214054427777777,1.7243955055555555
929,1747679585970,0.48652488947368416,-0.6365976236842105,0.03236648463157894,-0.8618893863157894,-0.8309126594736842,1.7954597736842104
930,1747679585980,0.5267501,-0.5695347055555556,0.020914349333333335,-0.7235359666666666,-0.925403425,1.793637733333333
931,1747679585990,0.5170192421052631,-0.5152369631578947,-0.013541965578947367,-0.55856958,-1.0772689157894737,1.7663612999999998
932,1747679586000,0.4307,-0.4848197,-0.035327286,-0.45260388,-1.1807116,1.7739303
933,1747679586010,0.31080367894736843,-0.47464639052631585,-0.01410715105263158,-0.3486565794736842,-1.2282560105263158,1.8884181157894735
934,1747679586020,0.1807854,-0.4628546,0.010555476,-0.18841851,-1.3042822,2.1190758
935,1747679586030,0.09731783,-0.45553288,0.018365309,-0.09517660882352941,-1.3483965529411766,2.2985414
936,1747679586040,0.08483237252631579,-0.4282498252631579,-0.03388863321052632,0.02839067578947368,-1.3730196736842106,2.634382947368421
937,1747679586050,0.18399668557894736,-0.3786419684210526,-0.11160160105263157,0.11809708684210525,-1.3489671578947369,3.1356736842105266
938,1747679586060,0.4506584933333333,-0.3044343088888889,-0.26875449444444444,0.08286863333333333,-1.3194325777777778,3.756267555555555
939,1747679586070,0.8895019284210526,-0.19968379357894736,-0.38597334105263154,-0.15775012315789472,-1.3317546947368424,4.375920778947368
940,1747679586080,1.5380691166666667,0.024120991666666668,-0.40352831333333333,-0.47331735555555554,-1.2545699333333333,4.882014311111111
941,1747679586090,1.9701269705882354,0.2280284294117647,-0.33327810941176467,-0.7290084635294117,-1.068420256470588,5.286480588235294
942,1747679586100,2.361038684210526,0.3539665052631579,-0.3118569921052632,-0.9260294736842106,-0.9249361631578947,5.638594552631579
943,1747679586110,2.7799951578947373,0.4252312194736842,-0.27756054,-1.087501,-0.8206525,5.837911
944,1747679586120,3.0528512421052634,0.46335552894736837,-0.19034217231578948,-1.2479633736842104,-0.811681852631579,5.918310336842105
945,1747679586130,3.200210147368421,0.4132081842105263,-0.06605280631578948,-1.2846869368421052,-0.9442230736842104,6.012670157894736
946,1747679586140,3.3135042,0.3176405,0.06766488,-1.188701,-1.1487536,6.228863
947,1747679586150,3.4310854444444443,0.3124339488888889,0.11712714222222223,-1.12265465,-1.2153326,6.35989035
948,1747679586160,3.9213866421052628,0.39301565263157895,0.027665173684210526,-0.8497790526315789,-1.5344912473684211,7.078999236842105
949,1747679586170,4.3475363157894735,0.44552650526315785,-0.13590456105263157,-0.8643002842105263,-1.6172454315789475,7.323337142105264
950,1747679586180,4.86528135,0.50263590125,-0.34430375625,-1.221724225,-1.51007776875,7.29545800625
951,1747679586190,5.002329136842104,0.5849217026315788,-0.3284785494736842,-1.9923023157894737,-0.9909264210526315,6.808366157894737
952,1747679586200,4.569499873684211,0.6788452373684211,-0.0008766757894736874,-2.3696859157894736,-0.6443233,6.550572473684211
953,1747679586210,4.1286554,0.75206244,0.39372534,-2.5437164,-0.4595281,6.431263
954,1747679586220,3.8702802555555555,0.8099311177777778,0.7003697066666666,-2.317998944444444,-0.5358719988888889,6.401316977777778
955,1747679586230,3.6966484578947374,0.919074647368421,0.9524623789473684,-1.8757961,-0.78017247,6.391848
956,1747679586240,3.6698277,1.0873971,1.0287622,-1.3459675999999998,-1.023220809473684,6.321204315789474
957,1747679586250,3.637612433333333,1.1964093,0.9571721066666667,-0.695484,-1.1711242,6.1265974
958,1747679586260,3.6215048,1.2509154,0.92137706,-0.2853575,-1.0528799,5.824063
959,1747679586270,3.375263694736842,1.6050553736842106,0.44508011789473684,-0.23069265052631577,-0.7992350526315789,5.509922105263158
960,1747679586280,3.0185033210526315,1.7035259105263159,0.1388782052368421,-0.39390225736842105,-0.3613556531578947,4.798494089473684
961,1747679586290,2.411288852631579,1.5816258578947369,-0.009046174394736841,-0.7550266289473684,-0.09717026936842106,4.01726342631579
962,1747679586300,1.9811142499999999,1.4663367166666668,-0.011572380333333333,-1.0166018333333335,-0.05472791955555555,3.5635731999999996
963,1747679586310,1.294200252631579,1.296438505263158,0.04233429989473684,-1.2479633631578948,-0.06627762094736843,3.227005952631579
964,1747679586320,0.611507902631579,1.1560155842105262,0.15627049789473685,-1.5004869315789473,-0.15149871,3.07742042631579
965,1747679586330,0.31463153421052636,1.0873713947368422,0.2844133905263158,-1.5901372157894738,-0.2749010915789474,3.1071357
966,1747679586340,0.14502458836842105,1.0489644526315791,0.42637764789473687,-1.5956317,-0.3455449,3.1236193
967,1747679586350,-0.015436620999999998,1.0512766,0.57481587,-1.5136625315789474,-0.35984184631578947,3.060712589473684
968,1747679586360,-0.17846686,1.0927664,0.6553547,-1.2792485,-0.41478702,2.8935223
969,1747679586370,-0.3578874684210526,1.1792397263157894,0.6747765105263158,-1.0462921368421052,-0.48879484105263166,2.730368878947368
970,1747679586380,-0.5294468294736842,1.2836191526315788,0.529549652631579,-0.7239658094736842,-0.6000307915789475,2.442859852631579
971,1747679586390,-0.6059977129411764,1.3418483,0.36211275764705886,-0.6550039917647058,-0.6762152470588234,2.226918011764706
972,1747679586400,-0.7990658863157895,1.478017147368421,0.22234578684210526,-0.7285071794736842,-0.7512421342105263,1.9040045736842106
973,1747679586410,-1.0166621842105263,1.6437705263157896,0.25707898421052633,-0.8396870789473684,-0.7891991726315789,1.6873635842105263
974,1747679586420,-1.1582753499999998,1.8006136166666669,0.43342530833333337,-1.0621714888888887,-0.8197647661111112,1.4064143444444444
975,1747679586430,-1.078318805263158,1.8815335789473686,0.568778594736842,-1.0843053,-0.6960166,1.3339764
976,1747679586440,-0.8818399,1.9855276000000002,0.6875703,-1.051282,-0.374307,1.2125363
977,1747679586450,-0.4647331663157895,2.0493424315789475,0.7573963073684211,-1.051282,-0.374307,1.2125363
978,1747679586460,-0.17972568052631577,2.0474926157894737,0.742573055263158,-0.9288327684210527,0.07702838210526317,0.7313735421052632
979,1747679586470,0.33454147,1.9850397,0.6660933,-0.8507882342105262,0.4898460831578948,0.014339007473684212
980,1747679586480,0.5710058522222222,1.8835117888888888,0.6478703222222222,-0.8398272094444444,0.6463930950000001,-0.5637316094444444
981,1747679586490,0.6656886105263158,1.7748677736842102,0.7141853815789473,-0.736636822631579,0.7745517810526316,-1.499232410526316
982,1747679586500,0.8169013478947369,1.6174894052631579,0.9453460894736843,-0.4440256984210527,0.8330291578947367,-2.1430441789473686
983,1747679586510,0.8954137641176471,1.509702182352941,1.0461047352941175,0.04236773117647058,0.9469958823529412,-2.6463499176470586
984,1747679586520,0.9319935999999999,1.4290771,0.9945943,0.4444602210526315,1.0548843263157894,-2.9694084736842106
985,1747679586530,0.9591224631578946,1.4126353736842105,0.9060143631578947,0.9430036157894736,1.1033258315789474,-3.350884842105263
986,1747679586540,1.0884952,1.356836275,0.53692594125,1.16140365,1.0948247875,-3.5467953875
987,1747679586550,1.2819717,1.3978379,0.27853033,1.2667316,1.0659294,-3.7089818
988,1747679586560,1.7505615666666665,1.5327744333333333,-0.006528529555555557,1.156240118888889,1.0027238027777778,-3.964644894444444
989,1747679586570,2.16333435882353,1.6594385823529412,-0.2741588286470588,0.84382194,1.0147967,-4.364119
990,1747679586580,2.6931107,1.8024849000000003,-0.47902334,0.48695864999999994,1.0680599,-4.6442833
991,1747679586590,3.2511882,1.98756165,-0.35740149833333335,0.19614166666666666,0.9595213999999999,-4.863017511111111
992,1747679586600,4.206907863157895,2.1346081842105264,-0.11568634652631579,0.04739722257894737,0.7980997236842104,-5.2708264736842105
993,1747679586610,5.298258916666667,2.1626862722222224,0.004670983944444445,0.11376127666666666,0.7245716388888889,-5.749790333333333
994,1747679586620,5.725509210526315,2.146297315789474,-0.2020569247368421,0.19081534,0.6781735,-6.062149
995,1747679586630,6.102538947368421,2.0587449052631577,-0.5979691336842105,-0.08334987663157896,0.6611292368421052,-6.425964636842106
996,1747679586640,6.326635,1.9191442,-0.8387637,-0.37270913,0.7026745,-6.639522
997,1747679586650,6.219609505263158,1.5191471578947369,-1.0199826578947369,-1.0128764931578946,0.9870438684210526,-7.089624105263159
998,1747679586660,5.7745776,1.1220531,-0.9515182,-1.5626086,1.3759211,-7.464036
999,1747679586670,5.172501115789474,0.8105847105263159,-0.7324832336842105,-1.8990637421052632,1.681876094736842,-7.682303115789473
1000,1747679586680,4.564899713333333,0.5555149533333333,-0.5049259626666667,-1.9606621,1.7668729333333333,-7.6987492
