id,timestamp,acc_x,acc_y,acc_z,gyro_x,gyro_y,gyro_z
0,1747679336440,0.16467762,0.4064773300000001,0.7988604,-0.44607913000000005,-0.86339617,-0.8221171999999999
1,1747679336450,0.14900053529411764,0.39843779705882354,0.8089097894117647,-0.4583610088235294,-1.0406058888235294,-0.8615946223529412
2,1747679336460,0.23350177176470588,0.38034885764705884,0.846379768235294,-0.4772851105882353,-1.0741930470588235,-0.90201197
3,1747679336470,0.2891468325,0.38292582500000005,0.88220593,-0.5174518250000001,-0.908936225,-1.00188045
4,1747679336480,,,,,,
5,1747679336490,,,,,,
6,1747679336500,0.27401528,0.3439987,1.0058209,-0.6463487,0.47777075,-1.2929637
7,1747679336510,0.22417017482352944,0.33205425294117646,1.0276425,-0.6392051705882352,0.5766522852941176,-1.2970994647058822
8,1747679336520,0.034676465999999996,0.29502455111111114,1.0979118666666665,-0.6114317333333333,0.7290546111111111,-1.2665689222222223
9,1747679336530,-0.201652305,0.2959194,1.1024675,-0.49028759,0.337155934,-0.984569915
10,1747679336540,-0.19557799722222222,0.2990921488888889,1.1290427055555556,-0.28409989722222223,-0.41604463133333336,-0.6743414838888889
11,1747679336550,-0.13648902,0.3176405,1.1512791,-0.09028109,-0.8623309000000001,-0.4833634
12,1747679336560,-0.07713429359999999,0.33443166,1.11769678,0.068230134,-1.00720674,-0.375984816
13,1747679336570,0.0014846826666666665,0.3610284622222222,0.9938892677777778,0.1915403188888889,-1.0409400777777778,-0.28865686444444444
14,1747679336580,0.019707624,0.36742818,0.96091443,0.21544957,-1.0402299,-0.27137592
15,1747679336590,0.12792957600000002,0.3942047514285714,0.85269247,0.15579480714285715,-0.9659658428571428,-0.28659397714285717
16,1747679336600,0.24886452421052632,0.41921970210526316,0.7690597263157896,0.08952419615789474,-0.9167715136842105,-0.3480188421052632
17,1747679336610,0.40303003625,0.434696445,0.7645093275,-0.03362238328125,-0.96712625,-0.70520455625
18,1747679336620,0.3700407172727273,0.4314599163636364,0.7605212018181817,-0.07013792645454546,-0.9746678290909091,-0.8369340763636365
19,1747679336630,0.17877871555555555,0.4234528877777778,0.7396358222222222,-0.18615483,-0.9528783600000001,-1.0767152
20,1747679336640,0.060606477894736846,0.4221483821052631,0.7750198421052632,-0.20297477210526316,-0.999974207368421,-1.0725103052631577
21,1747679336650,0.05596368088888889,0.4147210588888888,0.8093005950000001,-0.15822123666666668,-1.1593027000000002,-1.0628668666666665
22,1747679336660,0.07844406755555557,0.3982336333333334,0.8418687144444444,-0.037372999444444444,-1.369810761111111,-1.0829292944444444
23,1747679336670,0.07668856452631578,0.3892392010526316,0.8432531263157894,0.12994814578947367,-1.6017921263157895,-1.1236429210526315
24,1747679336680,0.03679163,0.38597652,0.7446797,0.36032543,-1.9595525,-1.1779152
25,1747679336690,0.002880517999999999,0.3832019810526316,0.7064526263157894,0.4242412447368421,-2.107568015789474,-1.1806064842105262
26,1747679336700,-0.086050519,0.36246569166666665,0.5592775416666667,0.5882918377777778,-2.6479495333333336,-1.094351211111111
27,1747679336710,-0.09782520894736843,0.35247646684210526,0.4747010078947368,0.6267534526315789,-2.918401842105263,-1.0030998578947368
28,1747679336720,-0.08140914736842104,0.3353667705263158,0.3491528031578947,0.5495498752631578,-3.135379194736842,-0.8648398684210526
29,1747679336730,-0.042822413684210525,0.30957378631578947,0.22568550421052633,0.3286478484210526,-3.204116752631579,-0.7084143105263158
30,1747679336740,0.04210950736842105,0.2804410594736842,0.16865318578947366,-0.11820221368421054,-3.0174713631578944,-0.5028745263157894
31,1747679336750,0.13490264,0.26101923,0.17358571,-0.39068544,-2.8149593,-0.4066644
32,1747679336760,0.3901608631578948,0.19936265736842107,0.3454020384210526,-1.0221064589473683,-2.3018385421052634,-0.4820177726315789
33,1747679336770,0.4542066052631579,0.17845080157894735,0.5124913157894737,-1.2768516684210527,-2.1204072631578947,-0.6360885257894737
34,1747679336780,0.43416818947368424,0.18089138315789474,0.6650912894736842,-1.2962506736842105,-2.1501785315789474,-0.7861225047368421
35,1747679336790,0.3756515577777778,0.20331324,0.8007585555555555,-1.1624246222222223,-2.3203217555555558,-0.8706458966666667
36,1747679336800,0.33860053368421056,0.23625383789473683,0.8837152157894735,-0.9024815494736842,-2.6270803052631577,-0.8889484763157895
37,1747679336810,0.3437614177777778,0.2581176572222222,0.9044286638888889,-0.6785433622222222,-2.9063351833333333,-0.87153359
38,1747679336820,0.3989725866666667,0.28585882777777777,0.8645388666666667,-0.47093530888888885,-3.196678688888889,-0.8528914733333334
39,1747679336830,0.49708359473684216,0.32005538052631577,0.7135944857894737,-0.2518086931578947,-3.558008594736842,-0.82688286
40,1747679336840,0.5602944216666667,0.32724008,0.5727006683333333,-0.27492679000000003,-3.6812552444444444,-0.8150154755555555
41,1747679336850,0.70502037,0.26882908,0.39421347,-0.7935232978947369,-3.6361654315789473,-0.8855845242105262
42,1747679336860,0.7284498722222222,0.17120616444444442,0.4840265455555556,-1.2753277333333335,-3.3808507999999997,-0.9965837155555555
43,1747679336870,0.7484354533333333,0.09815168666666668,0.6492261655555556,-1.5992713888888888,-3.1641290444444445,-1.1128158666666668
44,1747679336880,0.7408069094736842,0.12827777157894737,0.812835905263158,-1.7551340315789474,-3.0600820631578944,-1.150050210526316
45,1747679336890,0.7705090716666667,0.273710195,1.0606525,-1.7952799000000002,-3.101337633333333,-1.07085625
46,1747679336900,0.8960015368421054,0.4534904863157894,1.3128192684210527,-1.6500022263157894,-3.268088736842105,-0.9442861157894736
47,1747679336910,1.1188330666666666,0.599553731111111,1.5054331666666667,-1.4564817,-3.4376058499999997,-0.8769783
48,1747679336920,1.361508747368421,0.6698022789473683,1.5221946052631579,-1.176457510526316,-3.363850352631579,-1.0866390157894736
49,1747679336930,1.6731954944444445,0.7455813555555556,1.4620724444444444,-1.0593158999999999,-2.6679527666666667,-1.5464965
50,1747679336940,1.7047558736842106,0.7412468105263158,1.4178153368421054,-1.184285784210526,-1.6847144210526317,-1.9806754842105263
51,1747679336950,1.6168182,0.7082947900000001,1.4070510666666667,-1.3911898666666667,-0.7490578766666667,-2.3390525666666666
52,1747679336960,1.24728513125,0.61230911375,1.51925639375,-1.8242556,0.88163885125,-2.8515775312500002
53,1747679336970,0.99529595625,0.6148412125,1.69168288125,-1.8441794625,1.357079334375,-2.885266425
54,1747679336980,0.8746052799999999,0.6947438357142858,1.8272479428571429,-1.7216753142857144,1.3932887714285713,-2.8360741714285713
55,1747679336990,0.74114084,0.92095006,2.0621006,-1.3301148,1.0785794,-2.7108297
56,1747679337000,0.85134628,1.0012177400000002,2.1579879777777777,-0.8037562222222222,0.43468673333333335,-2.514821077777778
57,1747679337010,1.000134404,1.04785978,2.18608174,-0.5762543680000001,0.106206782,-2.4609188
58,1747679337020,1.7326515923076924,1.170939746153846,2.3351443,-0.1272375446153846,-0.6333811792307693,-2.757947046153846
59,1747679337030,2.088824928571429,1.1331403142857142,2.4359265857142858,-0.069128,-0.5998195285714285,-3.165545014285714
60,1747679337040,2.280111577777778,1.0095156444444444,2.5234231444444446,-0.15845796444444446,-0.15298369999999997,-3.7210547888888885
61,1747679337050,2.336299,0.92534304,2.5648587,-0.239418,0.17843166,-4.0434747
62,1747679337060,2.0343358631578945,0.7155565768421052,2.854798594736842,-1.0746547831578948,1.8116490347368421,-4.3549801105263155
63,1747679337070,1.8792610666666667,0.5250078,3.501306416666667,-1.8922189333333332,3.713331577777778,-4.048682366666667
64,1747679337080,1.9231642555555557,0.2889773322222222,4.179406,-1.7842130166666668,4.460435977777778,-3.789645722222222
65,1747679337090,2.0919162444444446,0.03561879911111111,4.946803111111111,-1.0386985833333333,4.4863575,-3.6882089500000004
66,1747679337100,2.3298993333333335,-0.17860922538888888,5.158210777777778,0.23693238333333333,4.014623666666667,-3.762954933333334
67,1747679337110,2.47538455,-0.3683772844444444,4.97321555,1.0705011999999998,3.7166458,-3.9002557222222225
68,1747679337120,2.4775267666666667,-0.474732,4.5287061,2.446880938888889,3.5117008722222223,-4.210247633333333
69,1747679337130,2.432457505263158,-0.4994374478947369,4.123845026315789,3.090820347368421,3.721218168421052,-4.403141136842105
70,1747679337140,2.4187903,-0.5014156,3.9945460000000006,3.2376025,3.824829,-4.4557314
71,1747679337150,1.939924352631579,-0.47212872105263154,3.46404252631579,3.553256868421053,4.789733736842106,-4.5084339263157895
72,1747679337160,1.508945,-0.44577053,2.9865894,3.986423422222222,5.997966905555556,-4.181544388888889
73,1747679337170,1.508945,-0.44577053,2.9865894,4.081291,6.2142153,-3.9433396
74,1747679337180,0.7653838333333334,-0.43275417166666663,2.6701287333333332,4.8074460000000006,5.835159216666667,-2.5425180166666665
75,1747679337190,1.128215688888889,-0.8314894777777778,2.262770111111111,5.720613533333333,5.429826222222222,-1.7709120111111112
76,1747679337200,1.2125509666666667,-1.1380796444444445,1.794993622222222,6.476595561111111,5.207541044444444,-1.4629917166666668
77,1747679337210,1.1135721684210527,-1.3567463105263158,1.2683751578947369,6.967538836842104,4.930460778947369,-1.167711163157895
78,1747679337220,1.064580847368421,-1.4787750000000002,0.9088659789473684,7.220062557894736,4.553637705263158,-0.9115432789473684
79,1747679337230,1.0043701,-1.6175165333333335,0.14017698722222224,7.275129288888889,3.9997098833333333,-0.5650335888888889
80,1747679337240,0.9772598368421053,-1.647148747368421,-0.3235974321052632,7.0583106,3.8605995210526314,-0.40458994210526317
81,1747679337250,1.0490326444444444,-1.6080253777777778,-0.7014408744444444,6.4473602111111115,4.025098777777777,-0.2859345188888889
82,1747679337260,1.3690187777777778,-1.525913688888889,-1.0883529722222223,5.280423244444444,4.482096977777777,-0.27800421999999997
83,1747679337270,1.9683634315789476,-1.598080452631579,-1.2759345210526316,4.6022053,4.7803707,-0.37683702
84,1747679337280,1.6181198666666665,-1.7386232000000001,-1.1435099,2.674196461111111,5.381238427777777,-1.5708790611111112
85,1747679337290,0.8137885511111111,-1.9023584222222223,-0.7445034166666668,1.3987207666666666,5.594646377777778,-2.1763039944444444
86,1747679337300,-0.08063844842105262,-2.0715770315789475,-0.2255891705263158,0.9933162947368421,5.262206410526316,-1.8414062999999998
87,1747679337310,-0.6104481933333333,-2.0761272777777777,0.17993119999999999,1.095002288888889,4.641531333333333,-0.9177542333333333
88,1747679337320,-0.6739545,-2.0173193210526312,0.4117342015789474,1.382417852631579,4.206473905263158,-0.046268894736842106
89,1747679337330,-0.4314728666666667,-1.9595762666666667,0.4710101566666667,2.0125492777777776,3.9448489666666666,1.196557388888889
90,1747679337340,-0.22589103263157898,-1.8934153368421054,0.41129748,2.3149720526315787,3.909713810526316,1.6942597684210527
91,1747679337350,0.1965677677777778,-1.7122649111111112,0.17955156166666664,2.708403222222222,3.7826920444444445,2.1135126222222222
92,1747679337360,0.7438383373684211,-1.4227187894736841,-0.26957087468421054,3.1781159894736843,3.379436884210526,2.3379033263157893
93,1747679337370,1.0029329138888887,-1.2187811444444445,-0.647178825,3.327854088888889,2.966996111111111,2.226963327777778
94,1747679337380,1.2482917,-0.9480404,-1.1833726,3.3824785,2.356896,1.9507640999999998
95,1747679337390,1.3192226157894738,-0.5739391810526315,-1.8353136736842106,2.7063163157894734,1.611715947368421,1.2548105052631577
96,1747679337400,1.104433638888889,-0.3574489516666667,-2.0744798444444448,1.8903990888888889,1.6300309777777777,0.9137890666666668
97,1747679337410,0.99902805,-0.22530551333333332,-2.007879283333333,1.4788522444444445,1.9036853111111114,0.9171032422222223
98,1747679337420,0.8913002815789475,-0.08947267047368421,-1.9628401105263158,1.275274763157895,1.9665047421052633,0.9954468515789474
99,1747679337430,1.0044515611111111,0.07700006122222222,-1.9243846999999998,1.0497285333333335,1.782422788888889,1.1983328444444445
100,1747679337440,1.2073764294117648,0.10803839882352942,-1.9384570411764708,1.0524961117647058,1.3086763705882354,1.1135294882352942
101,1747679337450,1.558014905882353,0.1706319,-2.0118177294117645,1.1506884,0.7501649235294119,0.8207699764705881
102,1747679337460,1.6829578,0.27004933875000003,-2.2210429,1.35161984375,-0.16192009375,0.14833795937499997
103,1747679337470,1.5489704,0.314711815,-2.46394095,1.545298075,-1.2116042999999999,-0.5808350375
104,1747679337480,1.389357,0.3176405,-2.6081789,1.6684692,-2.0351863,-1.1001511
105,1747679337490,0.8366214555555556,0.28905868333333334,-2.9958774055555555,1.441213,-3.6607785,-1.5560838333333333
106,1747679337500,0.36681125333333336,0.2548635572222222,-3.1535113,0.7509221177777777,-4.987742066666666,-1.6306523333333331
107,1747679337510,0.012765547499999998,0.255948255,-3.228572433333333,0.24634222133333333,-5.028813677777778,-1.3571162666666667
108,1747679337520,-0.03627140257894737,0.27186050105263154,-3.1448735789473683,-0.2293260212631579,-4.7719043315789476,-1.0736315368421052
109,1747679337530,-0.04347608444444444,0.2632970955555556,-2.8174713444444444,-1.1939090333333333,-4.003556566666667,-0.4979219844444444
110,1747679337540,0.012673032705882355,0.2628568352941177,-2.4056112882352942,-1.6676780117647059,-3.5843929470588236,-0.20288573588235292
111,1747679337550,0.05349599277777778,0.26259203555555555,-2.2363440222222217,-1.7769929111111111,-3.4645925388888887,-0.1477461572222222
112,1747679337560,0.13475245230769228,0.23154461076923075,-1.9596248538461536,-1.840294153846154,-3.3051444153846155,-0.16648842153846155
113,1747679337570,0.08473949107692308,0.08826424038461539,-1.5754036846153845,-1.8550439769230769,-2.5307796384615386,-0.5263836615384615
114,1747679337580,-0.22725120822222225,-0.08749451861111111,-1.3212378555555557,-1.6934881166666669,-1.9220906611111108,-0.8517670811111111
115,1747679337590,-0.7262289719999999,-0.33828776,-1.1641408800000002,-1.1959981199999998,-1.34383,-0.999377092
116,1747679337600,-1.4836524199999999,-0.7032021413333334,-1.2406771866666666,-0.7920057766666666,-1.1819810066666667,-0.7153068
117,1747679337610,-1.9056949285714286,-1.0773209592857143,-1.6762286714285715,-0.6218476,-0.8559393,0.5169192
118,1747679337620,-1.7946952416666668,-1.3763201416666666,-1.9166833250000002,-0.8431561525000001,-0.5411539275,1.32705225
119,1747679337630,-1.4371189000000002,-1.67318324,-2.07261958,-1.4520430586666668,-0.17843166266666666,2.6704562133333334
120,1747679337640,-0.7889545329411766,-1.876635105882353,-2.147886870588235,-2.2745727999999996,-0.5458222682352941,3.904457735294117
121,1747679337650,0.13587887833333334,-2.1535204833333332,-2.2455096500000002,-3.393271622222222,-2.552253311111111,5.0339923055555555
122,1747679337660,0.7298567811764706,-2.4191601823529414,-2.358780976470588,-4.338105835294118,-5.188115976470589,5.690152917647059
123,1747679337670,0.91979074,-2.5114713,-2.3992658,-5.366586476470588,-8.233015294117648,6.3095097176470585
124,1747679337680,2.0861132177777777,-3.3494011333333336,-2.257712577777778,-6.986309688888889,-11.952908888888889,7.339577655555555
125,1747679337690,3.882272523529412,-4.512022764705883,-1.8209362529411766,-8.546586647058824,-13.609589058823529,8.348111000000001
126,1747679337700,5.899247694117647,-5.536747411764706,-0.861561585882353,-10.068660411764705,-12.232704529411766,8.773652764705883
127,1747679337710,6.864292975,-5.84163225,0.04045245,-10.850243,-9.846365137500001,8.370442562500001
128,1747679337720,6.510912541176471,-5.409866264705882,2.0666659764705884,-11.532833882352941,-4.064137494117647,6.280371705882352
129,1747679337730,6.4008284,-5.3557143,2.2178092,-11.550254,-3.638408,6.0903788
130,1747679337740,5.474630914285714,-5.001343171428571,2.9487955785714286,-10.524937714285715,-4.686323,5.469329957142857
131,1747679337750,6.1826821333333335,-4.472471208333333,3.5204243749999997,-8.81084,-7.065716283333334,4.7169873749999995
132,1747679337760,6.694518852631579,-4.078113047368421,3.4529443157894737,-7.765428326315789,-7.877484663157895,3.5831403421052634
133,1747679337770,6.405349915789474,-3.695688094736842,3.1065374210526318,-7.185139994736841,-7.715956873684211,2.3155888157894737
134,1747679337780,5.585619835294118,-3.441989564705882,2.6642905058823527,-7.1503393,-6.654796011764706,1.2595332764705882
135,1747679337790,4.296412668421053,-3.192647742105263,2.2763572578947366,-7.47315387368421,-4.780594978947368,0.18046406684210525
136,1747679337800,2.9501672315789476,-2.958558152631579,2.4313979842105264,-7.856144184210526,-3.426028121052632,-0.22046751999999997
137,1747679337810,1.7722970352941176,-2.5882773294117647,2.9935955411764708,-7.737362317647059,-2.147665494117647,-0.12775331294117648
138,1747679337820,0.8427971157894737,-2.0451418789473683,3.6946123157894735,-6.098683368421052,-2.3277973157894736,0.6316312526315789
139,1747679337830,0.6955407157894736,-1.8219450789473683,3.638196484210526,-4.444777415789473,-2.7989242315789475,1.2461762578947368
140,1747679337840,0.7234146157894736,-1.6622802631578948,3.2049821789473687,-2.669767915789474,-3.3024575315789475,1.8473213684210525
141,1747679337850,0.8649863622222222,-1.5446247166666667,2.2768711111111113,-0.8116643166666667,-3.900699416666667,2.4636885555555557
142,1747679337860,0.9194567978947368,-1.483296457894737,1.5863175789473687,0.07231177894736843,-4.373776315789474,2.8327462368421052
143,1747679337870,0.9316682,-1.4128881,1.0819668,0.3405588666666667,-4.793627333333333,3.1302475444444444
144,1747679337880,0.9407796563157894,-1.2863807736842106,0.679709055263158,0.5111443315789475,-5.400410136842106,3.572487752631579
145,1747679337890,0.9842475331578946,-0.9516369842105262,0.3347405710526316,0.30638945,-6.035419405263158,4.102036068421053
146,1747679337900,1.0682588944444444,-0.5478407222222222,0.08176596055555556,0.00606608888888888,-6.430404944444445,4.499703338888889
147,1747679337910,1.6379697666666668,0.4081043888888889,-0.3535237088888889,-1.5385662055555556,-6.519117922222223,5.146555088888889
148,1747679337920,2.3880934333333332,0.8231101266666667,-0.3502695888888889,-2.68885855,-6.279907000000001,5.176027433333334
149,1747679337930,2.7701043052631578,0.9261136868421054,-0.2049085252631579,-2.890726,-6.235521,5.174252
150,1747679337940,3.4665007333333335,1.0546661888888889,0.14850205722222223,-3.0852549833333334,-6.148702,5.113591138888889
151,1747679337950,4.4327507,1.0542053,0.9501759399999999,-6.3922477,-4.672779,4.0823565
152,1747679337960,5.049316194736842,0.6386400200000001,3.454049241052631,-7.871057784210526,-2.4323613789473684,2.078763843157895
153,1747679337970,4.657934155555555,0.7268431711111112,6.500037555555555,-8.109689888888889,0.05154691777777777,0.1647903666666667
154,1747679337980,3.734150222222222,1.4834206333333333,7.885360666666666,-6.0605955555555555,0.7289362377777777,-0.03938516088888889
155,1747679337990,3.6097896315789475,1.7974238736842103,8.612263,-4.406428052631579,0.7805298894736842,-0.032252256721052634
156,1747679338000,4.111246,1.5166124566666666,8.945816666666666,-2.2647506400000004,0.7430213999999999,-0.1889955258
157,1747679338010,5.174142555555556,0.15526108666666666,8.376458444444445,2.313663868888889,1.1074599666666665,-0.9478183222222223
158,1747679338020,5.27664947368421,-1.0262928315789475,6.307438178947368,5.696343210526315,1.3318318736842105,-1.5835004052631578
159,1747679338030,5.148408083333333,-1.5114872666666668,4.430350666666666,7.0952775,1.02975485,-1.6904846833333333
160,1747679338040,5.331138289473684,-1.5138422,3.177724789473684,7.316216505263158,0.848818927368421,-1.6515090842105264
161,1747679338050,6.047189333333334,-1.5664001166666666,1.9176188333333333,6.611115016666667,1.0338384166666665,-2.050011083333333
162,1747679338060,6.407580861111111,-1.6637518277777779,1.3847876277777778,5.842290655555555,1.3071376888888888,-2.5798613444444447
163,1747679338070,6.468034484210527,-1.7551761157894739,0.8823279736842106,3.9429751947368423,2.4075238894736843,-3.80721
164,1747679338080,6.320615194444445,-1.7991763944444443,0.7986705477777778,2.8543443111111113,3.2822549,-4.422826555555556
165,1747679338090,6.2465844,-1.8183485,0.80911076,2.6964486,3.4349427,-4.502603
166,1747679338100,4.92672275,-2.2193346000000003,1.500281,0.7661908822222222,6.600906111111112,-5.2448551666666665
167,1747679338110,3.6547506,-2.2902197222222225,2.1979863555555554,0.22917963111111106,8.858554777777778,-5.231717033333333
168,1747679338120,2.9670514333333333,-2.220283777777778,2.5932234444444444,0.4876835877777778,9.547070333333332,-4.840528477777777
169,1747679338130,2.1805634611111113,-1.93807215,3.158433061111111,2.0402461333333335,8.961885,-3.4490574333333335
170,1747679338140,2.3741406842105266,-1.9543783684210527,3.1337175736842102,3.389038194736842,8.086780473684211,-2.5565905842105265
171,1747679338150,2.9651531500000003,-2.14416485,2.7101539166666666,4.889826466666666,7.129513444444445,-1.9982865777777776
172,1747679338160,3.20148195,-2.2314289555555558,2.3312687722222223,5.838443827777778,6.711693611111111,-1.9367972222222223
173,1747679338170,3.3019522,-2.2761186333333336,2.0864252333333333,6.119259172222223,6.60901415,-1.9434847055555555
174,1747679338180,3.359929255555555,-2.3744736388888885,1.5647392444444446,6.658519,6.411644466666667,-2.057467933333333
175,1747679338190,3.448549233333333,-2.507566161111111,0.9625414544444444,7.006387222222222,6.2201336666666664,-2.3181023666666665
176,1747679338200,3.4583117333333337,-2.6112904666666665,0.6265559766666667,7.016093,6.212085,-2.3550315
177,1747679338210,3.3807357368421056,-2.6402048210526314,0.49602388421052634,6.842286684210526,6.432426315789473,-2.6185441315789473
178,1747679338220,3.233182361111111,-2.6541089833333333,0.3994742583333333,6.61460663888889,6.68500275,-2.8900898111111113
179,1747679338230,2.917724783333333,-2.662542616666667,0.3282366433333333,6.408182166666666,6.752055,-2.9341799666666666
180,1747679338240,2.7110081666666668,-2.6385977777777776,0.2776625722222222,6.306567916666667,6.5714338833333334,-2.8467098055555558
181,1747679338250,2.545049166666667,-2.5820850666666666,0.20140824333333335,6.1846545,6.30795865,-2.7225475
182,1747679338260,2.3937166210526315,-2.5037641368421055,0.1409077347368421,5.863645789473685,5.832682947368421,-2.4384025736842108
183,1747679338270,2.361057361111111,-2.422932533333333,0.07986773633333333,5.6075774944444445,5.649033994444444,-2.272651166666667
184,1747679338280,2.3959518421052635,-2.3511639947368423,0.06429945389473685,5.28195552631579,5.5090108631578945,-2.159023084210526
185,1747679338290,2.422125788888889,-2.3007142,0.08447770055555555,5.035708344444445,5.414853277777777,-2.107949566666667
186,1747679338300,2.4070756,-2.22055495,0.15064433500000002,4.832657333333334,5.1777138,-2.066345133333334
187,1747679338310,2.351756,-2.0861608,0.24712829333333333,4.7199168,4.82351375,-2.0114841
188,1747679338320,2.3131007368421055,-2.0026246842105264,0.26810008631578947,4.681931621052631,4.345462784210526,-1.935373794736842
189,1747679338330,2.3116220888888885,-1.8470387444444445,0.22255987111111109,4.668133066666666,3.7915693333333333,-1.845125366666667
190,1747679338340,2.4091093666666668,-1.7663642166666667,0.011450353333333331,4.4970991555555555,3.2951563333333334,-1.8793321666666667
191,1747679338350,2.2872563210526318,-1.7472635894736843,-0.13102340863157894,4.137357821052632,3.42238367368421,-2.079913268421053
192,1747679338360,1.9879479000000002,-1.7452940000000001,-0.1637014,3.7276238000000004,3.8404528000000004,-2.1892055666666668
193,1747679338370,1.5437637999999998,-1.6990859333333335,-0.1233506,3.359397733333333,4.231049700000001,-2.1004336666666665
194,1747679338380,1.0142280715789473,-1.5549722947368423,0.05101759947368421,3.1942630947368422,4.384877794736842,-1.6942878315789471
195,1747679338390,0.8115920533333333,-1.4444528333333333,0.11973041333333333,3.3642504666666664,4.181337388888888,-1.2254970444444444
196,1747679338400,0.7464587526315789,-1.3675362684210526,0.09058056157894737,3.653503884210526,3.815185552631579,-0.672307507368421
197,1747679338410,0.957619625,-1.27190435,-0.161504885,3.8959355500000004,3.4194963,-0.311855935
198,1747679338420,1.3405725,-1.1507705944444444,-0.5553861672222222,4.063063516666667,2.969540816666667,-0.09637676777777777
199,1747679338430,1.8573772166666669,-1.0121461233333333,-1.1274021166666666,4.039272422222222,2.4612916222222223,-0.20840698666666668
200,1747679338440,2.1247912736842105,-0.8549646347368421,-1.8927570947368422,3.5019562000000004,1.836262157894737,-1.086134357894737
201,1747679338450,1.3995801277777777,-0.6356471266666666,-2.231761288888889,2.551987105555556,1.4901854333333333,-2.204711038888889
202,1747679338460,0.38309601052631576,-0.5189877631578947,-2.155696631578947,2.1480619894736845,1.1410375157894734,-2.4304970684210527
203,1747679338470,-0.17166038333333333,-0.5386207777777777,-2.208792672222222,2.3208840000000004,0.8348115722222222,-1.9887584444444444
204,1747679338480,-0.3860953315789474,-0.4979217147368421,-2.580356373684211,2.761205410526316,0.7695969157894736,-1.2684066947368422
205,1747679338490,-0.36175385000000004,-0.5097135883333332,-3.391602583333333,3.05615255,0.9255365666666666,-0.8118196999999999
206,1747679338500,-0.25005699555555555,-0.5041274033333333,-4.4859552888888885,2.8775433666666665,0.9044088433333334,-0.7367185666666667
207,1747679338510,-0.23704061,-0.50288,-4.604079,2.536154410526316,0.7572622852631579,-0.83860078
208,1747679338520,-0.3434495633333333,-0.5051578333333333,-5.2874392666666665,1.6308298666666667,0.42131177333333336,-1.30858762
209,1747679338530,-0.6677374757894736,-0.5268489605263158,-5.58041072631579,0.8923965947368422,0.15729458984210526,-1.8493677368421053
210,1747679338540,-1.5825282999999999,-0.674940325,-5.30183865,0.34700963,-0.33609068849999996,-2.4445137
211,1747679338550,-3.008965657894737,-0.994796547368421,-4.9893554842105265,0.28558876894736845,-1.4354427789473683,-2.4949737052631575
212,1747679338560,-3.4005920166666663,-1.1289681333333332,-5.071041683333333,0.28557941666666664,-2.5173955333333335,-1.7370011666666665
213,1747679338570,-3.1912722000000002,-1.4157625777777778,-5.145723633333334,-0.14620743333333333,-2.5573428333333332,-0.7993916166666666
214,1747679338580,-2.976236268421053,-1.6424475842105264,-4.989946442105263,-0.9735529089473685,-1.8621649263157893,0.2761135315789474
215,1747679338590,-2.890431,-1.8305514,-4.4293337,-1.1128011,-1.7358471000000002,0.44767705
216,1747679338600,-2.5309617555555555,-1.9025754,-4.0381913888888885,-1.7581732777777779,-2.233917011111111,2.075399916666667
217,1747679338610,-1.2489832833333334,-2.1272435666666665,-3.1441285,-2.6402854666666666,-3.751266666666666,5.032512916666666
218,1747679338620,-0.3710922548421053,-2.2513574894736843,-2.8119536105263157,-2.6429541000000003,-5.066982415789473,6.07170847368421
219,1747679338630,0.5145472477777778,-2.427244388888889,-2.578241022222222,-2.5793509500000003,-6.5948103555555555,7.024614444444444
220,1747679338640,1.8674378055555556,-2.8383180333333335,-2.3507525166666667,-2.6240106500000002,-7.558104755555555,7.580800638888888
221,1747679338650,2.549784747368421,-3.119636047368421,-2.2560168842105264,-2.8124431684210527,-8.00279305263158,7.860958736842105
222,1747679338660,3.7750706111111105,-3.646500072222222,-1.8866099777777778,-3.7747173,-8.066176500000001,8.167287166666666
223,1747679338670,4.4649663,-3.8737988,-1.3576294,-4.291488666666667,-7.625453333333334,8.175395
224,1747679338680,4.845478566666667,-3.947991866666667,-1.0278809999999998,-5.1412730444444446,-6.604102044444444,8.016493555555556
225,1747679338690,5.197446478947368,-4.065576221052631,-0.7145771010526316,-5.803605321052632,-5.712532047368421,7.661698605263157
226,1747679338700,5.524825811111111,-4.277469533333334,-0.5458950422222223,-6.4636200666666666,-5.034258333333334,7.1641642
227,1747679338710,5.6984572,-4.456889926315789,-0.4629155821052631,-7.576091947368422,-4.483778842105264,6.220228431578948
228,1747679338720,5.751744333333333,-4.585415388888888,-0.37283134666666673,-8.360381111111112,-4.360301733333333,5.554195777777778
229,1747679338730,5.7333959684210525,-4.819687394736842,-0.14864692294736842,-9.476017368421052,-4.2923117263157895,4.619305515789474
230,1747679338740,5.5445130277777785,-5.143140544444445,0.24506738077777776,-10.722721805555556,-4.100377277777778,3.522501377777777
231,1747679338750,5.4328976,-5.2712708,0.42008355,-11.532203944444445,-3.823231177777778,2.7362184444444444
232,1747679338760,4.530656094736842,-5.554273800000001,1.6197918473684212,-12.318477684210526,-3.3029620736842102,1.6131876210526317
233,1747679338770,3.965137244444444,-5.444551177777779,2.447060388888889,-11.992101666666665,-3.3820344444444443,1.1733582777777778
234,1747679338780,3.56935745,-5.124673166666666,3.0732299166666666,-10.904230833333335,-3.934906183333333,0.9715500444444446
235,1747679338790,3.1663505263157896,-4.595719621052631,3.547741521052631,-9.335066421052632,-4.7862015789473675,0.9860276736842105
236,1747679338800,2.865198111111111,-4.0465912,3.7210391555555558,-7.237061111111111,-5.922925027777778,1.2041325999999999
237,1747679338810,2.630246636842106,-3.4789398157894738,3.5492057684210523,-5.169268842105263,-6.990288089473683,1.522584052631579
238,1747679338820,2.569129688888889,-3.247873155555556,3.276258388888889,-4.1775645,-7.4147675,1.7190691500000002
239,1747679338830,2.489181652631579,-2.99884052631579,2.768299642105263,-2.6062726842105266,-7.907816326315789,2.0882952578947367
240,1747679338840,2.388961133333334,-2.8548325555555554,2.295853277777778,-1.6742689444444445,-7.827439083333333,2.4743411777777777
241,1747679338850,2.3260486,-2.7784698,2.0318375,-1.2618343222222221,-7.586630444444444,2.761548044444444
242,1747679338860,2.2611835777777776,-2.5391851777777776,1.552617588888889,-1.1099085166666667,-6.449165377777778,3.4191116666666668
243,1747679338870,2.3172626,-2.1551476,0.66316456,-1.7402413,-4.543882,4.028028
244,1747679338880,2.412716111111111,-2.1555813777777777,0.7004781955555556,-2.3293320555555557,-3.645272933333333,4.04886
245,1747679338890,2.335811,-2.066799,1.0111902,-2.7972269222222224,-3.2381648166666666,3.910612388888889
246,1747679338900,2.050914611111111,-1.7685337166666666,1.3329661055555555,-2.8445646444444446,-3.4512174833333336,3.789645711111111
247,1747679338910,1.7483380222222222,-1.38818405,1.5367538944444443,-2.604650922222222,-4.11872345,3.8635041833333332
248,1747679338920,1.6696431,-0.9336681333333333,1.3836215,-2.4494998444444445,-4.559032522222222,4.137513688888889
249,1747679338930,1.9192052,-0.58293074,1.03925673,-2.6080761555555556,-5.035501283333334,4.392170805555556
250,1747679338940,2.4992750222222226,-0.35045264111111113,0.6259593633333334,-3.3663070222222222,-6.041287744444444,4.71867385
251,1747679338950,3.173543821052631,-0.15177149431578948,0.7295481652631579,-5.482792631578947,-7.461863473684211,5.142966578947369
252,1747679338960,3.340187822222222,0.2952957146666667,1.312248411111111,-6.2998061666666665,-7.725824577777778,5.846314844444445
253,1747679338970,3.6283380000000003,1.5530583,2.890431,-7.389334000000001,-7.7332816,7.870434300000001
254,1747679338980,13.341166444444445,2.0106927666666667,5.712275266666667,-9.587802,-0.6584513333333333,8.116154972222223
255,1747679338990,15.986910000000002,-0.08817242777777774,7.965167277777777,-10.235245055555557,6.677664066666667,-2.1200816722222218
256,1747679339000,7.747129583333333,-2.1104036666666666,12.583896,-6.044025,9.509076111111112,-8.879297311111111
257,1747679339010,0.5025341666666666,-3.6056609166666664,13.096824333333334,1.7762605000000002,8.082332999999998,-8.171726166666666
258,1747679339020,-1.2684808111111112,-4.884304055555556,10.271969777777777,9.861884888888888,5.352772355555555,-3.071362288888889
259,1747679339030,1.6696206823529411,-5.1550705117647055,6.04494244117647,14.504081558823529,1.800765594117647,0.7873081529411765
260,1747679339040,3.477673288888889,-5.078085433333333,3.7490785555555552,15.188203,0.20624688777777778,1.3439188444444445
261,1747679339050,4.8198254,-4.606214550000001,1.566420425,14.586033055555554,-0.847002935,1.0416798755555556
262,1747679339060,5.901649766666667,-3.9877737333333334,-0.3876645916666666,12.808463333333332,-1.6552421,0.17976323333333333
263,1747679339070,6.8224236000000005,-2.852364872222222,-1.8228567444444446,8.09467202777778,0.6560840388888889,-1.4977310555555556
264,1747679339080,6.929456877777778,-2.124586261111111,-1.3237597038888889,1.6522535705555554,5.96902735,-3.9166489
265,1747679339090,5.150333066666667,-2.372955088888889,0.10139902111111113,-2.052259947777778,9.850315144444444,-5.483592444444444
266,1747679339100,3.9609066666666664,-2.509844066666667,0.8562952233333334,-2.9095456666666664,10.819350333333333,-5.705640666666667
267,1747679339110,1.5470178,-2.3142729,2.6229444,-2.9578376,10.965291,-4.821117
268,1747679339120,0.83513338,-2.041416875,3.42802798125,-1.897634,10.30056675,-3.6067164
269,1747679339130,0.6400240363157895,-1.9125546263157893,3.9833704736842104,0.12924729210526312,9.103435026315788,-1.8159521210526315
270,1747679339140,1.2214455055555555,-1.9370688111111112,4.153942288888889,2.5622253583333334,7.806429416666666,-0.3233962833333333
271,1747679339150,1.7193222529411765,-2.0260267882352943,3.963651117647059,4.137562129411765,6.998688094117647,0.30580898470588236
272,1747679339160,2.0589685833333338,-2.11129845,3.7430856333333336,5.101280999999999,6.504677333333333,0.5671641
273,1747679339170,2.857795277777778,-2.4021605055555555,2.7417187000000003,7.5658278333333335,5.048343361111112,0.6669437944444445
274,1747679339180,3.1393017222222226,-2.4868212555555558,2.288748416666667,8.557588222222222,4.2135910277777775,0.3777839082777778
275,1747679339190,3.738896,-2.6145854,1.4690415749999999,9.580981,3.39286465,-0.43968755325
276,1747679339200,4.092339933333333,-2.840785713333333,0.7281813866666667,9.6837258,3.6771835600000005,-1.347505196
277,1747679339210,4.024198892857143,-2.994634728571429,-0.010259121428571423,9.268516285714286,4.497999778571429,-2.6374786142857145
278,1747679339220,3.583769423076923,-2.911049115384615,-0.4501495307692307,8.41257146153846,5.298498669230769,-3.3834207230769233
279,1747679339230,2.9608066357142855,-2.671921314285714,-0.6796384228571429,7.330725799999999,5.893951542857144,-3.664925514285714
280,1747679339240,2.5643027555555555,-2.499674833333333,-0.6793130188888888,6.3648612333333325,6.174090883333333,-3.5788419833333336
281,1747679339250,2.4458536444444445,-2.448612666666667,-0.5762666311111111,5.455481555555555,6.379331344444444,-3.3367313333333337
282,1747679339260,2.2634614555555554,-2.3641961166666667,-0.3086714027777778,4.930484138888889,6.468694944444445,-3.124803
283,1747679339270,2.16698435,-2.33038068125,0.018853426250000006,4.47690369375,6.51102436875,-2.80463948125
284,1747679339280,2.09370615,-2.2874266,0.28438771,4.109520900000001,6.4666828,-2.41894745
285,1747679339290,2.022929452631579,-2.2130789842105263,0.5352785447368421,3.9818293894736847,6.302520136842105,-2.068643852631579
286,1747679339300,2.0625210444444444,-2.088818211111111,0.7627399055555556,4.003290411111111,5.7453811777777775,-1.364928188888889
287,1747679339310,2.260478511111111,-2.003506588888889,0.8752774,4.131003611111111,5.462849777777778,-1.1743051722222222
288,1747679339320,2.483763977777778,-1.9595219777777777,0.902883,4.336421933333333,5.238966566666666,-1.1472001388888888
289,1747679339330,2.570810933333333,-1.9568645444444444,0.8749520333333334,4.568353577777778,5.1245691777777775,-1.3037347666666668
290,1747679339340,2.4442265666666665,-2.0261225444444446,0.7901828111111111,4.820110833333334,5.018516366666666,-1.4893274
291,1747679339350,2.2526144444444447,-2.095380583333333,0.6649542944444444,5.048905749999999,4.861093972222222,-1.591296788888889
292,1747679339360,2.0435387222222223,-2.1268369444444444,0.5106558888888889,5.169635611111111,4.752200222222222,-1.6075716222222223
293,1747679339370,1.8008887684210528,-2.0993740736842104,0.27739997136842104,5.340993636842105,4.442065,-1.5219953842105263
294,1747679339380,1.4412597555555555,-1.8893962333333332,-0.21744822755555557,5.235563633333333,3.8984505555555558,-1.1938941777777776
295,1747679339390,1.3092774,-1.6835714294117647,-0.5359604752941176,4.897408511764706,3.5176572588235295,-0.8620332470588236
296,1747679339400,1.509704177777778,-1.3539346666666665,-0.9531451888888888,4.301564166666667,3.2871077333333334,-0.5993587333333333
297,1747679339410,1.8233420947368422,-1.3066760526315788,-1.166802405263158,3.349342978947368,3.5451693947368423,-0.8699979789473684
298,1747679339420,1.8227212777777777,-1.3476977333333333,-1.3676629277777779,2.9699845444444444,3.8431752777777777,-1.2278643
299,1747679339430,1.2948796944444445,-1.2804462555555556,-1.6152996333333334,2.4406669,4.2489223,-2.004323188888889
300,1747679339440,0.33546632,-1.0744106473684212,-1.9770980999999999,2.3345952684210527,4.070568663157895,-2.194232789473684
301,1747679339450,-0.19020873055555557,-0.8213204361111112,-2.3586980222222222,2.1856546166666666,3.209639266666667,-1.772865
302,1747679339460,-0.6617544805555555,-0.5563284922222222,-2.9889081166666664,1.9639023333333334,2.6658222,-1.3330887
303,1747679339470,-0.7157182499999999,-0.7482388155555556,-3.772874277777778,1.4548246666666667,2.284813011111111,-0.8237742888888888
304,1747679339480,-0.7496893063157894,-0.9330629736842105,-4.2037994526315785,0.7998868536842105,2.168904884210526,-0.5694254531578947
305,1747679339490,-1.01314263,-1.11497555,-4.582358,-0.7744762555555557,1.8310107111111111,-0.08862401222222221
306,1747679339500,-1.2475189,-0.9286784805555555,-4.091802866666666,-1.9590272000000002,1.1806672155555555,0.5785860866666667
307,1747679339510,-1.0006957749999998,-0.4261646333333334,-2.731102133333333,-2.2943262888888887,0.38177865333333333,1.8641225888888888
308,1747679339520,-0.5532617431578948,0.060661065263157864,-2.191714315789474,-1.4407690157894737,0.2579339710526316,2.3381275684210525
309,1747679339530,0.04069655111111111,0.7492964,-1.9377806222222225,-0.12436952000000003,0.21926677,2.4675353222222225
310,1747679339540,0.37955078105263157,0.9654454357894737,-2.3062671999999997,1.4517720989473686,0.20674524578947368,2.1120113210526315
311,1747679339550,0.4126397866666667,0.9170450666666667,-3.0100597333333337,3.0960999166666667,-0.181094825,1.2741440833333335
312,1747679339560,0.12931644,0.6801469,-4.091450244444444,4.1135450944444445,-1.2191350466666668,0.5634948666666667
313,1747679339570,0.09682971,0.656392,-4.1886935,4.156925,-1.2756532,0.5307676
314,1747679339580,-0.15370147315789473,0.41572585263157896,-4.839170468421052,3.898122052631579,-1.6290964842105264,0.42670816421052626
315,1747679339590,-0.766619142105263,-0.03357071421052632,-5.988140684210527,2.524660842105263,-1.9586554210526315,0.6917906294736842
316,1747679339600,-1.0648828,-0.16510473,-6.27099,0.1288081333333333,-1.4649150666666666,1.7728650000000001
317,1747679339610,-0.762662854736842,-0.2964332163157895,-6.058377515789474,-1.570331757894737,-1.2605713157894738,2.4225076105263157
318,1747679339620,1.0773703188888888,-1.1129960133333334,-4.3584487,-4.831873222222223,-2.1767478444444444,3.0702378444444443
319,1747679339630,1.7037284263157892,-1.4465079736842106,-3.2995545,-6.2330750526315795,-3.592545531578948,3.050340336842105
320,1747679339640,2.221537888888889,-1.7932919555555555,-2.3901543833333334,-6.8402503222222215,-4.395928783333334,2.9892185666666666
321,1747679339650,2.7347633388888886,-2.364711333333333,-1.2658096555555556,-7.869295,-5.735793505555555,2.7831492444444446
322,1747679339660,2.934881531578947,-2.6916625105263154,-0.6089645842105263,-8.16019247368421,-5.965616505263158,2.6892720157894736
323,1747679339670,3.1225700166666663,-3.0378214,0.40633499333333334,-8.177807,-5.920557916666667,2.6625377166666664
324,1747679339680,3.2241793333333333,-3.096232366666667,0.9535927133333334,-7.946822466666666,-5.847764833333333,2.7074562666666666
325,1747679339690,3.3390659684210524,-3.0446976368421055,1.327745294736842,-7.385353768421052,-5.90242967368421,2.7945087684210526
326,1747679339700,3.5199223444444443,-2.891549511111111,1.4794547,-6.460069388888889,-6.362760488888889,2.873400666666667
327,1747679339710,3.7462305368421047,-2.800897305263158,1.340795947368421,-5.59206652631579,-7.058688947368421,2.874011257894737
328,1747679339720,4.0603194,-2.9307613,0.73394114,-5.173586222222222,-7.5060252,2.5606867666666666
329,1747679339730,4.0275899157894735,-3.013252663157895,0.5242060710526315,-5.3967307894736845,-7.354215578947368,2.316654042105263
330,1747679339740,3.8588635,-3.140813288888889,0.3617809688888889,-5.911517694444445,-6.93616835,2.0701327722222223
331,1747679339750,3.5799061611111114,-3.3211444444444442,0.3958134083333333,-6.789235933333334,-6.263335916666667,1.8641818333333333
332,1747679339760,3.399232563157894,-3.469305789473684,0.6433317263157895,-7.647520547368421,-5.750265000000001,1.8086915526315788
333,1747679339770,3.2208167333333333,-3.6332665111111115,1.24901045,-8.079506488888889,-5.620389888888889,1.798076188888889
334,1747679339780,3.180171947368421,-3.642123989473684,1.5658937473684211,-8.072280631578948,-5.701655315789473,1.7872740631578945
335,1747679339790,3.1621888,-3.6419441999999997,1.7209086,-7.597889388888889,-5.982698272222222,1.7613837833333335
336,1747679339800,3.0916833333333336,-3.5093940666666668,2.056948288888889,-7.0852015,-6.16627865,1.7616797
337,1747679339810,2.979505442105263,-3.2195455263157897,2.5246277,-6.365223426315789,-6.270113794736842,1.7692767210526315
338,1747679339820,2.8941325,-2.9842100555555557,2.5099729833333333,-5.3688842,-6.246883733333333,1.7529800666666668
339,1747679339830,2.4997402842105263,-2.6032110789473686,2.025569205263158,-4.0150277368421055,-6.014058242105263,1.6801310315789473
340,1747679339840,2.2923686666666665,-2.4709577,1.8099082333333334,-3.483722766666667,-5.861258133333333,1.6901295333333333
341,1747679339850,2.0111890210526315,-2.3458976,1.572008094736842,-3.153397589473684,-5.736472736842106,1.8281465894736844
342,1747679339860,1.7235797555555556,-2.2404049111111113,1.3886112,-2.9525113555555556,-5.683713833333333,2.1476011333333336
343,1747679339870,1.6197469999999998,-2.1839464,1.3134957333333335,-2.8645827666666666,-5.625124666666667,2.512157966666667
344,1747679339880,1.6726945789473684,-2.170613189473684,1.2551703210526317,-2.8183092000000003,-5.476324421052631,2.8813558631578946
345,1747679339890,1.9234084888888892,-2.1402871222222224,1.1743831666666666,-2.8648193555555554,-5.010704155555556,3.381531477777778
346,1747679339900,2.1364033157894737,-2.0308582263157895,1.1534371210526315,-2.971735105263158,-4.572027336842105,3.526345152631579
347,1747679339910,2.2274495500000002,-1.84104595,1.23352635,-3.1415957,-3.8999300999999997,3.51084275
348,1747679339920,2.160809068421053,-1.5332640157894737,1.4592278368421052,-3.2598119684210527,-3.275433289473684,3.3914490894736846
349,1747679339930,1.8407001000000003,-1.0846581444444443,1.801718688888889,-3.014178288888889,-3.155251611111111,3.315958588888889
350,1747679339940,1.656952161111111,-0.830350508888889,1.9635286555555556,-2.693141805555556,-3.6491789055555555,3.4295275388888893
351,1747679339950,1.5425220578947367,-0.4031247705263158,2.055164194736842,-2.054185763157895,-4.957316510526315,3.871210094736842
352,1747679339960,2.0049976684210526,0.03674346168421053,1.8174269421052631,-1.6653434684210526,-6.102306578947368,4.5870673
353,1747679339970,2.958645066666667,0.2277460673333333,1.4963760333333331,-2.018230766666667,-6.79868995,5.178158
354,1747679339980,4.242565963157894,0.28177692684210526,1.4145269578947368,-2.901869305263158,-6.759854578947369,5.289861142105264
355,1747679339990,6.0888689000000005,0.2897095322222223,1.7490024111111113,-4.266810111111111,-5.814741411111111,4.949718000000001
356,1747679340000,6.847398944444445,0.27441527000000004,2.2900501666666666,-5.099609666666667,-4.769126011111111,4.494021888888889
357,1747679340010,7.721422499999999,0.262971685,3.8044255,-6.186652,-2.4884558,3.38887
358,1747679340020,7.798120757894738,0.4966757947368421,6.246886368421053,-6.088255315789474,0.03148136315789469,1.8757470315789473
359,1747679340030,7.470441473684211,0.9045853578947368,7.999062894736841,-4.658671363157896,1.0243070473684213,0.8403107826315789
360,1747679340040,7.385599350000001,0.8880022999999999,8.889114,-1.98425319,1.2138678999999999,-0.282561185
361,1747679340050,6.61478545,-0.4239681,8.426382166666667,2.0358075366666664,1.6903957833333334,-2.295909383333333
362,1747679340060,4.457516042105263,-1.4200471894736841,6.677865747368422,5.228467963157894,2.4642071684210527,-2.9555040157894736
363,1747679340070,3.8188652666666667,-1.8232296777777774,5.428083822222223,6.099669855555556,2.7944825055555556,-2.5780859888888887
364,1747679340080,4.008476068421053,-1.912939905263158,3.9892025263157898,6.87648702631579,3.2434754947368423,-1.8503208736842105
365,1747679340090,4.804449583333334,-1.8233110166666664,2.8216069166666666,7.126169749999999,3.8424059333333336,-1.0877229000000002
366,1747679340100,5.4169519500000005,-1.64425435,1.9784704999999998,6.610227016666666,4.197493933333334,-1.5012227
367,1747679340110,5.58152825,-1.5208427,1.60522555,6.156069566666667,4.597855666666667,-2.0315466
368,1747679340120,5.450795033333333,-1.4397343333333332,1.3157736666666666,5.6028428,5.167061666666666,-2.720772166666667
369,1747679340130,5.055687552631579,-1.3778123526315789,1.034979392105263,4.988110842105264,5.715952473684211,-3.411997342105263
370,1747679340140,4.528963277777778,-1.3399963666666668,0.8382892277777778,4.261912522222222,6.2710292222222215,-4.121416205555556
371,1747679340150,3.467517205263158,-1.3360143736842105,0.800042152631579,3.530101510526316,6.727336263157895,-4.580423478947369
372,1747679340160,2.8490903055555554,-1.3986513388888888,0.844255075,3.122021416666667,6.983158333333333,-4.606288916666667
373,1747679340170,2.3886900333333334,-1.5125177111111112,0.9213771555555554,2.9174907444444447,7.157210611111111,-4.3348835
374,1747679340180,2.162204833333333,-1.6148048,1.0313655666666666,2.9134072444444445,7.230122099999999,-3.9871339666666668
375,1747679340190,2.1077586157894737,-1.782356594736842,1.2231345999999998,3.0345856421052635,7.253296194736842,-3.5901207421052628
376,1747679340200,2.2300698,-1.9613916947368422,1.3591901315789474,3.1044445,7.256043399999999,-3.4139037
377,1747679340210,2.407184066666667,-2.1278945222222223,1.4005971222222222,3.6766687777777776,7.012571294444444,-2.9438856777777778
378,1747679340220,2.5546403,-2.2647164105263156,1.3980337894736843,4.194994394736842,6.781944921052632,-2.580867510526316
379,1747679340230,2.700920433333333,-2.3970895333333333,1.2806293999999998,4.602442055555555,6.5984207999999995,-2.416225133333333
380,1747679340240,2.815164984210526,-2.512267457894737,1.1062183773684209,4.884275884210527,6.602251947368421,-2.261624857894737
381,1747679340250,2.9754720578947365,-2.7139358368421056,0.6882382342105263,4.826976,7.259239000000001,-2.0269303
382,1747679340260,2.9806101,-2.7208722,0.67243874,4.826976,7.259239,-2.0269303
383,1747679340270,2.874852016666667,-2.7570740333333337,0.3771294566666667,3.9694386666666666,8.400965444444445,-1.685572577777778
384,1747679340280,2.6759494736842107,-2.7918286315789476,0.507173452631579,3.2240345210526313,9.131299684210527,-1.276368094736842
385,1747679340290,2.5090916,-3.014229,0.9062455000000001,2.9638298,9.2672615,-0.85940146
386,1747679340300,2.281359033333333,-3.2106137555555554,1.285185133333333,3.2525752722222223,8.85778486111111,-0.4428833644444444
387,1747679340310,1.9928205263157897,-3.1674455631578944,1.5024645684210525,3.861622694736842,8.005316131578947,0.09546724473684212
388,1747679340320,1.8226397833333334,-2.9246600833333334,1.5520211000000002,4.766966,6.6490205499999995,0.8636624983333333
389,1747679340330,1.9510996263157896,-2.8150013157894738,1.5011800842105263,5.382931184210527,5.755759673684211,1.3149698336842106
390,1747679340340,2.300476855555556,-2.8086514055555556,1.411254238888889,6.128787361111112,4.849376077777778,1.5711159111111113
391,1747679340350,2.7834117,-2.7721243,1.13029,7.09196311111111,3.8847206222222224,1.3800194666666665
392,1747679340360,2.8266484263157894,-2.692638652631579,0.7573192694736842,8.332982631578947,2.5638932,0.47161745894736845
393,1747679340370,2.692622516666667,-2.6584749833333334,0.25054511,8.847990833333334,1.8313657499999998,-0.39920757333333334
394,1747679340380,2.4189187105263157,-2.6351695894736844,-0.37179228842105266,9.025067263157894,1.4028120684210525,-1.402293510526316
395,1747679340390,1.9027990944444444,-2.5847154444444445,-1.0330604555555556,8.628842444444444,1.41881285,-2.0410745833333337
396,1747679340400,1.2975914,-2.4376030666666666,-1.5959919999999999,7.872209366666667,1.6879102055555555,-2.253890683333333
397,1747679340410,0.8858282842105263,-2.230753852631579,-1.8677090263157894,7.113031589473684,1.9874174578947368,-1.989534057894737
398,1747679340420,0.42655106,-1.63872245,-2.1564288,5.330608777777778,2.518697416666667,-0.9253294361111111
399,1747679340430,0.552647321111111,-1.24375645,-2.224466488888889,4.224865111111111,2.827150411111111,-0.2267532022222222
400,1747679340440,0.9578636955555555,-1.0171899333333334,-2.2445876333333334,3.1126116111111113,3.1921808333333335,0.1620680237777778
401,1747679340450,1.2763312333333332,-0.7412425111111111,-2.236994833333333,2.0942195666666668,3.3242735,0.19710336066666667
402,1747679340460,1.351311011111111,-0.43589980000000006,-2.1790990555555556,1.4505636022222221,3.0810382222222223,-0.01133322133333333
403,1747679340470,1.5060161833333332,0.008989440222222221,-1.8751391499999999,0.7194376533333333,1.6532891222222224,-0.4882754422222222
404,1747679340480,1.7744791444444443,-0.18256838088888888,-1.618499522222222,0.8047770666666667,1.0487520333333333,-0.8794047711111111
405,1747679340490,1.658253711111111,-0.17378232000000002,-1.3507416666666667,1.2953901333333333,0.8196020088888889,-1.4004369777777779
406,1747679340500,0.9354104266666666,0.20456065333333331,-1.2312078666666666,2.539854866666667,0.54381708,-2.0464601333333334
407,1747679340510,-0.17667708444444447,0.4531194077777778,-1.686076288888889,4.437444444444444,-0.3599999333333333,-2.5347059888888888
408,1747679340520,-1.083837925,0.20000491333333334,-3.1267191000000003,5.847321,-1.94907725,-2.5354162
409,1747679340530,-1.6795274,-0.048499595000000006,-5.215252322222223,6.058420666666667,-3.2281629888888888,-2.3416566222222226
410,1747679340540,-1.8638491789473683,-0.14298543421052634,-6.861248368421053,5.266200842105263,-3.4893831736842107,-2.2402635263157897
411,1747679340550,-1.9874733555555555,-0.2027437722222222,-7.825038,2.838838788888889,-2.8366195111111114,-2.3033072
412,1747679340560,-2.4736353555555555,-0.34310379888888887,-7.569266444444444,-0.09513401111111114,-1.557356208888889,-2.505944
413,1747679340570,-3.2822784944444443,-0.5322481711111111,-6.295423111111111,-2.388077038888889,-0.5459476088888889,-2.5228106666666665
414,1747679340580,-4.218915555555555,-0.6120549377777778,-3.525834222222222,-3.127096211111111,-1.3132925077777777,-1.1788621444444445
415,1747679340590,-3.8007102666666666,-0.6042993333333333,-2.6289509555555557,-2.2413813,-2.2770010166666665,0.04749299999999998
416,1747679340600,-3.1042252315789476,-0.6581774421052632,-2.2281174736842106,-1.2732844268421053,-2.866540484210526,1.1940343357894738
417,1747679340610,-1.8854575055555556,-0.8056194027777779,-2.1782042555555554,-0.07015944866666667,-3.3752879555555553,2.7124275444444446
418,1747679340620,-0.7016713388888889,-0.9534367694444446,-2.3539255277777777,0.5829655423333333,-3.8354818666666666,3.638851883333333
419,1747679340630,0.4196903544444444,-1.1955686555555556,-2.6534109333333333,0.8453754500000001,-4.618272950000001,4.245164333333333
420,1747679340640,1.1082029635294117,-1.3892959235294118,-2.7819762588235295,0.6942542500000001,-5.030080823529412,4.381256941176471
421,1747679340650,1.5599143578947368,-1.574728005263158,-2.8305791157894737,0.3608300257894737,-5.2648974736842105,4.370874705263159
422,1747679340660,1.9562633105263159,-1.8046555578947368,-2.8706815210526315,-0.40038495315789474,-5.528354078947368,4.31592957368421
423,1747679340670,2.199087405263158,-2.0625342421052633,-2.7609072210526318,-1.48583257,-5.648111973684211,4.312789868421052
424,1747679340680,2.340614947368421,-2.2959044,-2.4428879210526318,-2.942839915789474,-5.575617894736842,4.399636852631579
425,1747679340690,2.592584705263158,-2.764802547368421,-1.5865808263157894,-4.902167978947368,-5.179339789473684,4.5875718421052625
426,1747679340700,2.7129177789473684,-2.9892324,-1.089115062105263,-5.704648021052631,-4.951597710526316,4.655860747368421
427,1747679340710,2.877027089473684,-3.2636296315789473,-0.381272,-6.445903268421052,-4.681693315789474,4.67071842631579
428,1747679340720,3.0192998,-3.531039715789474,0.33384140368421056,-6.784713357894737,-4.34355652631579,4.5858336263157895
429,1747679340730,3.017244652631579,-3.637859463157895,0.7241274784210526,-6.702407347368421,-4.121140736842105,4.465122547368421
430,1747679340740,3.007225326315789,-3.596112931578947,0.9469389157894736,-6.458181915789474,-4.129999210526315,4.435519621052632
431,1747679340750,3.1304356736842105,-3.527802494736842,1.0220571263157894,-6.1740369263157895,-4.37669197368421,4.410121521052631
432,1747679340760,3.3994123333333333,-3.4787511999999996,0.9511520933333334,-5.837245433333333,-5.0459765333333335,4.267357333333333
433,1747679340770,3.6094041684210523,-3.423988305263158,0.8271196657894737,-5.64062024736842,-5.849054510526316,3.9734753684210524
434,1747679340780,3.6278755263157896,-3.3472773157894737,0.7270562,-5.596720142105263,-6.500995752631579,3.625302457894737
435,1747679340790,3.3886482947368424,-3.2717994000000004,0.7220722526315789,-5.8585505,-6.47627,3.316432
436,1747679340800,3.230370594736842,-3.2388387368421054,0.8525786342105263,-5.990419005263157,-6.17351094736842,3.2686632842105263
437,1747679340810,2.9299232263157897,-3.118865289473684,1.0938099894736844,-6.098459168421052,-5.571356631578948,3.2433212
438,1747679340820,2.58328495,-2.9735527833333335,1.3765438833333334,-5.954957,-5.142737583333333,3.3700502500000002
439,1747679340830,2.362169005263158,-2.8353992526315785,1.5866514684210526,-5.611185268421053,-5.019942684210527,3.588410710526316
440,1747679340840,2.2860231,-2.7823746,1.6623349,-5.033924415789474,-5.049545768421052,3.921782078947368
441,1747679340850,2.3673070263157894,-2.6115345157894736,1.7526104368421052,-4.280334494736842,-5.2141011105263155,4.266086557894736
442,1747679340860,2.5496308105263155,-2.4914070105263155,1.7043641842105264,-3.644428236842105,-5.373274015789474,4.468935442105264
443,1747679340870,2.7831550894736843,-2.4329102947368417,1.557852694736842,-3.119589578947368,-5.4803050526315795,4.5288145368421056
444,1747679340880,3.095045988888889,-2.334231244444444,1.319407311111111,-2.6459521111111113,-5.43444268888889,4.385483444444445
445,1747679340890,3.135522252631579,-2.0581667578947367,1.0166365031578948,-2.394993094736842,-4.715277294736842,3.8907774210526314
446,1747679340900,2.822615147368421,-1.8442442526315788,0.8923214863157894,-2.513980094736842,-3.836827347368421,3.709794726315789
447,1747679340910,2.425161457894737,-1.5344970631578947,0.8809921063157895,-2.7534401,-2.915094,3.6754258
448,1747679340920,2.199627,-1.2033242,0.9286988000000002,-2.9493155,-2.4623568,3.720167
449,1747679340930,2.0645992421052632,-0.9536151736842104,1.0586401368421052,-3.1097778263157894,-2.456301694736842,3.7191577684210526
450,1747679340940,1.969779233333333,-0.6447586,1.305414811111111,-3.144347466666667,-2.7428763,3.7432475666666667
451,1747679340950,2.029223547368421,-0.16972897631578945,1.5561314842105265,-3.0713933157894737,-3.4598921684210526,3.9445451052631575
452,1747679340960,2.5430539684210522,0.3698944663157895,1.6243903842105263,-3.0795299894736843,-4.384036363157895,4.217028368421053
453,1747679340970,2.681935410526316,0.46165998947368425,1.6224379210526314,-3.1048440210526316,-4.6216462,4.2809442
454,1747679340980,3.965830742105263,0.9706606263157894,1.5684627894736842,-3.8228878947368417,-5.165098789473684,4.299109894736842
455,1747679340990,5.174581984210526,1.0236852842105264,1.7424114315789476,-5.089710631578947,-4.634765868421053,3.9097277894736835
456,1747679341000,6.3563015555555555,0.7468016177777778,2.2720984222222222,-6.319573,-3.780561544444444,3.3098036
457,1747679341010,7.368014315789473,-0.06822685421052632,4.043948189473684,-7.8479583947368425,-1.911895963157895,1.8405372526315789
458,1747679341020,6.818552221052633,-0.4836379842105263,6.952262936842106,-7.649314631578947,0.2642694842105263,0.251892797368421
459,1747679341030,6.235640473684211,-0.33704948421052633,9.019967357894735,-5.971244210526315,0.30615116263157893,0.11279179789473685
460,1747679341040,6.3533273421052625,-0.46370234,10.593366263157895,-2.1805316842105262,-0.09147250684210527,0.08806646736842105
461,1747679341050,6.8066825263157895,-0.6902902436842105,10.591208052631579,2.068405647368421,0.4388606052631579,-0.5685844768421052
462,1747679341060,6.5858239473684215,-0.8573281373684211,9.473117684210527,4.8612887526315784,1.5016573578947368,-1.255959805263158
463,1747679341070,6.306731000000001,-1.0606863666666666,8.675672777777777,5.96698575,1.9371819833333335,-1.5328255666666666
464,1747679341080,5.63867632631579,-1.6263653684210526,6.341785789473684,8.472869105263158,2.662178042105263,-2.0251362263157895
465,1747679341090,5.4119086,-1.8261583000000001,5.423745,9.263350684210527,2.9121225052631576,-2.158069931578947
466,1747679341100,5.400913163157895,-1.8194017684210526,5.230143389473684,9.344030105263158,3.0920957684210526,-2.1988865157894737
467,1747679341110,5.301183410526316,-1.568536694736842,1.2530380631578946,7.191300431578948,4.4715563052631575,-2.4467002736842107
468,1747679341120,5.276429833333333,-1.4494153555555556,0.8096259944444444,5.423701066666666,5.862323666666667,-2.9915265
469,1747679341130,4.792337157894737,-1.453778357894737,0.8798874052631579,4.1477301578947365,6.94734112631579,-3.610248642105263
470,1747679341140,4.133382536842105,-1.4657243263157895,1.0603099368421054,3.4938264210526313,7.531722189473684,-3.9502359368421054
471,1747679341150,3.5611323789473683,-1.474484710526316,1.2523957684210527,3.177947736842105,7.793776989473685,-4.043418336842106
472,1747679341160,2.7491155368421056,-1.5581320789473683,1.479497494736842,3.3019668842105263,7.7525682105263165,-3.7423973
473,1747679341170,2.593509736842105,-1.6385168736842106,1.5248921842105263,3.532232094736842,7.6244001842105265,-3.504226742105263
474,1747679341180,2.5478837052631578,-1.852567952631579,1.5575444789473685,4.062396936842106,7.211302026315789,-3.2203059105263154
475,1747679341190,2.581007066666667,-2.0153298555555557,1.5341777444444444,4.781169444444444,6.562674888888889,-2.9846024
476,1747679341200,2.645275610526316,-2.2154424842105263,1.4433770105263157,5.507230605263158,5.8558382947368415,-2.896017357894737
477,1747679341210,2.7446556,-2.519769,1.1967713199999999,6.2949088500000006,5.063996874999999,-2.923349675
478,1747679341220,2.8940510222222224,-2.7638806,0.7744546800000001,7.144871266666666,3.9800024777777785,-3.2629912111111112
479,1747679341230,2.9427426210526315,-2.8501454842105263,0.49461090842105265,7.293397578947369,3.7545217263157897,-3.612042605263158
480,1747679341240,2.8602258,-2.939547505263158,0.1157313,7.136804042105264,3.8777558631578946,-4.026093894736842
481,1747679341250,2.608512757894737,-2.9518018736842104,-0.22052820789473682,6.624692336842105,4.270670084210526,-4.239370515789473
482,1747679341260,2.3115133777777777,-2.856784911111111,-0.3756244461111111,5.897210694444444,4.789425261111111,-4.144437833333334
483,1747679341270,2.2128573789473682,-2.7675514,-0.35614695368421057,5.4461744473684215,5.122600526315789,-3.9717654736842105
484,1747679341280,2.1039853294117647,-2.617822694117647,-0.23057308,4.792323588235295,5.596863588235294,-3.670005605882353
485,1747679341290,1.9946188631578947,-2.5143226789473685,0.039790966842105265,4.3142477368421055,5.83358,-3.315899352631579
486,1747679341300,1.8657565684210526,-2.4219919210526317,0.2976695605263158,4.082244421052632,5.802182789473684,-2.986003942105263
487,1747679341310,1.746982,-2.298598911111111,0.5437392222222222,4.125558788888889,5.311937127777778,-2.5169516444444446
488,1747679341320,1.7624304947368419,-2.1469010105263155,0.7237678157894737,4.460469226315789,4.376187347368422,-2.054010621052632
489,1747679341330,1.8117044736842105,-2.1038954631578943,0.6328757684210526,4.6944345789473685,3.776163357894737,-1.9246089263157895
490,1747679341340,1.8027899,-2.0160348,0.4244766,4.8694679333333335,3.159749588888889,-1.8576718
491,1747679341350,1.7414827,-1.9398891200000001,0.21400160000000001,4.8276151,2.93576014,-1.82623468
492,1747679341360,1.636722488888889,-1.8125183111111112,-0.10230743666666667,4.4820669888888895,3.0509744333333333,-1.7337460944444445
493,1747679341370,1.7069025055555556,-1.7049703833333334,-0.30888834722222225,4.033354477777778,3.3946401944444444,-1.6170998166666668
494,1747679341380,1.9488387894736843,-1.6002898105263157,-0.5373402368421052,3.265243278947368,3.940494105263158,-1.6044693210526315
495,1747679341390,2.0739244526315788,-1.5779393684210528,-0.673909505263158,2.4181905210526313,4.520894968421053,-1.8493678263157896
496,1747679341400,1.91798484,-1.54744506,-0.6483991039999999,2.0094245666666666,4.804303559999999,-1.9988785266666667
497,1747679341410,1.677466525,-1.489603475,-0.559928355,1.6785892,5.016858975,-2.09004735
498,1747679341420,1.3132111,-1.3717238,-0.4028775,1.4260152,5.127433280000001,-1.90641362
499,1747679341430,0.55175245,-1.3834385,-0.16663007,1.7952355,4.9667916,-1.2269174
500,1747679341440,0.3833529357142857,-1.2955779285714288,-0.27750179142857145,2.0837697285714283,4.7178244,-0.7393310114285715
501,1747679341450,0.438021739090909,-1.075837609090909,-0.6635306345454546,2.6245918545454545,4.0701303636363635,0.5308644345454545
502,1747679341460,1.1332093692307692,-0.8737718461538461,-1.255651073076923,2.701201415384615,3.914475153846154,0.9264720307692307
503,1747679341470,1.8555672125,-0.76029931875,-1.74217216875,2.64897779375,3.77735835,0.9295090956250001
504,1747679341480,2.09761104,-0.73727254,-1.9182778200000001,2.61783214,3.6882623600000004,0.48858318079999996
505,1747679341490,1.8866595,-0.7492629647058823,-1.9651023,2.757168611764706,3.352290694117647,-0.34111934552941175
506,1747679341500,0.5221401666666667,-0.7744343333333333,-1.9796499666666667,3.5000125333333334,2.1065588666666666,-1.2205257900000002
507,1747679341510,-1.5043294411764707,-0.8873993117647059,-2.0890259411764704,4.908562676470588,0.1330013176470588,-1.1769126558823528
508,1747679341520,-3.097391657142857,-0.96655385,-2.558565371428571,5.9827109499999995,-1.2922408714285716,-0.5014728607142857
509,1747679341530,-4.886962799999999,-0.9820073999999999,-5.205636882352941,6.851415588235294,-2.579535894117647,1.9271403294117646
510,1747679341540,-4.96104134117647,-0.979251,-7.089730235294118,5.039026205882354,-0.7992923588235294,3.610006211764706
511,1747679341550,-3.78197225,-0.796846895,-8.102517625,1.6043536062500001,1.9220684062500002,4.76019711875
512,1747679341560,-1.8478184411764706,-0.5109481952941176,-7.352307117647059,-0.6199677764705882,3.0250668235294116,4.8323648529411765
513,1747679341570,-0.8833042,-0.3008005675,-5.961769375,-2.4126473375,2.6869945,4.3239718875
514,1747679341580,-0.4482314827777778,-0.23734567722222222,-5.111853627777778,-2.507874711111111,1.579667688888889,3.9623370444444443
515,1747679341590,-0.122608261875,-0.31462028375,-4.314077875,-2.0422352125,-0.78956010625,3.4836784625000004
516,1747679341600,0.1459790923076923,-0.5993013523076923,-4.538671615384616,-1.4240218923076924,-3.3306286692307694,3.577093846153846
517,1747679341610,0.49596379999999995,-0.7563836864705882,-4.7193889411764705,-1.5048807470588235,-3.857914905882353,3.713211352941176
518,1747679341620,1.0857497,-0.932908915,-4.65045,-2.19351105,-3.2682289499999997,3.79100695
519,1747679341630,1.58123474,-1.09476768,-4.22696186,-2.9964002,-2.1696226019999996,3.69278969
520,1747679341640,2.30447396,-1.38861244,-2.9136409199999997,-4.17820386,-0.09683247279999999,3.2531553200000003
521,1747679341650,2.98148874,-1.5615026100000002,-2.28275294,-4.43077785,0.003408843200000003,2.59684638
522,1747679341660,3.4979629099999996,-1.7610926,-2.10463983,-4.66502913,-1.401460795,1.6150995000000001
523,1747679341670,3.6719268499999997,-2.0251136900000004,-1.7961026700000002,-5.18210791,-3.9245377699999997,0.523736872
524,1747679341680,3.5472669090909092,-2.2620890181818183,-1.5043300909090909,-5.630681054545454,-5.4160425454545456,-0.006900003636363639
525,1747679341690,3.382897927777778,-2.935344372222222,-1.3485994222222222,-6.477824000000001,-6.184210566666667,-0.071816527
526,1747679341700,3.22478937,-3.410675585,-1.1459586849999999,-7.230716750000001,-6.0127742049999995,0.06551371250000002
527,1747679341710,2.975985831578947,-3.5555223000000002,-0.5759269684210526,-8.614275684210527,-4.913752878947368,0.5257776894736842
528,1747679341720,3.093717088888889,-3.697318227777778,-0.17199935413333334,-9.158737444444446,-4.4509674,0.7203845444444444
529,1747679341730,3.3488796842105266,-3.9797709052631576,0.25443288555789473,-10.009210000000001,-3.812101936842106,0.906917842105263
530,1747679341740,3.717277726315789,-4.481475499999999,1.3024146736842106,-10.609290263157895,-3.4746938052631577,0.5100790652631579
531,1747679341750,3.6759163684210527,-4.51795577368421,2.0099493684210525,-10.341853210526315,-3.9197495736842107,0.11234326105263157
532,1747679341760,3.486939031578947,-4.372446289473683,2.433684242105263,-9.63827347368421,-4.826569236842106,-0.14500200263157895
533,1747679341770,3.4574209789473684,-4.198575,2.6025718684210526,-8.764814473684211,-5.754358157894737,-0.19848945263157894
534,1747679341780,3.5584350736842105,-4.087798157894737,2.590137642105263,-7.9907600789473685,-6.410616368421053,-0.2528179031578947
535,1747679341790,3.5222274833333334,-4.083769222222222,2.4375962277777776,-7.037975138888889,-6.684529255555557,-0.45619916166666674
536,1747679341800,3.1375003684210525,-3.8572027894736847,2.4334017789473683,-6.562858052631579,-6.255424368421053,-0.5952160405263157
537,1747679341810,2.7754992421052633,-3.657641057894737,2.454031031578947,-6.2624536736842105,-5.905457178947368,-0.6052519452631578
538,1747679341820,2.5862136,-3.5565243000000004,2.468212,-5.6980508,-5.5200184666666665,-0.36263348666666667
539,1747679341830,1.8201307894736842,-3.1169128263157893,2.567633105263158,-4.857875594736842,-5.369012731578947,0.2585647047368421
540,1747679341840,1.3698323,-2.679099878947368,2.460376394736842,-4.038183226315789,-5.333803105263158,0.9920267815789474
541,1747679341850,1.556651742105263,-2.325345215789474,2.096448463157895,-2.931598552631579,-5.336830610526316,2.017875605263158
542,1747679341860,2.020386105263158,-2.1764446947368423,1.8291415684210528,-2.362803884210526,-5.523195694736842,2.2485893842105265
543,1747679341870,2.2844505222222224,-2.0451591444444444,1.5838570111111112,-1.8449034666666664,-5.920084344444445,2.110435322222222
544,1747679341880,2.1401540789473685,-1.9402999894736843,1.3006164315789475,-1.4193096,-6.40198227368421,1.8022999842105263
545,1747679341890,1.7642288105263157,-1.8690609789473684,0.9919482000000001,-1.3101200842105263,-6.556052905263157,1.7744909947368424
546,1747679341900,1.516318094736842,-1.837667557894737,0.7848848842105263,-1.4262758947368421,-6.376247652631579,2.133709084210526
547,1747679341910,1.4116474388888889,-1.8688141833333332,0.4800402588888889,-1.7822601,-5.776392011111111,2.8384245666666663
548,1747679341920,1.801402594736842,-1.8799537263157895,0.23159426947368422,-2.446903594736842,-4.792368778947369,3.519056436842105
549,1747679341930,2.130212,-1.8196073157894737,0.20667474210526313,-2.6840649,-4.458661,3.7148407
550,1747679341940,2.445970721052632,-1.6382599842105263,0.5965240605263158,-3.731611594736842,-4.036816600000001,3.7000390789473685
551,1747679341950,2.6097517,-1.4133762,1.2947846888888888,-4.4502721,-4.10286285,3.5220279
552,1747679341960,2.6033232789473684,-0.9821569368421051,2.289510715789474,-4.309376710526315,-5.036650684210526,3.368798115789474
553,1747679341970,2.990115705263158,-0.3927458952631579,2.8168542157894736,-3.6642195157894735,-5.059806052631579,3.5567331789473684
554,1747679341980,3.381146610526316,-0.3066836089473684,2.7563793894736843,-3.344023710526316,-4.635887210526316,3.534755052631579
555,1747679341990,3.6535658526315786,-0.3282634194736842,2.311835494736842,-3.4954033947368424,-4.448624978947368,3.4342837684210523
556,1747679342000,3.944256611111111,-0.3226572433333333,2.3757957555555556,-4.628170983333333,-5.118591966666667,3.688386583333333
557,1747679342010,4.698447766666666,-0.37824806555555557,3.0860021,-5.953477500000001,-5.344131922222222,4.195748222222223
558,1747679342020,5.331575157894736,-0.41879580368421054,3.7102064894736846,-6.725506947368421,-4.905062631578947,4.424530526315789
559,1747679342030,6.541071631578947,-0.6294557247368422,5.231839331578947,-7.452801473684211,-3.159487947368421,4.1681943684210525
560,1747679342040,6.657139831578948,-0.6498794989473684,7.99197297368421,-7.427795894736842,-0.15886447894736844,3.0343054368421054
561,1747679342050,5.579434284210526,-0.23806501157894738,10.142194684210528,-5.711824594736842,1.916325147368421,2.1053955105263156
562,1747679342060,5.060628677777778,-0.2834453788888889,11.674051444444444,-3.1183375,2.6066408666666665,1.8245894777777778
563,1747679342070,4.543527168421053,-1.7629089500000001,12.003708526315789,2.5328325789473682,4.244094263157894,1.0127152894736842
564,1747679342080,3.09459782631579,-2.5360567473684212,10.509949842105264,6.678236052631578,5.408875968421053,0.9429124421052633
565,1747679342090,2.0330771105263157,-3.026945842105263,8.122196410526316,9.62963262105263,5.648504526315789,2.2872754
566,1747679342100,2.416837794736842,-3.242204047368421,6.032424205263157,10.891017421052632,5.3405871578947375,3.6416178631578946
567,1747679342110,3.4073248,-3.1083066210526313,4.5830065157894735,11.260551368421051,4.809300868421053,4.269057842105263
568,1747679342120,4.507971905263158,-2.824223973684211,3.6384278263157896,11.060393999999999,4.181636263157895,3.8482787631578943
569,1747679342130,5.2938874210526325,-2.561361510526316,3.0810525842105263,10.766493210526317,3.952044010526316,3.073888189473684
570,1747679342140,5.963613277777778,-2.1349178166666665,2.4314407833333336,10.213717944444445,3.954021944444445,1.5041225999999999
571,1747679342150,6.033920489473684,-1.7251185473684212,1.6966828315789475,9.927458,3.9867492,0.6884266
572,1747679342160,5.638239510526316,-1.5000721052631578,0.8709471810526315,8.779215894736842,4.50390667368421,-1.2084155052631578
573,1747679342170,5.004075947368421,-1.5880098210526317,0.26825423368421053,6.778987210526316,5.4668488947368425,-4.147590094736842
574,1747679342180,3.434351089473684,-1.8671599631578946,-0.06666937947368422,4.072376736842105,7.218983115789474,-5.749971026315789
575,1747679342190,2.3812314105263157,-2.018706721052632,0.08778032447368421,2.8672271631578945,8.137183994736843,-5.741673136842105
576,1747679342200,2.262696652631579,-2.0414682631578946,0.13785059315789475,2.633822294736842,8.30538357894737,-5.641930810526316
577,1747679342210,1.2634747368421053,-2.2250506105263157,0.9235864421052632,1.7873861842105263,8.759691157894737,-4.032485568421053
578,1747679342220,1.0549214,-2.2327319368421055,1.4805250684210527,2.0084563578947368,8.579605315789474,-2.8050213578947365
579,1747679342230,1.1497740222222221,-2.2617734888888887,1.9730740555555555,2.0594208,8.543947,-2.6405222
580,1747679342240,1.6848203052631578,-2.3821464105263157,2.4077629,3.5625641052631583,7.204854589473685,-1.1083367052631579
581,1747679342250,2.0696858684210526,-2.514502494736842,2.557665389473684,4.7352511368421055,6.186350521052632,-0.35637272578947365
582,1747679342260,2.4582507,-2.708284047368421,2.4764070736842108,5.897061210526315,5.231818263157895,-0.1196599410526316
583,1747679342270,2.8224353315789474,-2.880511410526316,2.215625468421053,6.990862642105263,4.390764584210526,-0.07744186157894736
584,1747679342280,3.104565442105263,-2.9767983894736845,1.616554910526316,7.881143021052631,3.6638062736842105,-0.39180676631578953
585,1747679342290,3.116794,-2.9815254,1.5744743,8.047772631578948,3.412740315789474,-0.6782505710526315
586,1747679342300,3.0840391315789475,-2.8990596631578947,1.0211066157894737,7.900990236842106,3.3659808,-0.9543220094736842
587,1747679342310,2.930617089473684,-2.7278601263157896,0.642535247368421,7.468829710526316,3.468134084210526,-1.1939503105263156
588,1747679342320,2.6711456210526316,-2.547899921052631,0.4537891126315789,6.897119710526316,3.6210273,-1.3402839157894737
589,1747679342330,2.4376470947368425,-2.4113305789473682,0.40585114368421055,6.276855657894736,3.767641263157895,-1.320716652631579
590,1747679342340,2.2811420526315787,-2.325576663157895,0.4353692221052632,5.667076473684211,3.884539994736842,-1.1769621210526318
591,1747679342350,2.1421064315789473,-2.2785634105263157,0.5169100078947368,5.219497410526316,3.9741902263157898,-0.9948020421052632
592,1747679342360,2.006008122222222,-2.2353067222222225,0.6061636222222222,5.0027443,3.9547912000000003,-0.8215846
593,1747679342370,1.8882098368421054,-2.180272563157895,0.7052708631578948,4.808530052631579,3.7924226789473683,-0.541952907368421
594,1747679342380,1.8545299894736844,-2.157896442105263,0.8188730715789474,4.693818,3.6277553999999994,-0.31931278
595,1747679342390,2.1464226,-2.169791,0.8837923,4.698864063157894,2.7003031263157893,0.26904916526315786
596,1747679342400,2.607613631578947,-2.2278766,0.912616694736842,4.698303294736842,1.8759012631578948,0.2504350794736842
597,1747679342410,2.906031568421053,-2.303765442105263,0.91025324,4.659505273684211,1.075944294736842,0.03850367484210526
598,1747679342420,3.003191894736842,-2.238204078947368,0.8397078263157894,4.55337117368421,1.0980344736842105,-0.22080392223684212
599,1747679342430,3.0188186277777778,-2.088465672222222,0.7635805594444444,4.4134168944444445,2.233561838888889,-0.6701987961111111
600,1747679342440,2.9694862842105265,-1.8793113842105265,0.5998124505263158,4.4169054368421055,3.510912805263158,-1.1349123021052632
601,1747679342450,2.686482652631579,-1.5804055210526315,0.13374016631578947,4.549558842105263,5.326234368421052,-1.8448825368421053
602,1747679342460,2.077290057894737,-1.3353720578947368,-0.7672677978947369,4.536775684210527,6.107352894736842,-2.3070947157894737
603,1747679342470,1.2290113,-1.1203447500000001,-1.71370895,4.2533315,5.7614784,-2.38059785
604,1747679342480,0.5187233527777777,-0.7787459777777779,-2.3833477500000004,3.702116772222223,4.448481672222222,-1.992605188888889
605,1747679342490,0.7423482868421053,-0.43228318526315784,-2.827419210526316,2.8463144789473684,2.858410789473684,-1.3046815736842106
606,1747679342500,1.0899258222222221,-0.37957682833333334,-2.486204277777778,2.6325327,3.1744265444444446,-1.7206078555555555
607,1747679342510,0.32553848444444444,-0.36691296888888886,-2.416078688888889,3.345430988888889,3.2729043111111107,-2.3386974777777776
608,1747679342520,-0.8335679252631579,-0.3888666868421053,-3.1249377894736843,4.254032436842105,2.577797921052632,-2.3628808578947367
609,1747679342530,-1.1375847322222221,-0.36054034166666665,-3.500424822222222,4.4722433,2.3909843,-2.3507705
610,1747679342540,-1.603273,-0.27981162,-4.2580056,4.828826268421052,1.7679732263157895,-2.003606710526316
611,1747679342550,-1.5682572157894736,-0.29327330315789474,-4.341627326315789,5.0922265,1.412007,-1.4857764
612,1747679342560,-1.1628911000000002,-0.6114982447368421,-6.0626164526315796,4.740409157894737,2.9065718473684212,-1.8272774736842106
613,1747679342570,-2.029319921052631,-0.8644442921052632,-6.778140978947369,4.442920642105263,2.8464124736842105,-2.0340507263157894
614,1747679342580,-2.98795614,-1.05825656,-7.21070764,3.99287448,1.448012834,-1.5411701800000002
615,1747679342590,-3.141322,-1.4444529,-7.067105,2.8008444,-1.1552784,0.42956758
616,1747679342600,-2.8748114,-1.6938794,-6.901633999999999,2.079661,-2.7957845,1.7686038999999998
617,1747679342610,-2.4843197,-1.9296386,-6.925552,1.10601,-4.5289683,3.3143015
618,1747679342620,-1.5598309,-2.0360475,-6.800106,-0.1925464,-5.5867753,4.8749127
619,1747679342630,-0.05155709,-2.238127,-6.3964353,-1.7615466,-5.735912,5.9785256
620,1747679342640,1.28227680125,-2.38889335,-5.71264835,-3.1403306625,-5.5844449375,6.2641497375
621,1747679342650,2.1669233666666665,-2.4768149333333334,-4.755231833333333,-4.604025,-5.321524666666666,6.126242333333334
622,1747679342660,2.835254868421053,-2.685676521052631,-3.3034078578947366,-5.7495012,-4.995610052631579,5.780443052631579
623,1747679342670,3.185889377777778,-2.8719166000000005,-1.8480761222222222,-6.206299866666667,-4.906781911111111,5.5231849111111115
624,1747679342680,3.489388133333333,-2.9494726,-1.1439980333333333,-6.299569600000001,-5.200084333333333,5.348955133333334
625,1747679342690,4.000552688888889,-3.0141748333333336,-0.6846280055555556,-6.222870733333334,-6.1479324222222225,4.966762233333333
626,1747679342700,4.4425133,-3.0720706,-0.30354619,-6.135164,-7.085246233333333,4.473663466666667
627,1747679342710,4.551227155555555,-3.147131761111111,0.06945461277777779,-5.9838964,-7.489336033333334,3.534811133333333
628,1747679342720,4.199971147368421,-3.233880568421053,0.5622533252631579,-5.810950189473684,-6.604606563157894,3.087848905263158
629,1747679342730,3.8010220888888893,-3.0085886444444445,0.6587173044444445,-5.7211315,-5.433021966666667,2.9841881444444445
630,1747679342740,3.4873542333333334,-2.7726936833333333,0.6553547433333333,-5.74101645,-4.364562416666667,3.051181383333333
631,1747679342750,3.4485110470588234,-2.790299394117647,0.6014324235294117,-5.853224094117647,-3.978665705882353,3.138407682352941
632,1747679342760,3.476941222222222,-2.8685268444444443,0.5536370833333334,-5.977149716666666,-4.0301292222222225,3.1475877944444446
633,1747679342770,3.5294307263157894,-2.989540715789474,0.47472666842105266,-6.176223373684211,-4.302179631578947,3.095754315789474
634,1747679342780,3.6317548736842102,-3.1822690315789472,0.3888956,-6.581135947368421,-4.755533194736842,2.902268757894737
635,1747679342790,3.725370063157895,-3.3614583315789472,0.4156391263157895,-7.121897342105263,-5.1282070736842105,2.538228894736842
636,1747679342800,3.7343616421052634,-3.558245384210526,0.5702943368421053,-7.805123736842105,-5.2111296631578945,1.9423540789473683
637,1747679342810,3.369827277777778,-3.7687183944444445,0.9257430622222222,-8.453887833333333,-4.7919111333333335,1.3220809166666667
638,1747679342820,2.963808747368421,-3.8008383526315783,1.287976772631579,-8.73291294736842,-4.402258231578948,1.0650814842105263
639,1747679342830,2.500382715789474,-3.6636526631578947,1.7125336263157895,-8.642533421052631,-4.225031863157895,1.1175596631578946
640,1747679342840,2.282484375,-3.4327870750000002,2.032935825,-8.173101625,-4.2002014625,1.4562154374999998
641,1747679342850,2.2858063333333334,-3.2388700000000004,2.1994235444444445,-7.698734,-4.212229944444445,1.658526711111111
642,1747679342860,2.395360888888889,-3.057671111111111,2.2385812444444446,-6.925707933333333,-4.292006411111111,1.8444744333333334
643,1747679342870,2.4500296,-2.99324,2.2173212,-5.928465389473684,-4.495889200000001,1.8469849526315791
644,1747679342880,2.4329457666666667,-2.7284380833333333,2.2034912833333333,-5.0525009,-4.729770833333333,1.7876011333333335
645,1747679342890,2.35704395,-2.539158122222222,2.2517332166666666,-4.911531,-4.768653,1.7781913
646,1747679342900,2.2779693500000002,-2.2051792999999997,2.2290359,-4.220115799999999,-4.9057759999999995,1.77487715
647,1747679342910,2.24380135,-1.8298192000000002,2.03769505,-2.8278754999999998,-4.892223499999999,1.70522075
648,1747679342920,2.13565535882353,-1.646216405882353,1.7089641588235294,-2.3177395294117646,-4.027166482352941,1.4214533235294116
649,1747679342930,1.7059179384615386,-1.5385086538461539,1.5326466076923078,-2.2541081076923075,-2.9651613307692313,1.1986879076923076
650,1747679342940,1.1556528263157895,-1.344209542105263,1.430634647368421,-2.3357306842105263,-2.1329662,1.1909507105263157
651,1747679342950,0.5347226488888889,-1.1413878888888889,1.4813528666666667,-2.4296,-1.8295903,1.4884397
652,1747679342960,0.031557949444444434,-1.0034955677777777,1.6223094388888888,-2.353337522222222,-2.3550612055555558,1.973903972222222
653,1747679342970,-0.16805375888888888,-0.7431949977777779,1.8061116888888888,-2.1155026333333335,-3.5114639833333334,2.9790985833333337
654,1747679342980,0.31642984842105265,-0.35654838157894736,1.8792890105263158,-1.8895183947368421,-4.255700305263158,3.921557705263158
655,1747679342990,1.283723194117647,-0.20036382176470588,1.7789656,-1.9381297235294117,-4.307769494117647,4.402938117647059
656,1747679343000,2.3770566499999997,-0.18731394,1.60815425,-2.3847258,-3.9270943499999995,4.19900285
657,1747679343010,3.462404789473684,-0.1993498152631579,1.5562856368421052,-3.3986325263157893,-3.352580894736842,3.290136789473684
658,1747679343020,3.753166642105263,-0.29766635315789475,1.9503224894736841,-4.631759221052631,-3.112279905263158,2.1976248631578947
659,1747679343030,3.5722047999999997,-0.7469372750000001,3.09934415,-5.3983564,-3.1387994,1.5981618
660,1747679343040,3.636327505263158,-1.340895457894737,5.154614484210526,-6.133052231578947,-3.4141980526315794,1.4501462210526315
661,1747679343050,4.132200521052631,-1.3518395842105264,6.553755763157895,-5.758135631578948,-3.7014827736842104,1.4244116684210526
662,1747679343060,4.4303102333333335,-1.095451,7.3882431,-4.109032666666667,-4.0286493666666665,1.1724114333333333
663,1747679343070,4.266046742105263,-0.6869248342105263,7.960091157894736,-2.160011252631579,-3.6585357578947373,0.6532729305263159
664,1747679343080,3.816133836842105,-0.6533476794736842,8.111098631578948,-0.4892854042105263,-2.8232009789473684,0.41740113210526314
665,1747679343090,3.512578005263158,-0.6961476042105262,8.104573157894738,0.33105870631578943,-2.3376089684210526,0.4856340642105263
666,1747679343100,3.231500977777778,-0.7365783222222222,7.812415111111111,1.7980761999999997,-1.4543808111111112,0.8817128222222221
667,1747679343110,3.5524233894736845,-0.6635723736842105,7.253224368421052,3.361957989473684,-0.4057813657894737,1.3849408894736843
668,1747679343120,4.180087368421053,-0.5812608810526316,6.116585268421052,4.3399823,0.7014761221052632,1.4495294578947369
669,1747679343130,4.397986244444444,-0.45146523111111114,5.004509,5.059913433333333,2.7134039666666667,1.0026794
670,1747679343140,4.463501694736841,-0.3146218989473684,3.7189922842105267,4.87508097368421,4.051225815789473,0.450592497368421
671,1747679343150,4.372061566666667,-0.4614444555555555,3.090612111111111,4.330089588888889,4.833041944444444,-0.2591845566666666
672,1747679343160,4.039433247368421,-0.5618390442105262,2.9109830684210523,3.986595,5.1191242842105265,-0.7224309694736842
673,1747679343170,3.5293535368421054,-0.6188713784210527,2.877714305263158,3.651709684210526,5.355500963157895,-1.3320420368421053
674,1747679343180,3.155951683333333,-0.7194400922222222,2.8366299500000003,3.6549491666666665,5.445450044444445,-1.566854811111111
675,1747679343190,2.9854913,-0.77866465,2.8089159,3.6615775000000004,5.4674654,-1.6210649
676,1747679343200,2.8210509444444445,-0.8715148544444444,2.7468711,3.725966833333333,5.567837488888888,-1.7214364555555557
677,1747679343210,2.307371852631579,-1.2221808610526317,2.760823915789474,4.036830694736842,5.821525631578948,-1.7442430263157893
678,1747679343220,2.1936882777777775,-1.3247562666666668,2.7976623555555555,4.29452175,5.872620733333333,-1.6958109166666668
679,1747679343230,2.1999141235294117,-1.8144148176470587,2.8721985882352943,5.6864555,5.518911541176471,-1.4137771529411765
680,1747679343240,2.4623953000000003,-2.198182866666667,2.5357345,6.710480422222222,4.993068366666666,-1.3110731777777778
681,1747679343250,2.765243088888889,-2.5133149777777777,2.1723061555555554,7.436398199999999,4.595251733333333,-1.4126283111111109
682,1747679343260,2.869088805263158,-2.6529215263157897,1.9351909631578945,7.874919421052631,4.466566378947368,-1.584677747368421
683,1747679343270,2.9977456315789475,-2.891686526315789,1.2571741421052631,8.308537210526316,4.535976547368421,-1.9544924105263157
684,1747679343280,2.955459357894737,-2.9604593736842104,0.9087375210526316,8.254321894736842,4.622599263157895,-2.196251342105263
685,1747679343290,2.8675686235294116,-2.972739229411765,0.6145540982352942,8.0579208,4.670084388235294,-2.4086708352941173
686,1747679343300,2.804401,-2.9649293,0.45376343,7.61589214736842,4.693355357894737,-2.657342305263158
687,1747679343310,2.625596957894737,-2.914987636842105,0.3286006005263158,7.2218007368421056,4.694813105263158,-2.7984056736842104
688,1747679343320,2.4555211125,-2.8606561375,0.262422546875,6.8206169,4.661061,-2.8690213
689,1747679343330,2.3020539789473684,-2.8066777157894736,0.30373244,6.425151747368421,4.608246368421052,-2.871460147368421
690,1747679343340,2.0438642666666667,-2.6445094777777776,0.5087034622222223,5.8403964777777775,4.569685177777778,-2.7111847333333334
691,1747679343350,1.9531833222222224,-2.5700991444444443,0.6283999277777778,5.719903422222222,4.503401822222222,-2.576014511111111
692,1747679343360,1.8867455555555557,-2.5142369777777778,0.7044915888888889,5.694928888888889,4.402201777777778,-2.416343311111111
693,1747679343370,1.8740546000000002,-2.503173,0.7178334,5.756166357894737,4.312383684210526,-2.2388617157894735
694,1747679343380,1.6739817888888888,-2.356575955555556,0.6827975900000001,5.872236449999999,4.0765862777777775,-2.0342096888888888
695,1747679343390,1.614172094736842,-2.3064116210526313,0.6174359268421054,5.936980831578947,3.810588163157895,-1.9207404421052634
696,1747679343400,1.5433954789473683,-2.2341964473684213,0.4164869247368421,5.9745450842105265,3.2230112842105263,-1.7272549157894737
697,1747679343410,1.5649696444444445,-2.1770583888888893,0.2548296622222222,5.853890311111112,2.8063187333333333,-1.6467496
698,1747679343420,1.6245738666666667,-2.0831235,0.048791111111111105,5.584852000000001,2.5404762,-1.6676998
699,1747679343430,1.6406844842105264,-1.9843075052631578,-0.13924429157894735,5.199089368421053,2.389694642105263,-1.7346556947368423
700,1747679343440,1.5414174105263159,-1.8733257157894736,-0.24179972315789472,4.401823652631579,2.5084435263157894,-1.833557052631579
701,1747679343450,1.3803268,-1.72658305,-0.24155565499999998,3.567715944444444,2.9103594333333334,-1.8315137444444443
702,1747679343460,1.246013988888889,-1.532584522222222,-0.13045537666666665,2.83866135,3.4423995,-1.7568860499999999
703,1747679343470,1.1167835157894737,-1.5080617684210527,-0.12234011684210526,2.0934533368421055,4.21959322631579,-1.5960593210526315
704,1747679343480,0.9400746133333333,-1.4067052666666666,-0.2654461622222222,1.6732629166666666,4.782146083333333,-1.2995328333333331
705,1747679343490,0.8352955484210526,-1.2500547684210526,-0.3830446505263158,1.3303321000000001,5.193468789473684,-0.9123282078947369
706,1747679343500,0.9428606473684211,-0.8997941210526317,-0.6036466831578948,0.7744887289473684,5.746452421052631,0.020057795000000007
707,1747679343510,1.5238596111111111,-0.8397874333333334,-0.7546995911111112,0.5489954777777777,5.972992333333333,0.40885412555555556
708,1747679343520,2.265034342105263,-0.8614642873684212,-1.0018453684210527,0.3829763010526316,6.1550091,0.16941897689473684
709,1747679343530,2.323479631578947,-0.6524742189473685,-1.1317095526315788,0.4078698242105263,6.089187089473684,-0.37072576457894735
710,1747679343540,1.6459424666666669,-0.22264801333333337,-1.2026802444444444,0.7890349055555554,5.418937077777778,-0.9685318055555556
711,1747679343550,0.5901336694736843,0.13526551315789473,-1.3503076789473685,1.6574802105263156,3.610318731578947,-1.067688542105263
712,1747679343560,0.32973739631578947,0.25428837578947366,-1.6663745736842106,3.1329824105263158,1.069833052631579,-0.3781265363157895
713,1747679343570,0.6595715177777778,0.2850995511111111,-1.9638675888888888,4.091707066666667,1.4990034444444444,-0.39163235
714,1747679343580,0.7017577157894737,0.018888747263157896,-3.032170452631579,4.852598305263158,2.439481842105263,-0.6710179515789474
715,1747679343590,0.40123332631578945,-0.10940829757894736,-3.6330136421052632,5.215012021052632,2.8827435894736846,-0.8840146105263158
716,1747679343600,-0.7604620333333334,-0.26473432277777775,-5.005471722222222,5.7694974,3.0360604555555555,-1.1221664944444445
717,1747679343610,-2.0715289736842104,-0.27521308263157895,-6.901094210526316,5.786217678947368,2.4542272210526317,-0.8758289578947368
718,1747679343620,-2.6818005684210524,-0.29833428789473687,-8.097282631578947,5.090712726315789,1.3341305631578948,-0.16866207842105266
719,1747679343630,-2.7762122,-0.30861038,-8.32888,3.9191345333333327,0.28010514444444445,0.5900672833333334
720,1747679343640,-2.120597305263158,-0.3489440589473684,-8.553413157894736,1.2361963736842103,-1.4099885894736843,1.8284829315789473
721,1747679343650,-0.9266178710526315,-0.28790405999999996,-8.162433736842106,-1.3917319031578947,-2.6105407052631584,2.482835157894737
722,1747679343660,-0.25558895,-0.17974816,-7.5034790000000005,-2.2739384,-2.9662266,2.5792696
723,1747679343670,0.966752505263158,-0.17941419,-5.455556157894736,-4.017775,-3.3646352,2.33852
724,1747679343680,1.9630348411764704,-0.28015619705882355,-3.6814850705882347,-4.9573374823529415,-3.589217847058823,1.7042494235294119
725,1747679343690,2.2863964411764703,-0.40488378588235296,-3.0635321529411765,-5.222964064705883,-3.5031195058823528,1.2198051494117648
726,1747679343700,2.5783224249999996,-0.7896065141666667,-2.197837091666667,-5.420727133333333,-2.72370165,0.4617917841666666
727,1747679343710,2.5101898375,-0.9866623912500001,-1.9317740625000002,-5.605284075,-2.21708,0.2340916825
728,1747679343720,2.629623346666667,-1.1878348133333332,-1.59566658,-5.662542,-2.0682094,0.17177376000000003
729,1747679343730,2.65923564,-1.3640116,-1.3487456999999998,-5.9497372,-1.9910842800000002,-0.041278963999999994
730,1747679343740,2.607317470588235,-1.9733678882352939,-0.8543833911764706,-6.530293235294118,-2.340979482352941,-0.45171878529411763
731,1747679343750,2.60578706,-2.24920712,-0.6509373199999999,-6.71917694,-2.99062113,-0.584989538
732,1747679343760,2.6861550625,-2.6011011875,-0.087067415625,-6.95723695625,-4.213716912500001,-0.83177117875
733,1747679343770,2.5710278333333334,-2.705849111111111,0.72998204,-7.0087984,-5.928251444444445,-1.068193122222222
734,1747679343780,2.5852818545454546,-2.7529101545454546,1.3125342636363637,-6.4741758,-8.055088,-1.0920162727272726
735,1747679343790,2.5668518666666666,-2.8341147,1.5798435,-6.022956333333333,-8.597210666666667,-0.9851025333333333
736,1747679343800,2.3490984444444445,-2.7339429444444447,1.9348654888888888,-4.817847222222222,-8.678880722222223,-0.3867794661111111
737,1747679343810,2.21558216875,-2.56580434375,1.9076123875,-4.10233033125,-8.503201125,0.25779381875
738,1747679343820,2.5964066294117645,-2.478480164705882,1.506856117647059,-3.4080054294117645,-8.199804529411765,1.179638494117647
739,1747679343830,3.1028015444444446,-2.5066983444444446,1.1294766666666667,-3.3132806055555557,-7.589648666666666,1.5566756722222221
740,1747679343840,3.7493090722222226,-2.569827977777778,0.6199121955555555,-3.7299763,-6.478341888888888,1.4836459777777777
741,1747679343850,3.9674690333333333,-2.640224905555556,0.3393005777777778,-4.1654916222222225,-5.8874163333333325,1.2486369888888889
742,1747679343860,3.9769601111111115,-2.762877188888889,0.15425095777777778,-5.394628450000001,-4.665677,0.5346735833333334
743,1747679343870,3.3477806333333335,-2.934178388888889,0.6841534483333332,-7.216524922222222,-3.348301222222222,-0.5850368888888888
744,1747679343880,2.651892277777778,-3.141464177777778,1.5167140622222222,-8.002097622222223,-2.9790098222222223,-1.2845599555555554
745,1747679343890,1.7642287999999997,-3.0864701,2.5609539,-7.679086000000001,-3.4743574,-1.5219954
746,1747679343900,1.4194572444444442,-2.7402883333333334,2.937805338888889,-6.614295722222223,-4.196014266666667,-1.2473349388888888
747,1747679343910,1.2868528,-2.6071415,3.0827482,-5.797454411764706,-4.669708394117647,-1.0094782882352942
748,1747679343920,1.2248080611111112,-2.1252369166666667,2.9717020555555553,-3.504340111111111,-5.566179916666666,-0.3249941877777778
749,1747679343930,1.2271487526315787,-1.9402744210526317,2.4592459210526316,-1.5503089842105262,-6.086888289473684,0.14833796105263158
750,1747679343940,1.1850809500000001,-1.9140190499999998,2.07576785,-0.8237150999999999,-6.27227235,0.33902014999999996
751,1747679343950,1.0366941777777778,-1.8280024,1.5416350666666667,-0.23444678,-6.5060978,0.5822553466666667
752,1747679343960,0.7920589526315789,-1.7001734,1.0860001684210527,-0.18279083578947367,-6.7688253684210515,0.9297929389473684
753,1747679343970,0.609940847368421,-1.5449015894736842,0.8041012205263157,-0.36158693263157893,-6.89934814736842,1.4766656315789473
754,1747679343980,0.7981960277777778,-1.3191972222222224,0.6428535416666666,-1.0174155333333335,-6.423717333333333,2.537369266666667
755,1747679343990,1.3476103157894737,-1.3767076315789475,0.7064012210526316,-1.6564288842105264,-5.816311473684211,3.0279138
756,1747679344000,2.0318782333333334,-1.4737396666666667,0.9926417833333334,-2.4252947000000002,-5.058404433333333,3.0504711333333336
757,1747679344010,2.025803911111111,-1.4137558333333333,1.7330572888888889,-2.9296821222222227,-4.5509839111111114,2.4330918
758,1747679344020,1.6380641,-1.1432090736842107,2.283935852631579,-2.939139510526316,-4.503682442105263,2.173964915789474
759,1747679344030,1.0695333666666667,-0.20670292444444444,3.0247167111111115,-2.369101966666667,-4.555836799999999,2.4686005555555557
760,1747679344040,1.1197377736842105,0.5660393810526316,3.0608601999999996,-1.8085864210526315,-4.3002174,2.958054936842105
761,1747679344050,1.5549904777777777,0.9710630333333332,2.7853507555555557,-1.6259399777777779,-4.112983177777778,3.1909084500000002
762,1747679344060,2.1983168052631576,1.1318411,2.3001977789473687,-1.9967105105263157,-4.068718631578948,3.0567880526315787
763,1747679344070,3.01624265,1.02662678,1.9415365,-3.4305336111111107,-4.28526,2.4252798666666666
764,1747679344080,3.429290421052632,0.8307002163157895,1.9818701789473683,-4.796594863157895,-4.578867842105263,1.8584785999999998
765,1747679344090,4.494361722222222,0.07667465777777777,4.109198577777778,-7.601203466666667,-4.898792216666667,1.2886434944444445
766,1747679344100,5.465601,-0.41892427,7.8135533,-9.04469847368421,-2.741119489473684,0.4939879789473684
767,1747679344110,4.784843666666666,-0.7582180744444443,9.891402811111112,-7.613158333333333,0.4626203,-0.6438630933333334
768,1747679344120,3.404242052631579,-0.9340648831578946,11.152077263157894,-4.569861736842105,1.080822052631579,-1.146181605263158
769,1747679344130,1.9145681111111112,-1.1144874966666667,11.950378333333333,-0.16116548888888887,0.28554983777777776,-0.5450303022222223
770,1747679344140,2.019566822222222,-1.5135753222222224,11.126631166666666,3.528952277777778,0.2741278372222222,0.47916151222222214
771,1747679344150,2.9992354947368423,-1.8999149684210526,8.986185052631578,7.237050736842105,0.96986644,1.5656992821052633
772,1747679344160,3.5857909,-1.9740027833333333,7.551409427777778,8.740991377777778,1.5865918333333333,1.9395195999999997
773,1747679344170,4.302655378947368,-1.8298320315789471,5.514560363157895,9.839209368421052,2.4061782631578947,2.0592527631578945
774,1747679344180,4.808436133333334,-1.4817122333333335,3.8842321666666666,9.925327333333334,2.9279954444444445,1.6795952777777776
775,1747679344190,5.167525866666667,-1.0484293,2.4037808,9.317180333333333,3.1972704333333333,0.8934306733333331
776,1747679344200,5.277189,-0.8147851,1.5661764,7.458681578947368,3.5864903578947365,-0.8301907894736842
777,1747679344210,4.268066544444444,-0.6737200444444444,0.2537178444444444,4.907935833333333,4.738470116666667,-2.4104252833333337
778,1747679344220,3.5311492166666665,-0.6798756877777778,0.22763083333333334,2.8905040833333335,5.904401116666667,-3.1305435
779,1747679344230,2.591505868421053,-0.7285943578947368,0.5637947473684211,1.315418357894737,6.81037052631579,-3.323132052631579
780,1747679344240,1.90260925,-0.7725632299999999,1.070008,0.4154232261111111,7.286344083333333,-3.107285327777778
781,1747679344250,1.1602256894736842,-0.8057935473684211,1.9962050947368422,0.3230411936842105,7.331340694736842,-2.5392660421052633
782,1747679344260,1.0499003444444446,-0.8294285666666668,2.401069088888889,0.6052176911111111,7.224322177777777,-2.055219
783,1747679344270,1.156449147368421,-0.9056257736842106,2.708081794736842,1.181755857894737,7.026282736842105,-1.6162432526315789
784,1747679344280,1.7665609333333334,-1.1615090666666665,2.9177112000000003,3.0102280111111113,6.3990979999999995,-0.8931348111111111
785,1747679344290,2.3682062894736844,-1.4199186315789474,2.7494173263157897,4.486932605263158,5.799940142105264,-0.7736757552631579
786,1747679344300,2.8419342105263157,-1.8325038157894735,2.2051695894736842,5.975161805263158,5.020952110526316,-1.1181484236842103
787,1747679344310,2.812373238888889,-2.148042611111111,1.629278711111111,6.990407727777777,4.3174544500000005,-1.59058655
788,1747679344320,2.673857338888889,-2.23791005,1.2710027333333334,7.534165566666666,3.7580725666666672,-1.9459704333333336
789,1747679344330,2.577156511111111,-2.3208352888888886,0.8508717088888889,7.751598111111112,3.532000011111111,-2.163402488888889
790,1747679344340,2.532738022222222,-2.346867888888889,0.42431386666666665,7.647912111111111,3.7258778555555554,-2.3151434444444443
791,1747679344350,2.4435816315789474,-2.2809268684210524,0.01538524421052631,7.294798947368421,3.996056010526316,-2.386877389473684
792,1747679344360,2.3870630444444445,-2.164041855555556,-0.32266403111111114,6.505831555555556,4.387051266666667,-2.3479298666666666
793,1747679344370,2.4457908842105263,-2.050202894736842,-0.4851376473684211,5.74299052631579,4.818663957894737,-2.2846681263157897
794,1747679344380,2.507473084210526,-1.9578465789473682,-0.5279632715789473,4.94628552631579,5.2731391789473685,-2.2626900789473687
795,1747679344390,2.5380957789473686,-1.8411871999999998,-0.40652551894736844,3.9384902157894737,5.767701747368421,-2.3235222736842105
796,1747679344400,2.41293295,-1.7635170111111114,-0.11236801988888888,3.2106750055555557,5.865519,-2.431138722222222
797,1747679344410,2.054657,-1.7065703,0.43423885,2.8450807789473687,5.298088631578947,-2.5023743631578945
798,1747679344420,1.9043176666666666,-1.6974587666666667,0.5767682833333333,2.9957876,4.986321333333334,-2.4594273666666666
799,1747679344430,1.5738898947368423,-1.7677131894736844,0.6599532526315789,3.4213323736842107,4.615478763157895,-2.3142713
800,1747679344440,1.3585514,-1.7604799222222223,0.5259501666666667,3.9197262333333334,4.272003233333333,-2.0571127666666666
801,1747679344450,1.19809745,-1.681757816666667,0.26730370000000003,4.190540066666667,4.1170664722222226,-1.7682488777777778
802,1747679344460,1.1118252631578946,-1.6205079315789475,-0.0819036905263158,4.328993063157895,3.929168915789474,-1.3010374
803,1747679344470,1.1220327833333334,-1.57486075,-0.4307814083333333,4.173081416666666,3.6060950666666667,-0.8540751333333333
804,1747679344480,1.1751830944444446,-1.5009385611111112,-0.6509481333333333,3.928248433333333,3.2378687999999998,-0.5774616666666667
805,1747679344490,1.2613424736842107,-1.3962065894736841,-0.8700030631578947,3.5983344105263155,2.9170002105263158,-0.38199513315789474
806,1747679344500,1.5368189210526315,-1.200498352631579,-1.224297105263158,3.2141666,2.631734,-0.21917799000000002
807,1747679344510,1.74646695,-1.1608582611111111,-1.4293280055555555,1.5994046000000002,3.205200666666667,-0.4269043983333333
808,1747679344520,1.4964166333333333,-1.1204261,-1.4314974166666667,0.5506525333333333,4.007580999999999,-0.7095543511111111
809,1747679344530,0.8797111111111112,-0.9493420444444445,-1.3089265111111112,-0.3204964,4.841327,-0.7415122444444445
810,1747679344540,0.5026583821052631,-0.7444709547368421,-1.1724542842105263,-0.6037942473684211,5.124842910526316,-0.4396875557894737
811,1747679344550,0.27802867000000003,-0.31015607444444443,-0.8279710166666667,-0.8471509277777778,5.305190361111111,0.5291105444444444
812,1747679344560,0.6289558666666666,-0.12328958333333333,-0.654256475,-0.4982770666666667,4.932348083333334,1.1661973333333335
813,1747679344570,0.7097930444444445,0.051401171111111116,-0.4824401844444444,0.41199070833333334,4.649165916666667,0.9897186666666666
814,1747679344580,0.4120368270588235,0.21258104235294117,-0.3891816,1.0610182335294116,4.446817894117648,0.7126770282352941
815,1747679344590,-0.4791710589473684,0.36683730000000003,-0.5605384842105263,2.863807142105263,3.1476016842105263,0.17104489789473687
816,1747679344600,-2.765473736842105,0.18340900610526317,-2.029043836842105,5.798720736842105,-0.9177807368421051,0.18820126315789473
817,1747679344610,-4.358625222222222,-0.22145482822222223,-4.180287322222222,6.578979555555556,-5.133327777777778,1.7321482222222222
818,1747679344620,-4.5514846,-0.31105095,-4.9291635,5.717713744444445,-6.270260166666667,3.323474616666667
819,1747679344630,-3.2373006421052635,0.14782803789473684,-5.425781084210526,3.849512189473684,-3.498522184210526,4.388423957894737
820,1747679344640,-2.2787693555555553,0.6692456127777778,-5.281825872222222,2.867245777777778,-1.189840361111111,4.741044888888889
821,1747679344650,-1.3258699105263156,1.196015342105263,-4.793236178947368,2.131354226315789,1.2692615621052632,5.434793168421053
822,1747679344660,-0.00944367222222219,1.3860417277777777,-4.904703111111111,2.115524888888889,1.3293898111111109,5.595622777777778
823,1747679344670,1.6167668315789474,1.3817558105263157,-4.906838447368421,1.9754894315789473,1.1676691105263157,5.029768468421052
824,1747679344680,2.989992755555556,1.2408277777777776,-4.8891375833333335,1.544661911111111,0.8669470888888888,3.065384933333333
825,1747679344690,3.357023557894737,1.0928691315789474,-4.964204631578948,1.196893847368421,0.6095270505263158,1.7733135631578947
826,1747679344700,3.062151,0.6325514368421052,-5.204048736842105,0.4332679915789473,-0.38475639789473687,0.03491544736842112
827,1747679344710,2.1891325,-0.013789237222222216,-5.44564248888889,-1.037766523,-2.1038957000000003,-1.6471638499999999
828,1747679344720,0.6133576515789474,-0.76517725,-5.354028410526316,-3.0848284157894734,-3.828025,-2.192046194736842
829,1747679344730,-0.6548666,-1.7666084,-4.020294,-6.587191,-6.078927,-0.7411572
830,1747679344740,-0.33992999578947364,-2.063844436842105,-2.993994836842105,-7.322334894736842,-6.386059389473684,0.20552578421052636
831,1747679344750,0.6836461021052632,-2.2511261947368424,-1.338824194736842,-8.142476,-6.6467123,2.185122
832,1747679344760,2.1078615,-2.3987167,0.031056285,-7.72962711111111,-5.903395233333333,2.6491036
833,1747679344770,2.821844573684211,-2.4254344263157894,0.4934805502631579,-7.013296284210526,-4.687356221052632,2.577026942105263
834,1747679344780,3.1323109263157893,-2.2182426842105265,0.6736975473684211,-6.317230726315789,-3.9987474,2.1405491789473685
835,1747679344790,3.2235284333333336,-2.1133323333333336,0.6823637333333333,-5.8929941333333336,-3.7314409333333334,1.7693141333333333
836,1747679344800,3.3160476578947367,-2.120080315789474,0.6090095684210526,-5.378677210526315,-3.5113611684210526,1.1651040631578948
837,1747679344810,3.339656926315789,-2.3078759157894737,0.5689841557894737,-5.234922689473684,-3.414310147368421,0.7024432605263158
838,1747679344820,3.0519834222222224,-2.4991596444444446,0.5491626888888889,-5.228269611111111,-3.114890088888889,-0.04139734111111113
839,1747679344830,2.7116592,-2.4611952,0.5640773,-5.30994,-2.8692877,-0.43968758
840,1747679344840,1.9509712631578948,-2.3741566842105266,0.7201711842105263,-5.635686142105263,-2.418849321052632,-0.5448683552631579
841,1747679344850,1.589700811111111,-2.439121533333333,0.9137300222222221,-5.8656524999999995,-2.11721155,-0.5025381333333333
842,1747679344860,1.4864145736842105,-2.528221157894737,1.1249208526315788,-5.826312294736842,-2.1271913157894735,-0.47753246368421054
843,1747679344870,1.362510511111111,-2.5293686444444443,1.3172380000000001,-5.556844177777778,-2.495261577777778,-0.4729474566666667
844,1747679344880,1.2073986777777777,-2.4551752666666666,1.4444188777777778,-5.1070071666666665,-3.132230166666667,-0.42743703833333335
845,1747679344890,1.173687394736842,-2.4308551789473687,1.4578149,-4.958234705263158,-3.3326212631578946,-0.3964042294736842
846,1747679344900,0.9773625389473685,-2.171383742105263,1.3844437,-3.935861752631579,-4.568607357894737,0.017254464736842105
847,1747679344910,0.9494572144444445,-2.06243285,1.2830700444444443,-3.5522547277777776,-4.9774443277777785,0.23705075388888888
848,1747679344920,0.9778506684210527,-1.935521647368421,1.0596163,-3.0864542263157895,-5.360322715789474,0.5744434326315789
849,1747679344930,1.0806787055555556,-1.8870370166666666,0.8522546722222223,-2.8614460333333334,-5.2583782277777775,0.8511752411111111
850,1747679344940,1.236268757894737,-1.7964603684210527,0.5709622631578948,-2.9172104789473687,-4.544947363157895,1.1278198473684211
851,1747679344950,1.2377702000000002,-1.7307048777777778,0.5680907111111111,-3.1542012666666666,-4.167844055555555,1.1738317666666667
852,1747679344960,1.1657233263157896,-1.7107579,0.6846672736842105,-3.4271703263157898,-3.80217817368421,1.2094526263157894
853,1747679344970,1.0708236578947368,-1.7276619789473686,0.8959437631578948,-3.5460874684210526,-3.5078291157894737,1.281946694736842
854,1747679344980,0.9776594333333334,-1.6930115555555556,1.0707401666666667,-3.4435979,-3.3745776666666667,1.4447638666666667
855,1747679344990,0.9051473277777777,-1.5755115833333333,1.2366990944444445,-3.2140335666666666,-3.3645759611111115,1.6526678222222222
856,1747679345000,0.93990624,-1.417118405263158,1.3339109736842105,-2.7580376368421056,-3.497344568421053,1.9913561947368421
857,1747679345010,1.506233262222222,-1.4904440333333333,1.1551296777777778,-1.8803974777777777,-3.965562444444444,2.2712900333333335
858,1747679345020,1.7626103842105263,-1.553970305263158,0.933836852631579,-1.6085411052631577,-4.2402259,2.2046893368421054
859,1747679345030,1.9026093499999999,-1.590155,0.6185020849999999,-1.5522223,-4.56785035,1.9789936000000001
860,1747679345040,1.8405032105263157,-1.5716195,0.3906682347368421,-1.7426522000000002,-4.783229778947368,1.757895252631579
861,1747679345050,1.0457242263157895,-1.3635029315789475,0.49260703789473687,-2.8931368842105263,-4.707540252631579,1.9361866736842106
862,1747679345060,0.9651854600000002,-0.9485284999999999,1.0663471,-3.7386758000000007,-4.1209726,3.0479856
863,1747679345070,1.891789243333333,-0.9204618916666666,1.6244246833333333,-4.067132216666667,-3.9150215166666666,3.6862560999999996
864,1747679345080,3.31407375,-0.9974212616666667,2.1521578666666668,-4.250890333333334,-4.007876883333333,3.7206995333333333
865,1747679345090,4.244826833333333,-0.9501554933333334,2.6301031333333333,-4.3014309611111115,-4.295498211111111,3.0996508333333335
866,1747679345100,4.589846631578948,-0.7081963284210527,3.3150647842105263,-4.257851763157895,-4.712137615789474,2.341715794736842
867,1747679345110,4.344618894444444,-0.1483732561666667,3.990993694444444,-4.109565216666667,-4.973538283333333,1.9763303666666667
868,1747679345120,4.32009917368421,0.2272108724736842,4.394337684210526,-4.060217336842105,-5.080718999999999,2.0409750894736844
869,1747679345130,4.639223277777777,0.5614266,4.856176777777778,-4.096249488888889,-5.259147666666667,2.1912769666666665
870,1747679345140,5.401581,0.9647776,5.562472631578948,-4.414613705263157,-4.824663105263158,2.048992615789474
871,1747679345150,5.915886894444444,1.061933775,6.165869283333333,-4.799678261111111,-3.658943733333333,1.439023263888889
872,1747679345160,5.603197978947368,0.6950301057894737,7.871613526315789,-4.808088421052632,-1.2453212421052633,-0.028664000526315785
873,1747679345170,4.4527636,0.77988493,9.25398,-3.391044755555556,-0.08249875277777778,-0.5935589866666667
874,1747679345180,4.14663845263158,0.4617370236842105,9.543919263157894,-1.0544988478947368,0.4968333736842105,-0.7881969894736842
875,1747679345190,3.984439681818182,0.28928547927272724,9.291830636363636,0.23007278090909097,0.689274,-0.9163446181818181
876,1747679345200,3.4639829714285715,-0.071944593,7.938860142857143,3.3047143,1.0132940285714285,-1.1547837571428572
877,1747679345210,3.1950551444444444,-0.17307726333333331,6.68199611111111,4.68636115,1.1797795500000001,-1.1933615499999999
878,1747679345220,3.073326184210526,-0.2684308684210526,5.3905533684210525,5.427167889473684,1.7285024210526316,-1.2473816210526316
879,1747679345230,2.9228499,-0.30861039333333334,4.196625333333333,5.6134955,2.4499288000000004,-1.3465819333333335
880,1747679345240,2.869217294736842,-0.31112802631578945,3.4684614105263156,5.346375894736842,3.088115184210526,-1.467442647368421
881,1747679345250,2.8723514842105264,-0.3417507863157894,2.7352106105263156,4.711030378947368,4.149454289473684,-1.6763465
882,1747679345260,2.800984,-0.44918734000000005,2.191939,3.565821977777778,5.9629315,-2.081258711111111
883,1747679345270,2.5786092631578947,-0.5803103378947368,2.1816628736842105,3.1216008,6.687360526315789,-2.3069825789473684
884,1747679345280,2.4245450210526314,-0.7343746368421052,2.146904005263158,2.9599051263157894,7.071416178947367,-2.4382903631578947
885,1747679345290,2.361138572222222,-1.0250811499999999,2.1543000444444447,3.0704152777777782,7.1304603944444445,-2.5989770500000002
886,1747679345300,2.228696983333333,-1.3169736666666667,2.1723604277777775,3.4330191777777777,7.00748175,-2.645670938888889
887,1747679345310,2.0862303368421053,-1.681907747368421,2.1888049789473683,3.9365836842105266,6.88179947368421,-2.5277165
888,1747679345320,2.038278,-1.967386277777778,2.158015166666667,4.4853814,6.673995211111111,-2.336389422222222
889,1747679345330,2.140539410526316,-2.341889757894737,2.020045810526316,5.395097642105263,6.1424502,-1.9674438157894738
890,1747679345340,2.2324661611111107,-2.509789788888889,1.9409127055555555,5.884309200000001,5.796395472222222,-1.784109522222222
891,1747679345350,2.412162268421053,-2.6573659210526315,1.7853141368421053,6.488114394736842,5.332401547368422,-1.6147294789473683
892,1747679345360,2.5992899473684212,-2.7727151052631576,1.4806279631578947,6.996357157894738,4.999814789473684,-1.5522152368421054
893,1747679345370,2.7551012,-2.8468058,0.8603628,7.262050066666666,4.962885577777778,-1.5872131666666667
894,1747679345380,2.8015492,-2.7304804105263156,0.44849694736842105,7.263233699999999,4.9742484,-1.5912375
895,1747679345390,2.784903172222222,-2.6031011,0.16382343277777778,6.473459316666666,5.46219855,-1.6858093500000002
896,1747679345400,2.775987442105263,-2.427001610526316,0.07912271894736841,5.686026842105264,5.828197415789473,-1.6940636000000002
897,1747679345410,2.7433865,-2.2919009333333333,0.18977485166666666,5.017125666666667,6.069872066666666,-1.7167611999999999
898,1747679345420,2.6606125789473687,-2.1815311263157895,0.43197809631578954,4.565145315789474,6.142730778947368,-1.7402623473684211
899,1747679345430,2.5410244210526316,-2.115379210526316,0.6233703852631579,4.524441,6.147104,-1.7425049999999997
900,1747679345440,2.4357386777777776,-2.084967616666667,0.7140911722222223,4.478279444444444,5.763963955555555,-1.7471211555555555
901,1747679345450,2.301617131578947,-2.0681347210526315,0.7416996052631579,4.543279336842105,5.305265210526316,-1.7085287105263158
902,1747679345460,2.1153630263157894,-2.038077142105263,0.7067608684210526,4.699144389473684,4.710960263157895,-1.5952743421052633
903,1747679345470,2.0466302000000005,-2.0084420333333335,0.6174444777777777,4.790756911111111,4.420666555555556,-1.457961211111111
904,1747679345480,1.969426638888889,-1.9777993222222223,0.3894407988888889,4.847452838888889,4.532400833333333,-1.224431722222222
905,1747679345490,1.8702357117647057,-1.9615957764705882,0.2734482047058823,4.803665682352941,4.678230705882353,-1.0934461117647059
906,1747679345500,1.6257127666666666,-1.8596756,0.03344262355555556,4.753473,4.829373,-0.9552751999999999
907,1747679345510,1.8168638611111112,-1.70703125,-0.08139987527777778,4.524204277777778,4.762438888888889,-0.4182639416666667
908,1747679345520,2.2114446315789476,-1.5400205210526317,-0.22150444736842104,4.446508526315789,4.054253352631579,-0.3127529821052632
909,1747679345530,2.332573947368421,-1.3777095894736842,-0.4911234894736842,4.45194697368421,3.2532311789473685,-0.7215899694736843
910,1747679345540,2.2276664333333334,-1.21799485,-0.9129842277777777,4.265581672222222,2.82212015,-1.186792432222222
911,1747679345550,2.0924729578947368,-1.1361186368421052,-1.2185681157894737,3.953403368421053,2.7020411947368417,-1.5718945789473684
912,1747679345560,1.7597074157894737,-1.0261129789473684,-1.6574345000000001,3.247750547368421,3.1681220894736843,-1.949838863157895
913,1747679345570,1.4212899052631578,-0.9201407531578948,-1.9495325210526318,2.3400899263157897,3.9967850421052633,-2.1655267789473682
914,1747679345580,0.8077955722222222,-0.6381419016666666,-2.4510329833333335,1.2104057444444445,4.76812,-1.9785792722222222
915,1747679345590,0.8432081631578948,-0.3942616315789474,-2.8260061894736843,-0.1851456452631579,4.7892850000000005,-1.4352044894736842
916,1747679345600,0.8504785,-0.38426813,-2.8414974,-0.9312623600000001,4.732907111111111,-1.425648211111111
917,1747679345610,0.8504784999999999,-0.38426813,-2.8414974,-1.1255842,4.71752,-1.4303827
918,1747679345620,0.8504784999999999,-0.38426813,-2.8414974,-1.0570849157894737,4.601462252631579,-2.346733710526316
919,1747679345630,-0.12268621666666668,0.6110244194444445,-1.5502448333333334,-0.037728083333333357,4.340239100000001,-2.5849509333333334
920,1747679345640,-0.5262356210526317,0.8011050715789473,-1.487390852631579,0.6772694536842107,4.054365421052632,-2.5747562263157895
921,1747679345650,-1.4594077263157894,1.0483478894736842,-1.719604952631579,2.4645014789473683,3.0462895315789473,-2.176908336842105
922,1747679345660,-2.2411844666666667,1.0776889444444444,-2.4168379333333334,4.427857144444444,1.725194411111111,-1.3993717777777777
923,1747679345670,-2.575725589473684,0.830494645263158,-3.769274742105263,6.282126157894737,0.29762905789473687,-0.3070902963157895
924,1747679345680,-2.3781933631578944,0.5252432947368421,-5.313797342105263,6.735592094736842,-0.8254952368421052,0.5540912615789474
925,1747679345690,-1.7748453,0.220017615,-7.4785853499999995,5.848031150000001,-2.2034978,1.3179974
926,1747679345700,-1.085709,0.2621581633333333,-8.519408333333333,2.18796275,-3.0154061833333334,1.6366888666666666
927,1747679345710,-0.5657471447368421,0.32845609210526316,-8.276241631578948,-0.3812662684210526,-2.9443606736842107,1.6415012
928,1747679345720,-0.14730887144444446,0.16423696655555553,-7.081558277777778,-2.6006783777777773,-2.8140123444444445,1.6005290555555556
929,1747679345730,0.5367493365263157,-0.1894847637894737,-4.969624947368421,-5.029831663157895,-2.7868699210526313,1.454407294736842
930,1747679345740,0.9834511463157894,-0.40756917,-3.0625363684210525,-5.617408631578947,-2.9919049894736847,1.1739065368421053
931,1747679345750,1.08428535,-0.4555328450000001,-2.4385591,-5.66414,-3.115896,1.0058752
932,1747679345760,1.121972952631579,-0.5133615726315789,-1.4349057210526315,-5.192031726315789,-3.3390688052631576,0.771405052631579
933,1747679345770,0.9891030368421052,-0.6357498631578947,-0.5996647126315789,-4.188889915789473,-3.776836152631579,0.6922391578947369
934,1747679345780,0.8574748044444445,-0.7762783044444445,-0.2630598188888889,-3.3834697333333335,-4.187255555555556,0.8578035555555554
935,1747679345790,0.7809350042105263,-0.941720562105263,-0.10921241210526315,-2.7728952736842105,-4.529641368421053,1.1639266789473683
936,1747679345800,0.8616537710526316,-1.1791753736842103,-0.09921890315789475,-1.7681905210526316,-5.321748789473684,2.3525365894736843
937,1747679345810,1.3373184294444447,-1.4123727277777778,-0.16497592055555554,-1.5176011666666667,-5.953581000000001,2.9916449333333333
938,1747679345820,1.7567271947368424,-1.5002776631578947,-0.15977078789473684,-1.4133945736842106,-6.700424305263158,3.361060852631579
939,1747679345830,2.3396871941176474,-1.6016256058823528,-0.1623806105882353,-1.3569030764705883,-7.57982074117647,3.5607533529411763
940,1747679345840,2.8581795588235295,-1.7184860294117648,-0.2868785223529412,-1.5501231294117646,-8.027732705882354,3.3117950294117646
941,1747679345850,3.0428061894736844,-1.7718235894736842,-0.39889552736842104,-1.925239778947368,-7.945044684210527,2.978238805263158
942,1747679345860,3.0940967500000003,-1.81005065,-0.48195204,-2.4642127625,-7.509576025,2.6345966250000004
943,1747679345870,3.035124794736842,-1.8959330631578946,-0.5403716552631579,-3.4333377,-6.580553852631579,2.1974006157894737
944,1747679345880,2.8683979777777777,-2.036264622222222,-0.40889759999999997,-4.590176633333333,-5.455037333333333,1.8102676333333332
945,1747679345890,2.7008691578947372,-2.176753089473684,-0.14844139936842105,-5.836964768421052,-4.224302731578947,1.4345596684210526
946,1747679345900,2.4344101,-2.39993695,0.387623928,-6.867059166666667,-3.080919883333333,1.0571853777777778
947,1747679345910,2.1069107842105264,-2.5760307421052633,1.066655445263158,-7.6209453684210535,-1.9761481263157896,0.5547079978947368
948,1747679345920,1.9636235,-2.5879526125,1.28023280625,-7.58401146875,-1.9467692875,0.500740479375
949,1747679345930,1.5396961,-2.4904124285714286,1.7806677714285715,-6.971142342857143,-2.249304114285714,0.4075013857142857
950,1747679345940,1.3254952,-2.3500679166666667,1.9598406166666666,-6.161440422222222,-2.8645532,0.5281636555555556
951,1747679345950,1.2058955857142857,-2.1787165,1.9295427857142857,-5.124887942857143,-3.7064326714285714,0.8357373428571429
952,1747679345960,1.19758891875,-2.0875740250000003,1.7901294625,-4.3979407625,-4.27743298125,1.0880336875
953,1747679345970,1.2263266,-2.0023677,1.4949117,-3.5405369000000007,-4.9252462,1.4468943
954,1747679345980,1.22624525,-1.9958595000000001,1.4761192833333334,-3.4846105333333335,-4.9525879999999995,1.47938485
955,1747679345990,1.2189475,-1.9130140058823528,1.331335894117647,-3.103465405882353,-5.1156153294117646,1.723800211764706
956,1747679346000,1.2007616875,-1.76377125625,1.19075534375,-2.83626449375,-5.1470876500000005,1.9849856000000001
957,1747679346010,1.2679384125,-1.61785545,1.0456632250000002,-2.7084827375,-5.038430725,2.2378526
958,1747679346020,1.429761872222222,-1.6028730722222224,0.9455930805555555,-2.7449181666666664,-4.475704955555555,2.5721677555555558
959,1747679346030,1.6477320666666668,-1.5407740666666667,0.8822466083333333,-2.9456463555555557,-3.9547912666666667,2.5815186
960,1747679346040,1.8020306277777776,-1.5104295833333332,0.8899750666666666,-3.167457911111111,-3.5382732666666667,2.4809103777777772
961,1747679346050,1.8343546999999998,-1.5497227999999998,0.9542435,-3.4222925666666666,-3.1270814,2.2987501000000004
962,1747679346060,1.7717404555555556,-1.5361912055555556,1.0735060861111112,-3.537341,-2.943856,2.213884
963,1747679346070,1.6212112888888888,-1.4412529666666667,1.2114798,-3.7054159999999996,-2.604155333333333,2.0351565555555555
964,1747679346080,1.23145185,-1.1346357166666667,1.485908677777778,-3.7598628055555556,-2.3916352944444443,1.8883277555555555
965,1747679346090,1.079635415263158,-0.9879887,1.5931511368421054,-3.6797499736842108,-2.464879973684211,1.9135358842105263
966,1747679346100,0.8466549116666667,-0.4812673111111111,1.8458930555555557,-3.254594938888889,-2.939240022222222,2.149672477777778
967,1747679346110,0.8986476736842106,-0.22758337578947369,2.002113989473684,-2.911043152631579,-3.3275192315789472,2.3261292842105266
