id,timestamp,acc_x,acc_y,acc_z,gyro_x,gyro_y,gyro_z
0,1747638526.436082,0.96752596,-0.7944366,-0.1343371,-0.1880646,-3.6361446,3.3908894
1,1747638526.449812,1.5835071,-0.7554099,-0.17071119,-0.7624901,-4.5102673,4.092753
2,1747638526.465437,1.8592854,-0.6568066,-0.10457927,-1.6261518,-4.4326897,4.4305515
3,1747638526.4664392,2.250741,-0.38419926,0.04966753,-1.6261518,-4.4326897,4.4305515
4,1747638526.4805777,2.510878,0.016769271,0.23196477,-2.183779,-4.030752,4.587539
5,1747638526.4960115,2.7151585,0.38453463,0.40865192,-2.594421,-3.586666,4.704211
6,1747638526.4970145,2.8586423,0.66933787,0.6304941,-2.594421,-3.586666,4.704211
7,1747638526.5111458,3.164697,1.1652509,1.1049424,-2.9445891,-2.618473,4.5905933
8,1747638526.5271804,3.1549401,1.510332,1.5059111,-2.305872,-2.1682024,3.7146385
9,1747638526.5282443,3.1549401,1.510332,1.5059111,-2.305872,-2.1682024,3.7146385
10,1747638526.5425303,2.8847718,1.7707435,1.646712,-1.5930897,-2.1126153,3.1477723
11,1747638526.557417,2.2400088,2.4162385,1.4056003,-0.0684149,-2.6899424,2.1990502
12,1747638526.5584173,2.2400088,2.4162385,1.4056003,-0.0684149,-2.6899424,2.1990502
13,1747638526.5726464,1.9161484,2.6292999,1.0148762,0.13033953,-2.722928,1.7647377
14,1747638526.588193,1.65842,2.7115302,0.7857166,-0.032909397,-2.465074,1.2571237
15,1747638526.589193,1.4463649,2.775467,0.7066571,-0.33634776,-2.133384,0.86679226
16,1747638526.604124,1.2008322,2.8537946,0.7674228,-0.83663166,-1.5078765,0.3555131
17,1747638526.61937,0.75132436,2.7371414,1.4104786,-1.2578872,0.018630842,-0.8589276
18,1747638526.6204762,0.75132436,2.7371414,1.4104786,-1.2578872,0.018630842,-0.8589276
19,1747638526.6347215,0.5572886,2.735678,1.6630543,-0.89588386,0.35039726,-1.3903648
20,1747638526.6507287,0.59439445,2.7025054,1.8258383,0.16775393,0.8030351,-2.0665727
21,1747638526.6517677,0.59439445,2.7025054,1.8258383,0.16775393,0.8030351,-2.0665727
22,1747638526.666628,1.2801661,2.5133784,1.6228081,1.5733898,1.1218973,-3.222372
23,1747638526.6677208,1.2801661,2.5133784,1.6228081,1.5733898,1.1218973,-3.222372
24,1747638526.6821642,1.6264669,2.3623025,1.3946241,1.854456,1.4340403,-3.6884484
25,1747638526.6974037,2.2255871,1.9923114,1.1125039,2.068176,2.3124387,-4.4630027
26,1747638526.6984036,2.2255871,1.9923114,1.1125039,2.068176,2.3124387,-4.4630027
27,1747638526.7124622,2.7747045,1.5235035,0.9436221,2.2388315,3.204963,-5.389658
28,1747638526.7282102,3.0263045,1.1376579,0.8730997,2.4544606,3.4896176,-6.0854893
29,1747638526.7292883,3.0263045,1.1376579,0.8730997,2.4544606,3.4896176,-6.0854893
30,1747638526.7387738,3.1776245,0.71620035,0.7762038,3.0146077,3.5592542,-7.2015076
31,1747638526.7474163,3.1505194,-0.08720021,0.5687527,3.3853154,3.4309764,-7.682855
32,1747638526.7685025,2.919408,-0.68363744,0.3234945,3.8931587,3.0650787,-8.011491
33,1747638526.7701569,2.796901,-1.0162787,0.19464551,4.08443,2.8488388,-7.9937763
34,1747638526.7776418,2.796901,-1.0162787,0.19464551,4.08443,2.8488388,-7.9937763
35,1747638526.7874978,2.6553683,-1.2068996,0.08238286,4.113751,2.6123648,-7.8099113
36,1747638526.7984707,2.0354846,-1.5339005,-0.020367041,3.7741199,1.7052565,-7.123319
37,1747638526.8079057,1.7069899,-1.6359186,-0.09674345,3.4657183,1.2422342,-6.6566315
38,1747638526.8173697,1.7069899,-1.6359186,-0.09674345,3.4657183,1.2422342,-6.6566315
39,1747638526.8272057,1.4304798,-1.8828844,-0.23440392,3.0588176,1.0656995,-6.0580015
40,1747638526.8371887,0.809407,-2.325349,-0.5011573,2.542957,1.0040039,-5.43425
41,1747638526.847203,0.18757193,-2.5501182,-0.71467584,0.6630747,0.5812975,-3.5839937
42,1747638526.8572848,-0.17485777,-2.6577466,-0.63000625,-0.38681903,0.5263213,-2.453239
43,1747638526.8672438,-0.17485777,-2.6577466,-0.63000625,-0.38681903,0.5263213,-2.453239
44,1747638526.8771436,-0.41816464,-2.6604297,-0.5023769,-1.2068051,0.46096063,-1.1081533
45,1747638526.9005618,-0.5418914,-2.6357636,0.09726177,-1.3058387,-1.6941849,3.0585885
46,1747638526.9005618,-0.5418914,-2.6357636,0.09726177,-1.3058387,-1.6941849,3.0585885
47,1747638526.916298,-0.32761055,-2.511305,0.040642615,-1.1076951,-2.2860959,4.372521
48,1747638526.916375,-0.32761055,-2.511305,0.040642615,-1.1076951,-2.2860959,4.372521
49,1747638526.9315403,0.42185387,-2.254095,0.013537374,-0.8036459,-3.074165,6.765897
50,1747638526.9467602,1.475391,-2.0463998,-0.15433827,-0.03229855,-3.954396,8.319358
51,1747638526.9478827,1.475391,-2.0463998,-0.15433827,-0.03229855,-3.954396,8.319358
52,1747638526.9625823,2.025484,-1.8833722,-0.45673394,0.1066692,-3.966613,8.652269
53,1747638526.9782474,2.6843944,-1.5539321,-0.74178106,-0.35505497,-3.6446965,8.8398
54,1747638526.979313,2.6843944,-1.5539321,-0.74178106,-0.35505497,-3.6446965,8.8398
55,1747638526.992997,2.95066,-1.3416027,-0.7717828,-0.72141063,-3.447393,8.778104
56,1747638527.0078824,3.1390553,-0.9928628,-0.7134563,-1.5245221,-3.058894,8.516662
57,1747638527.0098827,3.1088095,-0.7136697,-0.6734539,-1.5245221,-3.058894,8.516662
58,1747638527.023366,3.0570686,-0.29023036,-0.5621669,-2.6205347,-2.5720487,8.444582
59,1747638527.0387292,3.2659528,0.3498985,-0.018659625,-3.1725879,-2.349624,8.92654
60,1747638527.039798,3.2659528,0.3498985,-0.018659625,-3.1725879,-2.349624,8.92654
61,1747638527.0540318,3.909771,0.7674533,0.5455806,-2.6361113,-2.6771145,8.660822
62,1747638527.069135,4.2983,1.5008193,0.6507697,-1.4361019,-2.8005056,7.2643485
63,1747638527.0701385,4.2983,1.5008193,0.6507697,-1.4361019,-2.8005056,7.2643485
64,1747638527.0848248,3.8416877,2.5267937,0.59171134,-1.1039537,-2.5775464,6.549046
65,1747638527.10034,3.4868195,2.7986693,0.7139746,-0.9382614,-1.1670237,4.251573
66,1747638527.1013415,3.4868195,2.7986693,0.7139746,-0.9382614,-1.1670237,4.251573
67,1747638527.1163495,3.1478362,2.9223962,0.86794704,-0.9320002,-0.67773503,3.4574718
68,1747638527.1174357,3.1478362,2.9223962,0.86794704,-0.9320002,-0.67773503,3.4574718
69,1747638527.131556,2.7271104,3.0290487,1.1395786,-0.65719527,-0.09193251,2.215543
70,1747638527.146872,2.505512,3.0243838,1.1227485,-0.07093464,-0.016187452,0.99201596
71,1747638527.1479,2.505512,3.0243838,1.1227485,-0.07093464,-0.016187452,0.99201596
72,1747638527.1627927,2.1284778,2.8611426,0.78327745,0.37712184,0.10720369,-0.621308
73,1747638527.17756,1.641102,2.6087804,0.52408546,0.29671904,0.65276664,-2.0916173
74,1747638527.178645,1.641102,2.6087804,0.52408546,0.29671904,0.65276664,-2.0916173
75,1747638527.1931577,1.5488403,2.5126467,0.46673456,0.054365408,0.9917869,-2.6151135
76,1747638527.2091596,1.6916232,2.438679,0.47627777,-0.38804072,1.627068,-3.2730722
77,1747638527.21016,1.8700176,2.387426,0.51188964,-0.38804072,1.627068,-3.2730722
78,1747638527.2248209,2.2512288,2.312025,0.6712587,-0.44912544,1.8842347,-3.57422
79,1747638527.240029,2.9430985,1.7394918,0.8935887,0.23502348,2.6044238,-5.2827597
80,1747638527.241112,2.9430985,1.7394918,0.8935887,0.23502348,2.6044238,-5.2827597
81,1747638527.2553513,3.0495071,1.549877,0.8725814,0.596416,2.7681308,-5.823436
82,1747638527.2564223,3.1236885,1.2833675,0.7730329,0.596416,2.7681308,-5.823436
83,1747638527.2707293,3.1346645,0.9612146,0.6334211,1.6587558,2.988112,-7.1886797
84,1747638527.2860007,2.9098954,0.06411959,0.23733091,2.4662957,2.8903766,-8.120222
85,1747638527.2870734,2.9098954,0.06411959,0.23733091,2.4662957,2.8903766,-8.120222
86,1747638527.3014345,2.711012,-0.24364227,0.0330812,2.712391,2.6758928,-8.417781
87,1747638527.3174055,2.4918528,-0.6872962,-0.26611307,2.6195421,2.3234339,-8.565606
88,1747638527.3185804,2.4918528,-0.6872962,-0.26611307,2.6195421,2.3234339,-8.565606
89,1747638527.3326476,2.4767299,-0.9481956,-0.44453815,2.2419622,2.227531,-8.500855
90,1747638527.348251,2.439624,-1.3120582,-0.49429715,1.8300984,2.3894055,-8.318136
91,1747638527.3492525,2.439624,-1.3120582,-0.49429715,1.4849697,2.631301,-8.100063
92,1747638527.3630772,2.4340138,-1.5090209,-0.4718568,1.0175952,3.0595813,-7.7518806
93,1747638527.378355,2.205586,-2.103263,-0.22733033,0.21135315,4.270891,-6.966331
94,1747638527.379445,2.205586,-2.103263,-0.22733033,0.21135315,4.270891,-6.966331
95,1747638527.3938074,1.8985864,-2.35904,0.061131615,0.34902287,4.5329447,-6.758643
96,1747638527.4094002,1.1805872,-2.8602889,0.16144235,1.6930395,3.8475742,-6.101982
97,1747638527.4104047,1.1805872,-2.8602889,0.16144235,1.6930395,3.8475742,-6.101982
98,1747638527.424777,0.2209885,-2.9916077,-0.32443967,2.8170748,2.626414,-5.198463
99,1747638527.4401674,-0.98874676,-3.0423727,-1.1134491,2.7105584,0.7059104,-2.7592735
100,1747638527.4412866,-0.98874676,-3.0423727,-1.1134491,2.7105584,0.7059104,-2.7592735
101,1747638527.4559329,-1.2986734,-2.9288905,-1.3689823,0.9659022,-0.4187358,-0.07513421
102,1747638527.4569347,-1.2986734,-2.9288905,-1.3689823,0.9659022,-0.4187358,-0.07513421
103,1747638527.4714608,-1.38752,-2.587712,-1.3248029,-1.4267101,-0.9593356,2.969405
104,1747638527.4861174,-0.8701422,-2.6160064,-0.9555435,-2.7071986,-1.3209572,4.8715835
105,1747638527.4872236,-0.8701422,-2.6160064,-0.9555435,-2.7071986,-1.3209572,4.8715835
106,1747638527.5014348,0.292761,-2.674577,-0.22781818,-3.7620556,-2.3636734,7.4274445
107,1747638527.51674,1.9591082,-2.4939868,0.45966098,-2.4479704,-4.6006727,9.365739
108,1747638527.51674,1.9591082,-2.4939868,0.45966098,-2.4479704,-4.6006727,9.365739
109,1747638527.5325983,2.5509112,-2.325593,0.4120667,-1.4990191,-5.1162276,9.834259
110,1747638527.5476537,2.9662704,-2.120581,0.2866326,-0.34696123,-5.1846423,10.37799
111,1747638527.5476537,2.9662704,-2.120581,0.2866326,-0.34696123,-5.1846423,10.37799
112,1747638527.5634518,3.7635732,-1.2134855,-0.3339829,-0.46157146,-4.358166,10.757326
113,1747638527.5785863,4.134296,-0.72049934,-0.44158065,-1.2373475,-3.1138701,10.971122
114,1747638527.5792968,4.134296,-0.72049934,-0.44158065,-1.2373475,-3.1138701,10.971122
115,1747638527.5943272,4.3912625,0.2315379,0.30763993,-1.923329,-2.2665489,11.255777
116,1747638527.6098218,5.39626,1.0893623,0.8477019,-1.3332505,-1.8762174,9.252732
117,1747638527.6108527,5.39626,1.0893623,0.8477019,-1.3332505,-1.8762174,9.252732
118,1747638527.625878,5.254209,1.9542603,0.5346044,-1.1575556,-1.7442744,7.7017913
119,1747638527.6268852,5.254209,1.9542603,0.5346044,-1.1575556,-1.7442744,7.7017913
120,1747638527.6411185,4.403458,2.748636,0.58655864,-1.5139849,-1.0503519,5.576577
121,1747638527.6562812,3.2444882,3.2750387,1.2676959,-0.39056048,-0.52929914,2.3878782
122,1747638527.6573856,2.7568986,3.3079672,1.321388,-0.39056048,-0.52929914,2.3878782
123,1747638527.6716506,2.2041225,3.3816912,1.1805872,0.009468133,-0.64719266,1.6682239
124,1747638527.687642,1.8336437,3.429773,0.8581903,0.072996244,-0.5012002,0.13255386
125,1747638527.6886792,1.6730856,3.2542753,0.5377753,0.072996244,-0.5012002,0.13255386
126,1747638527.702798,0.82038325,2.7086031,0.4367328,-0.693388,0.3302393,-1.3818128
127,1747638527.7183902,0.5631426,2.556064,0.61951786,-1.0859337,0.631387,-2.1777468
128,1747638527.719393,0.5631426,2.556064,0.61951786,-1.0859337,0.631387,-2.1777468
129,1747638527.7340233,0.6304941,2.3418133,0.74056154,-1.109604,0.47012332,-2.8435702
130,1747638527.7487323,1.2169613,2.2053726,0.7047058,-0.7046123,0.33146098,-3.1753368
131,1747638527.749733,1.2169613,2.2053726,0.7047058,-0.7046123,0.33146098,-3.1753368
132,1747638527.763863,1.7562914,2.1448507,0.62073743,-0.69583136,0.48844874,-3.4208972
133,1747638527.7796347,2.7102802,2.0489306,0.64000684,-0.88710296,1.2006966,-4.2278266
134,1747638527.7806373,2.7102802,2.0489306,0.64000684,-0.88710296,1.2006966,-4.2278266
135,1747638527.7948315,3.1432018,1.8634624,0.67540526,-0.4883724,2.9917772,-5.95599
136,1747638527.810349,3.446573,1.1567138,1.0978384,0.21631628,3.284373,-6.506974
137,1747638527.811416,3.446573,1.1567138,1.0978384,0.21631628,3.284373,-6.506974
138,1747638527.8294938,3.4211752,0.5587826,1.0539334,1.9659356,2.9490178,-6.883256
139,1747638527.8294938,3.4211752,0.5587826,1.0539334,1.9659356,2.9490178,-6.883256
140,1747638527.8397279,3.4697452,0.26032007,0.8159928,2.8762507,2.578768,-6.9932084
141,1747638527.8550138,3.4180043,-0.39688292,0.17412601,3.512448,2.37841,-7.2173896
142,1747638527.8709724,2.9367568,-0.9728312,-0.40596882,3.3535514,2.5463932,-7.263814
143,1747638527.8720486,2.9367568,-0.9728312,-0.40596882,3.3535514,2.5463932,-7.263814
144,1747638527.8859634,2.3683698,-1.2725438,-0.5728993,2.3448136,3.0021615,-6.457495
145,1747638527.8870227,2.3683698,-1.2725438,-0.5728993,2.3448136,3.0021615,-6.457495
146,1747638527.901595,2.0703952,-1.4577681,-0.49258974,1.6967809,3.2501655,-6.047006
147,1747638527.9173343,1.8126667,-1.6451875,-0.38791898,1.4257175,3.2862055,-5.791061
148,1747638527.9184206,1.5635059,-1.817728,-0.3766683,1.392121,3.196411,-5.637662
149,1747638527.9325948,1.2723608,-2.0058792,-0.42109162,1.4574815,3.052862,-5.4544077
150,1747638527.9478652,0.13339193,-2.3863587,-0.6712282,1.6612755,2.0131235,-4.4764414
151,1747638527.949866,0.13339193,-2.3863587,-0.6712282,1.6612755,2.0131235,-4.4764414
152,1747638527.9630623,-0.4679541,-2.517403,-0.9557874,1.4668733,0.8806127,-3.3793597
153,1747638527.9781983,-0.9245661,-2.7321715,-1.4087408,0.12789614,-0.057725064,-1.1722922
154,1747638527.9792655,-0.9245661,-2.7321715,-1.4087408,0.12789614,-0.057725064,-1.1722922
155,1747638527.9939675,-1.2247361,-2.7443674,-1.5034413,-1.2423106,-0.02107423,0.4086568
156,1747638528.0095062,-1.2737938,-2.7446113,-1.2755013,-2.750798,-0.41201648,2.921759
157,1747638528.0105317,-1.2737938,-2.7446113,-1.2755013,-2.750798,-0.41201648,2.921759
158,1747638528.0246758,-0.19022451,-2.6333244,-0.24367274,-2.6952872,-1.8627787,5.7299
159,1747638528.0404284,0.37401572,-2.536215,-0.08796245,-1.9650956,-2.622749,6.6742697
160,1747638528.0414655,0.37401572,-2.536215,-0.08796245,-1.9650956,-2.622749,6.6742697
161,1747638528.0564275,0.9592328,-2.4329772,-0.1326297,-1.1425898,-3.0766087,7.3278766
162,1747638528.057429,0.9592328,-2.4329772,-0.1326297,-1.1425898,-3.0766087,7.3278766
163,1747638528.0789032,1.7426322,-1.7394001,-0.5172558,-0.3381803,-3.22199,8.200853
164,1747638528.080536,1.7426322,-1.7394001,-0.5172558,-0.3381803,-3.22199,8.200853
165,1747638528.0949821,2.2819624,-1.1256144,-0.5985105,-1.1251806,-2.7779043,8.947309
166,1747638528.1100893,2.8374217,-0.27144876,-0.041099958,-2.1912618,-1.8597245,9.692542
167,1747638528.1111429,2.8374217,-0.27144876,-0.041099958,-2.1912618,-1.8597245,9.692542
168,1747638528.1248841,3.2579036,0.047258858,0.33739772,-2.3987207,-1.7173971,9.921
169,1747638528.1404905,4.4366617,1.639425,1.2311084,-1.682197,-1.9293611,8.792765
170,1747638528.141491,4.4366617,1.639425,1.2311084,-1.682197,-1.9293611,8.792765
171,1747638528.1560802,4.6170073,2.255162,1.2589148,-1.3008755,-1.7852011,7.999274
172,1747638528.1571205,4.700244,2.5599663,1.2127842,-1.1818367,-1.4596195,7.277176
173,1747638528.1714077,4.816165,3.4724588,2.1767733,-1.1401464,-1.0106468,6.2081933
174,1747638528.1864665,4.816165,3.4724588,2.1767733,-0.4285857,-0.7791357,4.06893
175,1747638528.1875613,4.816165,3.4724588,2.1767733,-0.4285857,-0.7791357,4.06893
176,1747638528.2024314,4.33318,3.7389681,2.1345758,1.1328926,-0.62092626,1.0042329
177,1747638528.2176254,3.0865824,3.4038877,1.0378045,1.8407118,0.05222744,-2.2308905
178,1747638528.2188613,3.0865824,3.4038877,1.0378045,1.8407118,0.05222744,-2.2308905
179,1747638528.2336845,2.5711563,3.033927,0.63878727,1.5765204,0.44935453,-3.2113767
180,1747638528.2489192,1.820472,2.312757,0.33300725,0.86060745,0.84884864,-4.3402224
181,1747638528.249919,1.820472,2.312757,0.33300725,0.86060745,0.84884864,-4.3402224
182,1747638528.2642086,2.0613399,1.7624198,0.33422682,0.6206972,0.8940513,-4.473998
183,1747638528.2795503,2.3627598,1.4148996,0.36669824,0.10605835,1.0302702,-5.125161
184,1747638528.2805493,2.3627598,1.4148996,0.36669824,0.10605835,1.0302702,-5.125161
185,1747638528.294947,2.5260315,1.1227789,0.4057249,0.03939965,1.1280059,-5.541759
186,1747638528.3098342,2.6219213,0.40700546,0.5009134,0.11667182,1.3344722,-6.5741673
187,1747638528.3098342,2.6219213,0.40700546,0.5009134,0.11667182,1.3344722,-6.5741673
188,1747638528.32476,2.5660338,-0.045216054,0.4984742,0.26678753,1.3692905,-7.067732
189,1747638528.339966,2.263181,-0.9442929,0.42819571,0.54594475,1.4285426,-7.5099854
190,1747638528.3400524,2.263181,-0.9442929,0.42819571,0.54594475,1.4285426,-7.5099854
191,1747638528.3553417,2.0325575,-1.5246316,0.2768759,0.53036815,1.4053304,-7.4660044
192,1747638528.3707213,1.7960804,-1.8694689,0.21879324,0.14843589,2.090701,-7.147142
193,1747638528.3727922,1.7960804,-1.8694689,0.21879324,0.14843589,2.090701,-7.147142
194,1747638528.386753,1.5332297,-2.142808,0.2607774,0.08857285,2.4284997,-6.9199066
195,1747638528.3868427,1.5332297,-2.142808,0.2607774,0.08857285,2.4284997,-6.9199066
196,1747638528.402751,0.9748435,-2.6179576,0.37255222,0.53846186,2.3747451,-6.370755
197,1747638528.4181354,0.063113436,-2.974015,0.0389352,1.7067837,0.76149744,-5.054914
198,1747638528.4181707,0.063113436,-2.974015,0.0389352,1.7067837,0.76149744,-5.054914
199,1747638528.4337094,-0.34178823,-3.0484705,-0.34788615,1.8893505,0.019241689,-4.1447515
200,1747638528.4490857,-1.0417072,-2.8639476,-1.0504881,1.0363023,-0.3930802,-1.8668256
201,1747638528.450086,-1.0417072,-2.8639476,-1.0504881,1.0363023,-0.3930802,-1.8668256
202,1747638528.4643824,-1.2291266,-2.7524474,-1.1547015,-0.40552622,-0.5781669,0.731795
203,1747638528.4797337,-1.1041803,-2.7109509,-0.9875271,-1.1070843,-0.84632885,2.5338707
204,1747638528.4807339,-0.9223709,-2.6645763,-0.80596167,-1.1070843,-0.84632885,2.5338707
205,1747638528.4950912,-0.021586625,-2.3363254,-0.7095536,-1.1120474,-1.9201983,5.373776
206,1747638528.5104604,0.8972475,-2.0983846,-0.86380047,-0.184934,-3.2128274,7.928416
207,1747638528.5114622,0.8972475,-2.0983846,-0.86380047,-0.184934,-3.2128274,7.928416
208,1747638528.525722,1.6786956,-1.8414185,-1.0651231,0.0025961008,-3.274523,8.36395
209,1747638528.526801,1.6786956,-1.8414185,-1.0651231,0.0025961008,-3.274523,8.36395
210,1747638528.5410187,2.5164883,-1.1217117,-1.1793371,-0.21547636,-2.8774724,8.50811
211,1747638528.5564382,3.091461,0.5041148,-1.4251137,-1.3040062,-2.4278123,9.271668
212,1747638528.5574386,3.091461,0.5041148,-1.4251137,-1.3040062,-2.4278123,9.271668
213,1747638528.572525,3.6957338,0.79894906,-1.3775194,-2.1669807,-1.9409672,9.50318
214,1747638528.5879116,4.1081667,0.90752244,-1.1332369,-2.7464457,-1.4907727,9.22219
215,1747638528.5889454,4.1081667,0.90752244,-1.1332369,-3.1021879,-1.1926793,8.402433
216,1747638528.6029716,4.0356927,1.4512737,0.5338726,-2.4616382,-1.413806,7.245412
217,1747638528.6183398,3.6061556,2.117776,1.0778373,-1.0422581,-1.7986398,6.3022637
218,1747638528.6194358,3.6061556,2.117776,1.0778373,-1.0422581,-1.7986398,6.3022637
219,1747638528.6338038,3.607619,2.4389226,0.8084008,0.5652628,-2.2964802,5.1996846
220,1747638528.6495283,3.5824957,2.9377627,0.37060088,0.4126273,-1.5237585,3.6792095
221,1747638528.650563,3.5824957,2.9377627,0.37060088,0.4126273,-1.5237585,3.6792095
222,1747638528.6646636,2.7786074,3.2201269,0.6314698,-0.5457157,-0.2678565,1.519788
223,1747638528.6797605,1.7533644,3.1827772,1.3221198,-0.7500441,0.083380654,0.6762079
224,1747638528.6807609,1.7533644,3.1827772,1.3221198,-0.7500441,0.083380654,0.6762079
225,1747638528.6951957,0.98853326,2.7557096,1.3528838,0.8157102,0.35161895,-1.9474574
226,1747638528.6961987,0.98853326,2.7557096,1.3528838,0.8157102,0.35161895,-1.9474574
227,1747638528.7103806,0.89017385,2.4933467,1.0546652,1.2880478,0.35284066,-2.60534
228,1747638528.7260509,0.8887104,2.1712244,0.4826196,1.3154596,0.47623178,-3.6487434
229,1747638528.7271209,0.8887104,2.1712244,0.4826196,1.3154596,0.47623178,-3.6487434
230,1747638528.741013,1.147628,1.9606023,0.242941,0.60076827,0.84518355,-4.293798
231,1747638528.7563508,1.4414866,1.889836,0.27004623,-0.024204822,1.2892694,-4.6248775
232,1747638528.757351,1.4414866,1.889836,0.27004623,-0.024204822,1.2892694,-4.6248775
233,1747638528.7720397,2.2131474,1.9222769,0.6256158,-0.83854055,2.230585,-4.9926076
234,1747638528.7885096,3.6862211,1.1811055,1.1068939,-0.6927008,3.4694598,-6.188112
235,1747638528.7895122,3.6862211,1.1811055,1.1068939,-0.6927008,3.4694598,-6.188112
236,1747638528.8038208,3.9248936,0.7059558,1.2454995,-0.10140064,3.7632773,-7.163024
237,1747638528.8192797,3.704759,-0.16601579,1.1007655,1.411439,3.8023715,-8.492915
238,1747638528.819838,3.704759,-0.16601579,1.1007655,1.411439,3.8023715,-8.492915
239,1747638528.8343906,3.4512074,-0.6655876,0.9196878,3.2719269,2.9703975,-8.872251
240,1747638528.8490741,3.2142425,-1.090216,0.6566237,3.2719269,2.9703975,-8.872251
241,1747638528.8500743,2.9016023,-1.6286011,0.050887115,3.2719269,2.9703975,-8.872251
242,1747638528.8648827,2.698816,-1.8223624,-0.240014,3.4095967,2.1126916,-8.514905
243,1747638528.8658834,2.698816,-1.8223624,-0.240014,3.4095967,2.1126916,-8.514905
244,1747638528.8804328,1.9942323,-1.9690479,-0.65878844,1.891794,2.4327755,-7.5209804
245,1747638528.8959558,1.5596032,-2.1054583,-0.6409825,0.71041536,2.8586125,-6.530797
246,1747638528.8975446,1.5596032,-2.1054583,-0.6409825,0.71041536,2.8586125,-6.530797
247,1747638528.911371,0.83965266,-2.3209586,-0.25245374,-0.36375955,2.865332,-4.753155
248,1747638528.9265418,0.5533859,-2.4290748,-0.13677627,-0.04161397,1.2526187,-2.661538
249,1747638528.9272022,-0.15263085,-2.4827669,-0.14238635,-0.04161397,1.2526187,-2.661538
250,1747638528.941476,-0.49600452,-2.4439535,-0.27907118,0.1078909,0.49516806,-1.80513
251,1747638528.9575179,-1.0236268,-2.29364,-0.56728923,0.09544489,-0.43767205,-0.43561044
252,1747638528.9585252,-1.0236268,-2.29364,-0.56728923,0.09544489,-0.43767205,-0.43561044
253,1747638528.9747937,-1.0949115,-2.0261548,-0.72077376,-1.2685007,-1.9757855,5.274819
254,1747638528.990148,-0.671716,-2.0410337,-0.6409825,-1.650433,-2.457744,6.894175
255,1747638528.990806,-0.671716,-2.0410337,-0.6409825,-1.650433,-2.457744,6.894175
256,1747638529.0056877,-0.30931684,-2.0798469,-0.5624109,-1.8273495,-2.807225,7.864277
257,1747638529.0067658,-0.30931684,-2.0798469,-0.5624109,-1.8005487,-3.3258343,8.834302
258,1747638529.0210724,0.57878375,-2.0891159,-0.34105647,-1.3270657,-4.251268,9.64001
259,1747638529.0362778,1.386331,-2.1386614,-0.47283247,-0.82853794,-4.823632,9.818988
260,1747638529.0372787,1.386331,-2.1386614,-0.47283247,-0.82853794,-4.823632,9.818988
261,1747638529.0521948,2.6375625,-1.8831282,-1.0067966,-0.45156884,-4.8272967,8.371891
262,1747638529.067685,2.3966641,-1.3308704,-1.1812885,-1.4709965,-3.7161655,6.5478244
263,1747638529.0677292,2.3966641,-1.3308704,-1.1812885,-1.4709965,-3.7161655,6.5478244
264,1747638529.083442,2.4393802,-1.0770445,-0.9953324,-2.2940369,-3.1236439,6.1874247
265,1747638529.098407,3.052678,-0.6370494,-0.7944976,-2.9358082,-2.6734493,5.900937
266,1747638529.0996008,3.052678,-0.6370494,-0.7944976,-3.4280748,-2.2024097,5.5649714
267,1747638529.1143155,3.3726053,-0.24754491,-0.32687885,-3.9097278,-1.6923523,5.169753
268,1747638529.129456,3.3150108,1.2228458,0.9304506,-3.2006106,-2.7339232,4.1825476
269,1747638529.1304567,3.3150108,1.2228458,0.9304506,-3.2006106,-2.7339232,4.1825476
270,1747638529.1446667,3.1263714,1.7538828,1.2208639,-2.371309,-2.8579252,4.2668443
271,1747638529.1604517,3.0519462,2.4186778,1.1800992,-1.304617,-2.6245816,4.560051
272,1747638529.1614518,3.0519462,2.4186778,1.1800992,-1.304617,-2.6245816,4.560051
273,1747638529.1757889,3.5683486,3.0463667,1.2765074,-0.7936433,-1.157861,3.7909944
274,1747638529.176789,3.5683486,3.0463667,1.2765074,-0.7936433,-1.157861,3.7909944
275,1747638529.1909406,3.8143387,3.2894297,1.529327,-0.4883724,-0.9465078,2.7751555
276,1747638529.2065632,3.2996438,3.3372676,1.5742382,-0.10140064,-0.7821899,1.7348062
277,1747638529.2076027,3.2996438,3.3372676,1.5742382,0.6139015,-0.27213246,-0.10689827
278,1747638529.2218196,2.4562104,3.3101628,1.3043139,1.0637141,0.083380654,-1.3506596
279,1747638529.2371655,2.088689,3.2030528,0.9858197,1.0232456,0.38826978,-1.8472785
280,1747638529.2381718,2.088689,3.2030528,0.9858197,1.0232456,0.38826978,-1.8472785
281,1747638529.2521703,2.142137,3.0099928,0.6141517,0.08047912,1.2165787,-2.3982627
282,1747638529.2678902,2.890382,2.5882912,0.9238344,-0.81738997,1.9098903,-3.8869739
283,1747638529.2689457,2.890382,2.5882912,0.9238344,-0.81738997,1.9098903,-3.8869739
284,1747638529.283056,3.0870705,2.3364167,1.021706,-0.7886802,2.358863,-4.709174
285,1747638529.2982998,3.093656,1.5869524,1.1718062,-0.57809055,2.7944734,-5.358505
286,1747638529.299302,3.093656,1.5869524,1.1718062,-0.022906773,3.2507763,-6.1862793
287,1747638529.3135874,2.7451603,0.4721617,0.9062724,1.969677,3.2715452,-7.519148
288,1747638529.3290281,2.566522,-0.11427496,0.5148166,1.969677,3.2715452,-7.519148
289,1747638529.3300312,2.566522,-0.11427496,0.5148166,2.8332622,2.9911664,-7.8532815
290,1747638529.344302,2.466973,-0.45033115,0.2476059,3.4513633,2.6740603,-8.051806
291,1747638529.3594332,2.2136352,-1.1221997,-0.5074991,3.4968715,2.203097,-7.951017
292,1747638529.3604784,2.2136352,-1.1221997,-0.5074991,3.4968715,2.203097,-7.951017
293,1747638529.3745046,2.1787245,-1.369897,-0.739098,3.0881383,2.3063302,-7.7805905
294,1747638529.3904324,2.086006,-1.6779027,-0.8674591,1.7235819,2.8665535,-7.31879
295,1747638529.3915055,2.086006,-1.6779027,-0.8674591,1.7235819,2.8665535,-7.31879
296,1747638529.4058092,1.6811347,-2.1250021,-0.46697846,0.22379917,3.8817816,-6.4501653
297,1747638529.4068973,1.6811347,-2.1250021,-0.46697846,0.22379917,3.8817816,-6.4501653
298,1747638529.421737,1.4060881,-2.2923899,-0.16241801,0.24067383,3.8811707,-6.111756
299,1747638529.437063,0.80571777,-2.4463928,-0.06064378,0.9509365,2.9972749,-5.3279624
300,1747638529.4380653,0.80571777,-2.4463928,-0.06064378,0.9509365,2.9972749,-5.3279624
301,1747638529.4525611,0.54826367,-2.4881332,-0.18973668,1.2070342,2.6245816,-4.906478
302,1747638529.467387,0.10384752,-2.4717906,-0.49502888,1.2587271,2.1377363,-3.9175162
303,1747638529.468567,0.10384752,-2.4717906,-0.49502888,1.2587271,2.1377363,-3.9175162
304,1747638529.482598,-0.3749609,-2.5349956,-0.7197981,0.68804306,1.5623182,-2.2993054
305,1747638529.4981554,-0.45133728,-2.4588325,-0.7993759,-0.30206397,0.17080817,-0.80639476
306,1747638529.4995792,-0.45133728,-2.4588325,-0.7993759,-0.30206397,0.17080817,-0.80639476
307,1747638529.5136757,-0.57972896,-2.245802,-0.6346407,-0.97437775,-0.92085224,0.39338565
308,1747638529.5289536,-0.58680254,-2.0808225,-0.52164626,-1.3008755,-1.6685293,1.2956071
309,1747638529.5299542,-0.58680254,-2.0808225,-0.52164626,-1.3008755,-1.6685293,1.2956071
310,1747638529.5446582,-0.46258798,-1.8811768,-0.3442274,-1.7015151,-3.2959027,4.4629264
311,1747638529.5593739,0.80769956,-1.4799644,0.114823766,-0.97315603,-4.019757,6.9821367
312,1747638529.560458,0.80769956,-1.4799644,0.114823766,-0.97315603,-4.019757,6.9821367
313,1747638529.5746608,1.3035821,-1.3872457,0.04966753,-0.2622062,-4.2286663,7.9888897
314,1747638529.5852902,1.74312,-1.289374,-0.07601053,0.24876754,-4.3196826,8.569195
315,1747638529.5864406,1.74312,-1.289374,-0.07601053,0.24876754,-4.3196826,8.569195
316,1747638529.6009028,2.8547397,-0.7956562,-0.7222373,0.8201388,-4.362442,9.180041
317,1747638529.6160746,3.1024678,-0.3837114,-0.970209,0.45500484,-3.9537852,9.144612
318,1747638529.6171513,3.1024678,-0.3837114,-0.970209,0.45500484,-3.9537852,9.144612
319,1747638529.6319551,2.9601727,0.32303715,-0.6685451,-0.81548107,-2.4436944,9.339473
320,1747638529.6472585,3.4284925,1.0785995,0.10823802,-1.5021498,-1.5970602,10.024233
321,1747638529.648302,3.4284925,1.0785995,0.10823802,-1.5021498,-1.5970602,10.024233
322,1747638529.6625485,4.1862807,1.4527372,0.22854991,-1.5681976,-1.5249802,9.59725
323,1747638529.6777618,4.494256,2.3601072,0.3954804,-1.8236082,-1.1132691,7.2203674
324,1747638529.6788123,4.494256,2.3601072,0.3954804,-1.8236082,-1.1132691,7.2203674
325,1747638529.6932747,4.287781,2.9775517,1.2779709,-1.5326158,-0.8640435,5.2949767
326,1747638529.7080197,3.872421,3.145458,1.4512432,-0.5924455,-1.054017,3.1074564
327,1747638529.7090218,3.3250415,3.2752826,1.4038929,-0.5924455,-1.054017,3.1074564
328,1747638529.7237866,2.5802116,3.384862,1.1969296,0.40636614,-0.79990447,0.6181774
329,1747638529.739013,1.8209598,3.063685,0.52997,-0.080860905,0.06627693,-1.2761363
330,1747638529.7410827,1.8209598,3.063685,0.52997,-0.080860905,0.06627693,-1.2761363
331,1747638529.754052,1.5639937,2.8006208,0.40621272,-0.66467816,0.607564,-2.1111646
332,1747638529.7694707,1.075642,2.561186,0.5855829,-1.4018182,1.4444247,-3.0659952
333,1747638529.7704751,1.075642,2.561186,0.5855829,-1.4018182,1.4444247,-3.0659952
334,1747638529.7854433,2.0984457,2.7137253,0.8194075,-1.7681737,1.5824761,-3.350039
335,1747638529.7864463,2.0984457,2.7137253,0.8194075,-1.7681737,1.5824761,-3.350039
336,1747638529.8006725,2.7703142,2.4450207,0.8433114,-1.7981052,1.8286476,-4.1361995
337,1747638529.815304,3.0236216,2.2485764,0.8520924,-1.7345008,2.2256982,-4.933966
338,1747638529.8163526,3.0236216,2.2485764,0.8520924,-1.7345008,2.2256982,-4.933966
339,1747638529.8302896,2.9374886,1.6199116,1.090033,-0.6478799,3.2862055,-6.9577794
340,1747638529.8455122,2.7363791,1.1349747,1.0458841,0.3846047,3.3900495,-7.5002117
341,1747638529.8465204,2.7363791,1.1349747,1.0458841,0.3846047,3.3900495,-7.5002117
342,1747638529.861431,2.5718877,0.37770495,0.6515014,1.5384952,3.3503444,-7.783034
343,1747638529.8767016,2.70467,-0.76297134,-0.3808149,4.1741486,1.6026342,-7.721949
344,1747638529.8777025,2.70467,-0.76297134,-0.3808149,4.1741486,1.6026342,-7.721949
345,1747638529.8918316,2.6719546,-1.0567994,-0.86623955,3.9653914,1.2025292,-7.5863414
346,1747638529.9067545,2.5599358,-1.1707696,-1.1615312,3.4108946,1.1579373,-7.4330187
347,1747638529.9078217,2.2995548,-1.2764465,-1.3406575,3.4108946,1.1579373,-7.4330187
348,1747638529.922524,1.8941958,-1.423833,-1.1017411,1.0805888,2.2128706,-6.3573165
349,1747638529.938274,1.5383519,-1.6188445,-0.82620674,0.5441122,2.5018013,-5.629721
350,1747638529.9393408,1.5383519,-1.6188445,-0.82620674,0.5441122,2.5018013,-5.629721
351,1747638529.9529939,0.7993759,-2.2069886,-0.54579407,0.48799062,2.3490894,-4.1007705
352,1747638529.9683707,-0.00060979166,-2.5349956,-0.5982666,0.7808155,1.6380633,-2.5399792
353,1747638529.969373,-0.00060979166,-2.5349956,-0.5982666,0.7808155,1.6380633,-2.5399792
354,1747638529.9836173,-0.61875564,-2.7350986,-0.71296847,1.0051491,0.8476269,-0.98964894
355,1747638529.9992716,-1.222297,-2.8959312,-1.2952585,0.75409096,-0.86282176,1.8777444
356,1747638530.0007803,-1.222297,-2.8959312,-1.2952585,0.75409096,-0.86282176,1.8777444
357,1747638530.014467,-0.90355885,-2.6414042,-1.5058806,0.26991814,-1.3521104,3.0482042
358,1747638530.0304456,-0.48332086,-2.4742296,-1.1915634,-2.2255456,-1.7619889,6.757345
359,1747638530.0315366,-0.48332086,-2.4742296,-1.1915634,-2.2255456,-1.7619889,6.757345
360,1747638530.0459177,0.19415767,-2.3578205,-0.6741857,-2.9109163,-1.9159224,7.775704
361,1747638530.0469763,0.76522756,-2.247509,-0.3249275,-2.9109163,-1.9159224,7.775704
362,1747638530.061593,1.403649,-1.9731945,0.0330812,-2.9887993,-2.5224938,8.144045
363,1747638530.0772173,1.6752806,-0.79370487,0.55484945,-2.0305326,-2.438197,7.3822417
364,1747638530.0782208,1.6752806,-0.79370487,0.55484945,-2.0305326,-2.438197,7.3822417
365,1747638530.0931473,1.5115211,-0.27315617,0.6026876,-1.5830871,-2.2268436,7.3284874
366,1747638530.1084218,1.4570973,0.65421504,0.8191636,-0.77501243,-1.2079505,7.7445507
367,1747638530.109422,1.4570973,0.65421504,0.8191636,-0.77501243,-1.2079505,7.7445507
368,1747638530.1236045,1.7792501,1.1684217,0.9260297,-0.49211383,-0.7986828,7.842897
369,1747638530.139069,2.6668324,2.084573,1.1434814,-0.20860434,-0.661853,7.5380077
370,1747638530.1396198,2.6668324,2.084573,1.1434814,-0.20860434,-0.661853,7.5380077
371,1747638530.1547022,3.446329,3.2784534,1.3233395,0.40827504,-0.26541314,4.4714785
372,1747638530.1695242,3.295497,3.6689336,1.4112103,0.6774296,0.11942064,3.0164402
373,1747638530.170527,3.295497,3.6689336,1.4112103,0.6774296,0.11942064,3.0164402
374,1747638530.1854575,2.9791982,3.8126614,1.41804,0.97216344,0.6350521,1.7256435
375,1747638530.1864605,2.9791982,3.8126614,1.41804,0.97216344,0.6350521,1.7256435
376,1747638530.2007284,2.7346718,3.6733243,1.3502008,1.5484978,1.1903123,-0.04214846
377,1747638530.2159135,2.5613995,2.9011447,0.80986434,2.1285737,1.4926816,-2.5143237
378,1747638530.2170172,2.5613995,2.9011447,0.80986434,2.1285737,1.4926816,-2.5143237
379,1747638530.2320163,2.4076405,2.6558867,0.6122004,2.210809,1.3931135,-3.3207185
380,1747638530.2480187,2.4755104,2.3139763,0.36864954,2.0481708,1.1066262,-4.200949
381,1747638530.2490194,2.4755104,2.3139763,0.36864954,2.0481708,1.1066262,-4.200949
382,1747638530.263188,2.9760275,1.9977081,0.2661436,1.7796271,0.84823775,-4.623045
383,1747638530.2786028,3.298912,1.8029406,0.19732858,1.1110548,0.45851722,-5.426309
384,1747638530.2795768,3.4599886,1.6518648,0.13192843,1.1110548,0.45851722,-5.426309
385,1747638530.293819,3.5922525,1.2680008,0.052838445,0.48111856,0.5373165,-5.94866
386,1747638530.3093574,3.1332011,0.12342183,0.36718607,-0.8902335,1.2813284,-7.023751
387,1747638530.3103616,3.1332011,0.12342183,0.36718607,-0.8902335,1.2813284,-7.023751
388,1747638530.3245702,2.7215002,-0.324897,0.5509468,-1.1512944,1.6624972,-7.150196
389,1747638530.3406713,2.1326244,-1.130005,0.94215864,-0.7288935,2.275177,-6.9871
390,1747638530.3416755,2.1326244,-1.130005,0.94215864,-0.7288935,2.275177,-6.9871
391,1747638530.3558705,1.4348704,-2.1779318,1.0214621,1.5964493,2.1401796,-6.5283537
392,1747638530.356922,1.4348704,-2.1779318,1.0214621,1.5964493,2.1401796,-6.5283537
393,1747638530.3707187,0.97926444,-2.6531122,0.6715026,2.5473094,1.7663412,-6.0250154
394,1747638530.3859031,0.4911567,-3.3188522,0.010122542,3.1922114,1.343024,-5.0347557
395,1747638530.386964,0.4911567,-3.3188522,0.010122542,3.1922114,1.343024,-5.0347557
396,1747638530.401601,-0.27708933,-3.7003076,-0.60119367,2.8650265,1.1756519,-3.8521554
397,1747638530.4168143,-0.82693845,-3.7813487,-0.8491654,2.2818198,0.8427402,-2.692691
398,1747638530.4179296,-0.82693845,-3.7813487,-0.8491654,2.2818198,0.8427402,-2.692691
399,1747638530.4317312,-1.2681837,-3.665915,-0.94042075,1.131671,-0.28862533,0.3023694
400,1747638530.4469004,-0.39621213,-3.2688494,-1.0868622,0.009468133,-1.2891932,4.21309
401,1747638530.4479666,-0.39621213,-3.2688494,-1.0868622,0.009468133,-1.2891932,4.21309
402,1747638530.4624507,0.1887915,-2.8869061,-0.95752543,-0.39056048,-1.4419049,5.7604423
403,1747638530.4778874,1.2272058,-2.2533631,-0.765441,-0.4010976,-2.3746688,7.181273
404,1747638530.478999,1.2272058,-2.2533631,-0.765441,-0.4010976,-2.3746688,7.181273
405,1747638530.4939673,1.7587308,-1.8946228,-0.72687167,-0.30023143,-2.7846236,7.4628735
406,1747638530.5092525,2.9513917,-0.6150664,-1.0209743,-0.18676655,-3.1615164,7.070099
407,1747638530.510253,2.9513917,-0.6150664,-1.0209743,-0.18676655,-3.1615164,7.070099
408,1747638530.5245013,2.9159935,-0.15479562,-1.1173518,-0.4734066,-2.942833,6.8923426
409,1747638530.5401268,2.602164,0.77550256,-1.2127842,-2.2784603,-2.1908038,7.417671
410,1747638530.5411649,2.602164,0.77550256,-1.2127842,-2.2784603,-2.1908038,7.417671
411,1747638530.5554502,2.8349826,1.198942,-0.8230359,-3.3184278,-1.9324152,7.899706
412,1747638530.5564775,2.8349826,1.198942,-0.8230359,-3.3184278,-1.9324152,7.899706
413,1747638530.571401,3.446573,1.7033616,0.1797361,-3.6729481,-1.4987137,7.545949
414,1747638530.5868828,3.68427,2.5467951,1.1727818,-1.7750458,-1.6245483,5.6553764
415,1747638530.5879245,3.68427,2.5467951,1.1727818,-1.7750458,-1.6245483,5.6553764
416,1747638530.6026,3.4321513,2.8960226,0.9594767,-0.7631773,-1.7131212,4.544169
417,1747638530.617979,2.5318856,3.444652,0.6134199,-0.083380654,-1.2690352,3.020716
418,1747638530.619133,2.5318856,3.444652,0.6134199,-0.083380654,-1.2690352,3.020716
419,1747638530.6326764,2.2726934,3.6189,0.5336287,-0.17370969,-1.0992197,2.3988736
420,1747638530.6480575,1.9734993,3.5293217,0.6229327,-1.1332744,0.021685077,0.23884128
421,1747638530.6490607,1.9734993,3.5293217,0.6229327,-1.1332744,0.021685077,0.23884128
422,1747638530.6632476,1.7099168,3.351171,0.85745853,-1.3145432,0.37727454,-0.481424
423,1747638530.6782923,1.2335476,2.7520509,1.3111435,-1.0304229,0.85251373,-2.3078573
424,1747638530.6793218,1.2335476,2.7520509,1.3111435,-1.0304229,0.85251373,-2.3078573
425,1747638530.694026,1.0973811,2.4799314,1.3823978,-0.55755085,1.0009496,-2.9620748
426,1747638530.7096817,1.0607631,2.1548514,1.3052896,0.42759308,1.3418024,-3.722656
427,1747638530.710737,1.0607631,2.1548514,1.3052896,0.42759308,1.3418024,-3.722656
428,1747638530.7254462,1.2655311,2.032588,1.1156749,1.0500464,1.8530815,-4.450175
429,1747638530.726449,1.7404369,1.847364,0.83965266,1.0500464,1.8530815,-4.450175
430,1747638530.740891,2.177749,1.6418641,0.6551602,1.0114104,2.083371,-4.794082
431,1747638530.756189,2.4867306,1.3338889,0.53436047,0.9166527,2.4926386,-5.3566723
432,1747638530.7571907,2.4867306,1.3338889,0.53436047,0.9166527,2.4926386,-5.3566723
433,1747638530.771175,2.644636,0.70449233,0.56436217,1.0120212,3.0382016,-6.2815714
434,1747638530.7863762,2.6375625,0.12708059,0.48603445,1.4425921,3.1499865,-6.724436
435,1747638530.7874358,2.6375625,0.12708059,0.48603445,1.4425921,3.1499865,-6.724436
436,1747638530.801682,2.613872,-0.24339835,0.4057249,2.1883602,2.8073013,-6.86432
437,1747638530.816434,2.5516427,-0.7314756,0.17412601,2.4083416,2.539063,-6.851492
438,1747638530.8175192,2.5516427,-0.7314756,0.17412601,2.4943185,2.1872149,-6.774525
439,1747638530.8345046,2.2541559,-1.2490973,-0.37057042,2.0706196,2.0980313,-6.428786
440,1747638530.8500047,1.8355949,-1.4194425,-0.44746515,1.1023502,2.4798107,-5.7061534
441,1747638530.8511028,1.8355949,-1.4194425,-0.44746515,1.1023502,2.4798107,-5.7061534
442,1747638530.864776,1.619881,-1.4331019,-0.42401865,0.69422793,2.5696054,-5.3047504
443,1747638530.8657787,1.619881,-1.4331019,-0.42401865,0.11102149,2.6453505,-4.546689
444,1747638530.8804243,1.1354321,-1.6188445,-0.28297383,-0.2216612,2.4981363,-3.7654152
445,1747638530.8955631,0.9985339,-1.7218382,-0.3715461,-0.34627405,2.2782311,-3.149681
446,1747638530.8965654,0.9985339,-1.7218382,-0.3715461,-0.34627405,2.2782311,-3.149681
447,1747638530.9110365,0.5436293,-1.7069288,-0.6641546,-0.75195295,1.774893,-2.0592425
448,1747638530.925759,-0.032318957,-1.6027155,-0.750806,-1.5787348,0.9404757,-0.6585697
449,1747638530.9267669,-0.032318957,-1.6027155,-0.750806,-2.0629075,0.39376742,0.13255386
450,1747638530.94102,-0.032318957,-1.6027155,-0.750806,-2.0629075,0.39376742,0.13255386
451,1747638530.9562852,0.16973552,-1.6142101,-0.03305071,-1.8460568,-2.4284232,2.5069935
452,1747638530.957376,0.16973552,-1.6142101,-0.03305071,-1.8460568,-2.4284232,2.5069935
453,1747638530.9718597,0.17607735,-1.4850867,-0.081132784,-1.1289221,-3.402801,3.4702997
454,1747638530.987009,0.22976951,-1.3870018,-0.12580003,-0.81800085,-3.7570925,4.1513944
455,1747638530.9881418,0.22976951,-1.3870018,-0.12580003,-0.81800085,-3.7570925,4.1513944
456,1747638531.002149,0.5858574,-1.2361697,-0.251722,-0.69583136,-4.0716786,5.2314487
457,1747638531.0173378,1.0234133,-0.910358,-0.1782726,-1.0622634,-4.0521317,6.1367245
458,1747638531.0184693,1.0234133,-0.910358,-0.1782726,-1.0622634,-4.0521317,6.1367245
459,1747638531.0327904,1.14153,-0.6282379,-0.093572535,-1.148851,-4.055186,6.3761764
460,1747638531.0488267,1.5622863,-0.21800053,0.04600878,-1.2005439,-4.0222,6.6712155
461,1747638531.0498285,1.5622863,-0.21800053,0.04600878,-1.2005439,-4.0222,6.6712155
462,1747638531.0641124,1.9293199,0.15464316,0.12384869,-1.1750411,-3.6263711,6.4262657
463,1747638531.0794342,2.025728,1.2182114,0.29638925,-1.2640721,-3.1896152,6.230184
464,1747638531.0805821,2.025728,1.2182114,0.29638925,-1.2640721,-3.1896152,6.230184
465,1747638531.0954702,2.111861,1.5913429,0.42843962,-1.6815861,-2.5231047,5.999284
466,1747638531.096578,2.111861,1.5913429,0.42843962,-1.6815861,-2.5231047,5.999284
467,1747638531.1108243,2.8408365,2.8794363,0.99024075,-2.509666,-1.9507407,5.1972413
468,1747638531.126388,3.1676238,3.3038208,1.5229852,-2.5831966,-1.3588297,4.212479
469,1747638531.126388,3.1676238,3.3038208,1.5229852,-2.5831966,-1.3588297,4.212479
470,1747638531.1415799,2.9228535,3.9171188,2.4566982,-1.3569208,-0.32222193,1.6639479
471,1747638531.156811,2.3788583,3.7536032,2.1028361,1.007058,0.38643724,-0.5889331
472,1747638531.156811,2.3788583,3.7536032,2.1028361,1.007058,0.38643724,-0.5889331
473,1747638531.1716335,2.3788583,3.7536032,2.1028361,1.7141901,0.6778114,-1.4716074
474,1747638531.1870358,1.8233992,2.9846253,0.87724626,2.183397,1.1744303,-2.637104
475,1747638531.1880772,1.8233992,2.9846253,0.87724626,2.183397,1.1744303,-2.637104
476,1747638531.2025354,1.8024222,2.8455014,0.6507697,2.1179602,1.3143142,-2.9553554
477,1747638531.217446,2.1614065,2.424044,0.3823089,1.6133239,1.6692165,-3.710439
478,1747638531.2185519,2.1614065,2.424044,0.3823089,1.4438138,1.8598008,-4.174683
479,1747638531.23262,2.3063846,1.8124534,0.48335138,1.4157913,2.0277839,-4.8240137
480,1747638531.2477899,2.1316488,1.0842401,0.48969322,1.9410435,2.2263093,-5.8460374
481,1747638531.2488415,2.1316488,1.0842401,0.48969322,1.9410435,2.2263093,-5.8460374
482,1747638531.2630126,1.9730115,0.53780574,0.40426138,2.4363642,2.1554508,-6.163067
483,1747638531.278507,1.8324239,-0.09085896,0.1521735,2.9510794,1.9642557,-6.356095
484,1747638531.2795956,1.8324239,-0.09085896,0.1521735,2.9510794,1.9642557,-6.356095
485,1747638531.2932806,1.7465347,-0.32953143,0.056009363,3.0245337,1.8585792,-6.362814
486,1747638531.3087745,1.6337844,-0.670222,-0.13311753,2.874418,1.7834449,-6.207048
487,1747638531.3097782,1.6337844,-0.670222,-0.13311753,2.874418,1.7834449,-6.207048
488,1747638531.324218,1.3975511,-1.3650187,-0.35788673,2.09994,2.2757878,-5.806943
489,1747638531.3395429,0.9973143,-1.7615966,-0.39987087,1.3840271,2.6539023,-5.1495953
490,1747638531.3405936,0.9973143,-1.7615966,-0.39987087,1.3840271,2.6539023,-5.1495953
491,1747638531.354692,0.6822349,-2.0883842,-0.408408,0.9565868,2.6404636,-4.3084583
492,1747638531.370665,0.45819747,-2.5528014,-0.44746515,0.8481614,1.8610225,-3.370808
493,1747638531.371751,0.45819747,-2.5528014,-0.44746515,0.8481614,1.8610225,-3.370808
494,1747638531.3860064,0.10604277,-2.6718938,-0.5904613,0.8070056,1.1982533,-2.7953134
495,1747638531.3870606,-0.33419633,-2.659942,-0.72516423,0.6749099,0.7749361,-2.1301007
496,1747638531.401608,-0.7019922,-2.6274705,-0.9501774,-0.04535541,0.08460235,0.08063184
497,1747638531.4175997,-0.7656849,-2.5342636,-0.96655035,-0.45286688,-0.029626092,1.1984823
498,1747638531.4187617,-0.5206706,-2.4463928,-0.8830698,-0.45286688,-0.029626092,1.1984823
499,1747638531.4323266,-0.17193076,-2.3639183,-0.8076691,-1.136405,-0.873817,3.5515423
500,1747638531.4475975,1.0849109,-1.6737561,-0.48697963,-1.4547328,-3.0521746,5.47762
501,1747638531.4486332,1.0849109,-1.6737561,-0.48697963,-1.4547328,-3.0521746,5.47762
502,1747638531.462851,1.4056003,-1.3176683,-0.3988952,-1.5282634,-3.6007156,5.957746
503,1747638531.4781888,1.5647255,-1.052165,-0.32248834,-1.7663412,-3.7448754,6.9314365
504,1747638531.4792757,1.5647255,-1.052165,-0.32248834,-1.7663412,-3.7448754,6.9314365
505,1747638531.493184,2.5567648,0.3901447,0.3108108,-1.9034001,-3.371037,7.7579894
506,1747638531.5085032,2.9037974,0.77281946,0.46112445,-2.19004,-2.5157745,8.605234
507,1747638531.5095048,2.9037974,0.77281946,0.46112445,-2.19004,-2.5157745,8.605234
508,1747638531.5175245,3.3233342,1.3160828,0.77815515,-2.19004,-2.5157745,8.605234
509,1747638531.5270994,3.601277,1.8244052,1.2555001,-2.3064828,-1.4626738,7.56855
510,1747638531.5364664,3.4311757,2.3823037,1.9017268,-1.8323891,-1.009425,6.497735
511,1747638531.5469532,2.9521234,2.900657,2.368614,-0.9288696,-0.7357655,5.4507427
512,1747638531.557183,2.4947796,3.4500182,2.5125856,0.24808034,-0.52135813,4.676112
513,1747638531.5702949,2.3688576,3.8211985,2.34907,1.0475267,-0.37597647,4.216144
514,1747638531.5772502,2.5492036,4.063804,2.069877,1.6039321,-0.21104772,3.6559973
515,1747638531.5866985,2.5492036,4.063804,2.069877,1.6039321,-0.21104772,3.6559973
516,1747638531.5973678,2.830836,4.1370096,1.3343462,2.020759,0.68819577,1.1001359
517,1747638531.6214342,1.5510662,3.3150713,0.8611173,2.171562,1.9801377,-2.5949554
518,1747638531.6224341,1.5510662,3.3150713,0.8611173,2.171562,1.9801377,-2.5949554
519,1747638531.636586,1.100796,2.2075677,0.2004995,2.8768616,1.4047196,-4.1526923
520,1747638531.6375866,1.100796,2.2075677,0.2004995,2.8768616,1.4047196,-4.1526923
521,1747638531.651772,1.409503,1.8337045,-0.07454704,2.843876,1.1170106,-4.533861
522,1747638531.667884,2.2277822,1.0864353,-0.37691224,2.1603377,0.6093965,-5.649268
523,1747638531.668936,2.2277822,1.0864353,-0.37691224,2.1603377,0.6093965,-5.649268
524,1747638531.6831307,2.457186,0.81699884,-0.41840854,1.691207,0.44996536,-6.076327
525,1747638531.6992128,2.6133842,0.5336592,-0.41401803,1.3179793,0.43163994,-6.36709
526,1747638531.7007296,2.6600027,0.10875634,-0.34959355,0.85251373,0.48172942,-6.7372637
527,1747638531.7144217,2.5618873,-0.15479562,-0.26343,0.5496862,0.5373165,-6.9174633
528,1747638531.7293348,2.205586,-0.89303994,0.08482202,-0.14568707,0.659486,-6.565615
529,1747638531.7303395,2.205586,-0.89303994,0.08482202,-0.14568707,0.659486,-6.565615
530,1747638531.744646,2.1401858,-1.2640067,0.18071176,-0.31389913,0.9826242,-6.2247624
531,1747638531.7606676,1.7528766,-1.9077942,0.4130424,-0.080860905,1.8158199,-5.78312
532,1747638531.7616682,1.7528766,-1.9077942,0.4130424,-0.080860905,1.8158199,-5.78312
533,1747638531.7767837,0.3764549,-2.465205,0.12872702,1.4849697,1.2611705,-4.512481
534,1747638531.7777839,0.3764549,-2.465205,0.12872702,1.4849697,1.2611705,-4.512481
535,1747638531.7928538,-0.0901577,-2.5225558,-0.16314976,1.8039846,0.7688276,-3.6719556
536,1747638531.8078258,-0.94017684,-2.4144397,-0.8745327,1.6805935,-0.044897273,-0.8577059
537,1747638531.8088307,-0.94017684,-2.4144397,-0.8745327,1.6805935,-0.044897273,-0.8577059
538,1747638531.8234675,-1.0621961,-2.314617,-1.182508,0.9789591,-0.4010212,1.8068862
539,1747638531.8391,-0.48234522,-2.0234716,-1.3338279,-0.2602973,-1.3661599,4.6907725
540,1747638531.8396268,-0.48234522,-2.0234716,-1.3338279,-0.2602973,-1.3661599,4.6907725
541,1747638531.8548124,-0.15702136,-1.9021841,-1.3323643,-0.72141063,-1.7009043,5.50633
542,1747638531.8704772,0.7569344,-1.361116,-1.0822278,-2.1924834,-2.4992816,7.457376
543,1747638531.8715844,0.7569344,-1.361116,-1.0822278,-2.1924834,-2.4992816,7.457376
544,1747638531.8852746,1.2689459,-1.175404,-0.88867986,-2.5308166,-2.726593,7.7647085
545,1747638531.886275,1.2689459,-1.175404,-0.88867986,-2.5308166,-2.726593,7.7647085
546,1747638531.9004085,1.8129107,-0.6699781,-0.47112507,-3.06233,-2.7827911,7.7237816
547,1747638531.9160457,1.3851112,0.4340802,0.20440216,-3.2411556,-2.3484023,7.9644556
548,1747638531.9171033,1.3851112,0.4340802,0.20440216,-3.2411556,-2.3484023,7.9644556
549,1747638531.9312801,1.4646586,0.8040713,0.592687,-3.2411556,-2.3484023,7.9644556
550,1747638531.9473114,2.2519608,1.7329061,1.1735137,-2.1918726,-3.6184301,8.5331545
551,1747638531.9483218,2.2519608,1.7329061,1.1735137,-2.1918726,-3.6184301,8.5331545
552,1747638531.9624014,3.025573,2.585608,0.9333776,-1.1600753,-4.2439375,7.778758
553,1747638531.9777722,3.7579632,3.1615565,0.7686424,-1.1270132,-3.2079408,6.688319
554,1747638531.9788387,3.7579632,3.1615565,0.7686424,-1.1270132,-3.2079408,6.688319
555,1747638531.993415,4.1855493,3.6537802,1.3101679,-1.5045931,0.40354097,2.7458348
556,1747638532.008286,2.530178,3.793148,2.349314,0.14965758,2.0729866,-0.9529981
557,1747638532.0092893,2.530178,3.793148,2.349314,0.14965758,2.0729866,-0.9529981
558,1747638532.0235531,2.1050313,3.3533664,2.2109523,1.3864706,2.294724,-2.0708485
559,1747638532.0392091,1.731168,2.4484355,1.6562246,3.58407,2.2721226,-3.7910707
560,1747638532.0403044,1.731168,2.4484355,1.6562246,3.58407,2.2721226,-3.7910707
561,1747638532.0541878,1.6615908,2.2422345,1.2428164,4.484459,1.7938293,-4.4562836
562,1747638532.06979,2.5804553,1.9635292,-0.33715382,4.1112313,1.4444247,-5.1172204
563,1747638532.070791,2.5804553,1.9635292,-0.33715382,4.1112313,1.4444247,-5.1172204
564,1747638532.085908,3.3313835,1.7084838,-0.5755824,3.2831514,1.6221813,-5.5515327
565,1747638532.086964,3.3313835,1.7084838,-0.5755824,3.2831514,1.6221813,-5.5515327
566,1747638532.1016164,4.003465,0.9685626,-0.625128,1.9485264,1.7797798,-6.997484
567,1747638532.1174772,3.5893252,0.109000266,-0.3556915,1.3298144,1.6343982,-7.991333
568,1747638532.1187096,3.5893252,0.109000266,-0.3556915,1.3298144,1.6343982,-7.991333
569,1747638532.1328847,2.9416351,-0.54308045,-0.075766616,0.902985,1.071197,-7.994998
570,1747638532.1476514,2.4091344,-1.5129236,0.020641448,0.36154523,0.65643173,-7.124541
571,1747638532.1486537,2.4091344,-1.5129236,0.020641448,0.36154523,0.65643173,-7.124541
572,1747638532.1637645,2.0906403,-1.7362294,0.035520367,-0.016721943,0.97346145,-6.6297545
573,1747638532.1785138,1.5373763,-2.2848284,0.32325056,-0.2839676,1.4010545,-6.135579
574,1747638532.1795676,1.5373763,-2.2848284,0.32325056,-0.26533678,1.6014124,-5.7666273
575,1747638532.1937504,1.0641779,-2.5706074,0.44648945,0.012598725,1.5378844,-5.2314487
576,1747638532.208866,-0.38618106,-2.7948887,0.3957243,1.2494117,0.27526304,-2.9077094
577,1747638532.2098663,-0.38618106,-2.7948887,0.3957243,1.2494117,0.27526304,-2.9077094
578,1747638532.2242353,-0.74690336,-2.818335,0.28321773,1.7186188,-0.6038225,-1.5656779
579,1747638532.2401133,-1.1429935,-2.7131462,-0.3488618,1.8886634,-1.761378,0.8417475
580,1747638532.2412086,-1.1429935,-2.7131462,-0.3488618,1.8886634,-1.761378,0.8417475
581,1747638532.2554998,-0.9079493,-2.679455,-0.6602519,1.0686773,-1.813911,3.2058027
582,1747638532.2565758,-0.9079493,-2.679455,-0.6602519,1.0686773,-1.813911,3.2058027
583,1747638532.2708533,-0.1504356,-2.5732903,-0.41865245,-0.34383065,-1.9299719,5.55703
584,1747638532.2866647,0.44819686,-2.3983107,-0.21415883,-0.8273163,-2.2592187,6.333417
585,1747638532.2877247,0.44819686,-2.3983107,-0.21415883,-0.8273163,-2.2592187,6.333417
586,1747638532.302086,0.78986317,-2.1884508,0.0257637,-0.5911474,-2.7125437,6.7640643
587,1747638532.3174837,0.9958508,-2.0720415,0.066985615,0.0076355906,-3.2751338,6.957703
588,1747638532.3186667,1.2420846,-1.8611758,-0.023781875,0.0076355906,-3.2751338,6.957703
589,1747638532.3331554,1.4805132,-1.5605179,-0.31663433,1.3808966,-3.9354599,7.111026
590,1747638532.348519,2.057437,-0.5662525,-1.2735499,1.4968048,-3.3209474,7.442105
591,1747638532.3495219,2.057437,-0.5662525,-1.2735499,1.4968048,-3.3209474,7.442105
592,1747638532.3637314,2.307848,-0.012775135,-1.6559808,0.6904865,-2.831048,7.7250037
593,1747638532.3791554,2.8733077,1.3028809,-2.06012,-1.8497982,-1.6526473,8.478178
594,1747638532.3797069,2.8733077,1.3028809,-2.06012,-1.8497982,-1.6526473,8.478178
595,1747638532.3949032,3.664482,2.0945735,-1.549816,-4.2686005,-1.1493092,8.6730385
596,1747638532.4107661,4.5391674,2.812085,-0.29346225,-5.451812,-1.1126583,7.0114574
597,1747638532.4118056,4.5391674,2.812085,-0.29346225,-5.451812,-1.1126583,7.0114574
598,1747638532.4265573,4.672163,3.6972277,0.96508676,-4.9708457,-0.16767757,4.5667706
599,1747638532.4276175,4.672163,3.6972277,0.96508676,-4.9708457,-0.16767757,4.5667706
600,1747638532.4422255,4.1814027,4.0977087,2.0908842,-2.834255,0.71507305,1.6969336
601,1747638532.4576325,3.6376512,4.085269,2.4069088,0.050013117,0.959412,-0.6280273
602,1747638532.458671,3.6376512,4.085269,2.4069088,0.050013117,0.959412,-0.6280273
603,1747638532.4730308,2.6439044,3.286015,1.8814818,1.4207543,0.9795699,-1.7990215
604,1747638532.4878669,1.59863,2.6300313,0.61000514,2.4743896,1.4767996,-3.334157
605,1747638532.4888675,1.59863,2.6300313,0.61000514,2.4743896,1.4767996,-3.334157
606,1747638532.5032668,1.5830191,2.5309403,0.27419284,2.1285737,1.771228,-3.418454
607,1747638532.5186963,2.103324,2.3147082,-0.01695221,1.1851964,2.2482996,-3.6988328
608,1747638532.519669,2.103324,2.3147082,-0.01695221,1.1851964,2.2482996,-3.6988328
609,1747638532.5345926,2.5162444,1.9923114,0.07015654,0.35467318,2.9703975,-4.4801064
610,1747638532.5499675,2.610701,1.4685918,0.34495914,0.21570544,3.5500915,-5.363392
611,1747638532.5510693,2.610701,1.4685918,0.34495914,0.21570544,3.5500915,-5.363392
612,1747638532.5650928,2.3229709,0.25544173,0.6012241,1.90424,3.4474692,-6.9290695
613,1747638532.566161,2.3229709,0.25544173,0.6012241,1.90424,3.4474692,-6.9290695
614,1747638532.5808585,2.0964944,-0.30611542,0.22537899,3.152888,2.7162087,-7.393924
615,1747638532.5961041,1.9964274,-0.64583033,-0.14287418,3.551695,2.3875728,-7.489827
616,1747638532.5971093,1.9964274,-0.64583033,-0.14287418,3.551695,2.3875728,-7.489827
617,1747638532.6120167,1.8905067,-1.1009789,-0.62683535,3.266964,2.1572835,-7.2974105
618,1747638532.6266475,1.8077885,-1.5143871,-0.89258254,1.6450881,2.383297,-6.6413603
619,1747638532.6276789,1.8077885,-1.5143871,-0.89258254,1.6450881,2.383297,-6.6413603
620,1747638532.6427338,1.7589746,-1.7530596,-0.85477555,0.8014316,2.6899424,-6.3487644
621,1747638532.658013,1.449048,-2.3131533,-0.6585445,-0.3276432,3.2782645,-5.9651527
622,1747638532.6590674,1.449048,-2.3131533,-0.6585445,-0.3276432,3.2782645,-5.9651527
623,1747638532.6740582,0.7664472,-2.7494895,-0.26538134,-0.6223006,3.2361162,-5.6609507
624,1747638532.6901107,-0.39447424,-2.9957542,0.05625328,0.07177455,1.6850985,-4.213777
625,1747638532.6911132,-0.39447424,-2.9957542,0.05625328,0.07177455,1.6850985,-4.213777
626,1747638532.705573,-1.2154673,-2.9830704,-0.14872819,0.37276953,1.0168316,-3.265742
627,1747638532.7066276,-1.2154673,-2.9830704,-0.14872819,0.6064186,0.31374642,-1.7025076
628,1747638532.7205486,-1.5476208,-2.7985473,-0.3073655,0.58206105,-0.14813046,0.78799295
629,1747638532.73622,-1.3526094,-2.644087,-0.34154433,0.33161372,-0.44683477,3.6132379
630,1747638532.7372217,-1.3526094,-2.644087,-0.34154433,0.33161372,-0.44683477,3.6132379
631,1747638532.7513173,-0.32980585,-2.5486548,-0.23172083,0.110410646,-0.98010445,6.533164
632,1747638532.7665062,1.9312713,-2.1347587,-0.26660094,0.4556157,-2.5267696,8.496504
633,1747638532.7675736,1.9312713,-2.1347587,-0.26660094,0.4556157,-2.5267696,8.496504
634,1747638532.7826202,2.67415,-1.7076607,-0.51286525,0.5733565,-2.8139443,8.142212
635,1747638532.798347,2.86721,-0.94404894,-0.7815395,0.13095038,-2.2048533,7.3407044
636,1747638532.7996688,2.86721,-0.94404894,-0.7815395,0.13095038,-2.2048533,7.3407044
637,1747638532.8135295,2.5008776,-0.38444316,-0.69540644,-0.36933354,-1.4321314,7.4585977
638,1747638532.8288481,2.3739798,0.10265843,0.11506769,-0.76875126,-0.46882528,8.233229
639,1747638532.82985,2.3739798,0.10265843,0.11506769,-0.76875126,-0.46882528,8.233229
640,1747638532.844155,2.8498614,0.55195296,0.09433477,-0.5506788,-0.5714476,9.5740385
641,1747638532.8597407,4.1394186,1.2701961,0.17900434,-0.8603784,-0.51524967,9.244181
642,1747638532.8607411,4.1394186,1.2701961,0.17900434,-0.8603784,-0.51524967,9.244181
643,1747638532.8787239,4.705122,1.6999466,0.34056866,-0.6559736,-0.8799255,7.7866993
644,1747638532.8797238,4.502549,2.2351608,0.34617874,-0.24533153,-1.157861,5.853291
645,1747638532.893734,3.9973674,2.5499659,0.32544583,0.04253024,-1.0686773,4.5588293
646,1747638532.9094055,2.736623,3.2730875,0.35938072,0.66437274,-0.34848836,2.1904984
647,1747638532.9104111,2.736623,3.2730875,0.35938072,0.66437274,-0.34848836,2.1904984
648,1747638532.9247231,2.5233483,3.2354937,0.20586567,0.78829837,-0.23792501,1.2412416
649,1747638532.939905,2.1621385,3.006334,-0.0594242,0.63444126,0.17752749,-0.58587885
650,1747638532.9409053,2.1621385,3.006334,-0.0594242,0.63444126,0.17752749,-0.58587885
651,1747638532.9552407,1.5403033,2.5487463,-0.17119902,0.19890714,0.24899662,-2.7623277
652,1747638532.9562764,1.5403033,2.5487463,-0.17119902,0.19890714,0.24899662,-2.7623277
653,1747638532.9708824,1.5403033,2.5487463,-0.17119902,0.017561859,-0.21959959,-3.1692283
654,1747638532.9860694,1.5844827,2.6966512,-0.08088887,-0.074676074,-0.49325916,-3.1796126
655,1747638532.9871457,1.5844827,2.6966512,-0.08088887,-0.074676074,-0.49325916,-3.1796126
656,1747638533.0014992,2.9050171,2.1660717,-0.13970327,-0.36994436,-0.58488625,-4.579064
657,1747638533.017507,3.2046993,1.5598775,-0.12043386,-0.49150297,-0.22326468,-5.6456795
658,1747638533.0186062,3.2046993,1.5598775,-0.12043386,-0.49150297,-0.22326468,-5.6456795
659,1747638533.032665,2.8803816,0.75647706,0.07677277,-0.49333552,0.16592139,-7.2528186
660,1747638533.048137,2.4274282,-0.026190553,0.15534443,-0.2528144,0.080326416,-7.8532815
661,1747638533.04914,2.4274282,-0.026190553,0.15534443,-0.2528144,0.080326416,-7.8532815
662,1747638533.06336,2.1426249,-0.6287257,0.14851476,-0.08651124,0.02535016,-7.8276258
663,1747638533.0787287,1.7745852,-1.0004243,0.042837866,-0.033520244,0.07116371,-7.666973
664,1747638533.07973,1.7745852,-1.0004243,0.042837866,-0.033520244,0.07116371,-7.666973
665,1747638533.0939927,1.6447605,-1.0814351,0.011342125,-0.12384928,0.70468867,-6.981602
666,1747638533.1090705,1.3172414,-1.4257845,0.08921252,-0.13820419,2.0711539,-5.7415824
667,1747638533.1100736,1.3172414,-1.4257845,0.08921252,-0.13820419,2.0711539,-5.7415824
668,1747638533.12441,1.1544881,-1.6786345,0.1387581,0.16836478,2.37108,-5.389658
669,1747638533.1402383,0.670283,-2.1530523,-0.058936365,0.94910395,2.1927125,-4.9596214
670,1747638533.1413255,0.670283,-2.1530523,-0.058936365,0.94910395,2.1927125,-4.9596214
671,1747638533.1551824,-0.111896776,-2.4842303,-0.41962814,1.3478345,1.9318808,-4.391534
672,1747638533.1562662,-0.111896776,-2.4842303,-0.41962814,1.3478345,1.9318808,-4.391534
673,1747638533.1705897,-1.2798917,-2.3539178,-0.82035273,1.1397647,1.391281,-2.4697318
674,1747638533.186581,-1.6281438,-2.2377524,-1.0453658,-0.4640912,0.9985062,2.0579443
675,1747638533.187638,-1.6281438,-2.2377524,-1.0453658,-0.4640912,0.9985062,2.0579443
676,1747638533.2017667,-1.270135,-2.2901945,-0.91163856,-0.95689225,0.9917869,3.2778828
677,1747638533.2171967,-0.7883692,-2.295591,-0.6873572,-1.4566417,0.9453625,4.54478
678,1747638533.2183013,-0.7883692,-2.295591,-0.6873572,-1.4566417,0.9453625,4.54478
679,1747638533.232208,0.022592781,-2.2072322,-0.2756563,-1.5980527,0.65704256,5.8923855
680,1747638533.2482178,0.77181333,-1.9558762,0.08238286,-0.45347774,0.20562646,6.3670135
681,1747638533.2492473,0.77181333,-1.9558762,0.08238286,-0.45347774,0.20562646,6.3670135
682,1747638533.262866,0.8887104,-1.8248016,0.10896978,0.06994201,-0.31428093,6.412827
683,1747638533.2782779,1.1205531,-1.383343,-0.26147866,1.071197,-1.7106777,6.629067
684,1747638533.2793581,1.1205531,-1.383343,-0.26147866,1.071197,-1.7106777,6.629067
685,1747638533.293693,1.4717323,-1.1346394,-0.50457215,1.0045383,-1.9171442,6.846529
686,1747638533.308925,2.196561,-0.06305246,-0.6077794,0.57587624,-1.8010831,6.9796934
687,1747638533.308925,2.196561,-0.06305246,-0.6077794,0.04314109,-1.7015151,7.110415
688,1747638533.3237352,2.370809,0.43895853,-0.63829947,-0.35627666,-1.5310887,7.25091
689,1747638533.338955,2.9892292,1.9366679,-0.31761,-2.1370492,0.163478,8.538041
690,1747638533.338955,2.9892292,1.9366679,-0.31761,-2.1370492,0.163478,8.538041
691,1747638533.3542264,3.9487975,2.2951949,0.33325115,-2.4311721,0.3290176,8.739621
692,1747638533.3700132,6.2950625,2.4801753,1.0622267,-1.4067812,-0.31244838,6.3719006
693,1747638533.3711429,6.2950625,2.4801753,1.0622267,-1.4067812,-0.31244838,6.3719006
694,1747638533.3858452,5.2139626,3.462214,0.46624672,0.14721419,-0.2599155,-0.06352811
695,1747638533.3869379,5.2139626,3.462214,0.46624672,0.14721419,-0.2599155,-0.06352811
696,1747638533.4019651,3.9973674,3.6206076,0.4267322,-0.10140064,0.4750101,-1.5216969
697,1747638533.4174085,3.0926805,3.3614159,0.5655818,-0.47279578,1.0583693,-2.1997373
698,1747638533.4180303,3.0926805,3.3614159,0.5655818,-0.47279578,1.0583693,-2.1997373
699,1747638533.4329941,3.1210053,2.5392334,0.53850704,-0.4621823,1.1139563,-3.0128515
700,1747638533.4482877,2.7549474,2.089451,0.7701059,-0.3101577,1.2226871,-3.806342
701,1747638533.4492915,2.7549474,2.089451,0.7701059,-0.3101577,1.2226871,-3.806342
702,1747638533.4631016,2.7056456,1.8600475,0.80693734,0.3016822,0.8427402,-4.8405066
703,1747638533.478959,2.5411544,0.8233407,0.59171134,1.2506334,0.35833827,-6.295621
704,1747638533.4800196,2.5411544,0.8233407,0.59171134,1.2506334,0.35833827,-6.295621
705,1747638533.4943323,2.3219953,0.36136255,0.44600162,1.553461,0.3302393,-6.907079
706,1747638533.5094695,1.8390402,-0.379077,0.24025792,1.7616072,0.4090386,-7.4782214
707,1747638533.5104766,1.8390402,-0.379077,0.24025792,1.7616072,0.4090386,-7.4782214
708,1747638533.524921,1.6135393,-1.0446037,0.16607676,1.4357201,0.52448875,-7.0683427
709,1747638533.5399563,1.7067459,-1.289374,0.201963,1.2226108,0.46767992,-6.810565
710,1747638533.5409358,1.7067459,-1.289374,0.201963,1.2226108,0.46767992,-6.810565
711,1747638533.555314,1.7809577,-1.4985327,0.18485835,1.0500464,0.46951246,-6.6963367
712,1747638533.5563676,1.8002269,-1.7115632,0.15485659,1.0500464,0.46951246,-6.6963367
713,1747638533.5710828,1.6471999,-2.2235749,0.12775135,0.53227705,1.1701543,-6.8881426
714,1747638533.5862486,1.315778,-2.5081341,0.22318375,0.5490753,1.4902382,-7.058569
715,1747638533.5873203,1.315778,-2.5081341,0.22318375,0.5490753,1.4902382,-7.058569
716,1747638533.6015093,0.3764549,-2.8949556,0.26150915,1.3291273,1.4902382,-6.8453836
717,1747638533.616694,-1.2037593,-2.682382,-0.19412717,3.142351,0.46157146,-4.294409
718,1747638533.6177838,-1.2037593,-2.682382,-0.19412717,3.142351,0.46157146,-4.294409
719,1747638533.631975,-1.4656038,-2.5930781,-0.4747838,3.4140253,0.08765658,-3.034231
720,1747638533.636291,-1.4656038,-2.5930781,-0.4747838,3.4140253,0.08765658,-3.034231
721,1747638533.646517,-1.624729,-2.4624913,-0.95676315,3.2407737,-0.30206397,-1.2382637
722,1747638533.6570528,-1.3601708,-2.2670226,-1.4426757,0.89672375,-0.5787778,2.1843898
723,1747638533.6667013,-0.7827591,-2.0937502,-1.252817,-1.1376266,-0.4614951,3.9895198
724,1747638533.6772478,-0.7827591,-2.0937502,-1.252817,-1.1376266,-0.4614951,3.9895198
725,1747638533.6873157,-0.30248716,-2.0120075,-0.79742455,-2.4355245,-0.38330665,5.285203
726,1747638533.696898,0.1887915,-1.8850794,-0.2222081,-2.9233623,-0.9000834,6.904559
727,1747638533.7076435,1.0990885,-1.6036912,0.2768759,-2.19004,-1.0784508,7.6907196
728,1747638533.717122,1.865871,-1.2791295,0.2915109,-1.1650385,-0.89641833,7.8978734
729,1747638533.732055,2.1538453,-1.027499,0.16485718,-0.41361994,-0.6575771,7.807468
730,1747638533.747796,2.2129035,-0.64680606,-0.16705243,0.42072105,-0.11514471,7.6778917
731,1747638533.7488399,2.2129035,-0.64680606,-0.16705243,0.42072105,-0.11514471,7.6778917
732,1747638533.7628932,2.2126596,-0.2587651,-0.35203275,0.52036554,0.3949891,7.927805
733,1747638533.7776947,2.2341242,0.5348788,-0.6749174,0.52036554,0.3949891,7.927805
734,1747638533.7787971,2.2341242,0.5348788,-0.6749174,0.16523418,0.54831177,8.129384
735,1747638533.7924523,2.2583025,0.7657459,-0.7334879,-0.26281703,0.823193,8.263771
736,1747638533.8079488,2.6736622,1.5640242,0.022592781,-1.61676,1.2538403,8.301643
737,1747638533.808995,2.6736622,1.5640242,0.022592781,-1.61676,1.2538403,8.301643
738,1747638533.8235855,3.636188,2.0857923,0.5096944,-1.4753488,0.5849626,7.613142
739,1747638533.8384533,4.3014703,2.8506236,0.61049294,-1.0242381,0.14637427,6.513006
740,1747638533.8394828,4.3014703,2.8506236,0.61049294,-0.29519194,0.079715565,4.539893
741,1747638533.8537335,4.07475,3.1974123,0.5131092,0.18577392,0.31374642,2.9846761
742,1747638533.869617,3.1351523,3.7045453,0.12238518,0.3328354,0.5641938,-0.63352495
743,1747638533.8706186,2.565546,3.7074723,-0.16973552,0.3328354,0.5641938,-0.63352495
744,1747638533.8847737,2.1592114,3.4736784,-0.30517024,-0.2602973,0.6973585,-1.4801593
745,1747638533.900828,1.6869887,2.7232382,0.13192843,-1.2884296,1.2178004,-3.0549998
746,1747638533.9018276,1.6869887,2.7232382,0.13192843,-1.2884296,1.2178004,-3.0549998
747,1747638533.9159634,1.5957029,2.6986027,0.40231007,-1.2578872,1.2257414,-3.4202864
748,1747638533.917024,1.5957029,2.6986027,0.40231007,-1.2578872,1.2257414,-3.4202864
749,1747638533.9319942,2.4877062,2.6671069,0.82428586,-0.7170583,1.0376004,-3.498475
750,1747638533.9480157,4.014472,1.369531,0.96508676,0.73225313,0.8745042,-5.7373066
751,1747638533.949017,4.014472,1.369531,0.96508676,0.73225313,0.8745042,-5.7373066
752,1747638533.9635737,3.9646823,0.68741816,0.82379806,1.4761888,0.7957049,-7.064067
753,1747638533.9789207,3.2706175,-0.19775544,0.38913855,2.224553,0.53914905,-8.382962
754,1747638533.9805274,3.2706175,-0.19775544,0.38913855,2.224553,0.53914905,-8.382962
755,1747638533.9937978,2.881601,-0.5728383,0.13997768,2.1709511,0.39071319,-8.508797
756,1747638534.0088916,2.4008107,-1.2222664,-0.03305071,0.909857,0.5641938,-7.770206
757,1747638534.0098917,2.4008107,-1.2222664,-0.03305071,0.909857,0.5641938,-7.770206
758,1747638534.024893,2.2878163,-1.3584329,0.015763115,0.48615807,0.7883747,-7.4489007
759,1747638534.0395296,2.0118248,-1.6383578,0.33642206,-0.1518719,1.4285426,-6.450776
760,1747638534.0405316,2.0118248,-1.6383578,0.33642206,-0.1518719,1.4285426,-6.450776
761,1747638534.0546975,1.5368885,-2.1518328,0.6934551,0.44378054,1.5641508,-5.7000446
762,1747638534.0704668,1.1942465,-2.3973348,0.66930735,1.0731059,1.0889117,-5.3725543
763,1747638534.0718625,1.1942465,-2.3973348,0.66930735,1.0731059,1.0889117,-5.3725543
764,1747638534.0853987,0.90285754,-2.6308851,0.5260368,2.184619,-0.13285927,-4.070839
765,1747638534.0863981,0.11945819,-2.9230363,0.1211656,2.184619,-0.13285927,-4.070839
766,1747638534.10054,-0.49405318,-2.8925161,-0.35813063,2.1616356,-0.5726693,-3.0653841
767,1747638534.1156666,-0.9955763,-2.8376045,-0.76373357,1.6244719,-0.79990447,-1.6139348
768,1747638534.1169472,-0.9955763,-2.8376045,-0.76373357,1.6244719,-0.79990447,-1.6139348
769,1747638534.1315088,-1.3328521,-2.7575696,-1.0704893,0.14469445,-0.95567054,0.9138275
770,1747638534.146844,-0.53725696,-2.7250981,-0.5975349,-1.9844136,-1.4803883,4.7781234
771,1747638534.1479244,-0.53725696,-2.7250981,-0.5975349,-1.9844136,-1.4803883,4.7781234
772,1747638534.1616318,0.011372615,-2.5835655,-0.3352025,-2.0996346,-2.13766,5.7042446
773,1747638534.1768365,0.3825528,-2.445417,-0.23659918,-1.9363859,-2.5842657,6.1629906
774,1747638534.177837,0.8037664,-2.1884508,-0.1811996,-1.4547328,-3.0656133,6.6315107
775,1747638534.1921356,1.2350111,-1.757694,-0.19754201,-0.959412,-3.5151968,6.770784
776,1747638534.2076347,1.379989,-1.3557498,-0.32273224,-0.75065494,-3.6123216,6.8642435
777,1747638534.208637,1.379989,-1.3557498,-0.32273224,-0.75065494,-3.6123216,6.8642435
778,1747638534.223614,1.5849705,-0.7075718,-0.5277442,-1.0148463,-3.1340282,7.2564073
779,1747638534.2387865,2.2524486,0.30571905,-0.5275003,-2.241733,-2.2433367,8.106783
780,1747638534.2397654,2.2524486,0.30571905,-0.5275003,-2.241733,-2.2433367,8.106783
781,1747638534.2548487,2.62558,0.8467567,-0.30224323,-2.8959506,-1.7833686,8.24911
782,1747638534.2699008,3.358946,1.7255886,0.50530386,-3.203741,-1.2708677,7.7573786
783,1747638534.2710524,3.358946,1.7255886,0.50530386,-3.203741,-1.2708677,7.7573786
784,1747638534.2859595,3.8311687,2.7601,1.2415968,-1.589959,-0.7931852,5.489837
785,1747638534.28703,3.8311687,2.7601,1.2415968,-1.589959,-0.7931852,5.489837
786,1747638534.301767,3.8311687,2.7601,1.2415968,-1.589959,-0.7931852,5.489837
787,1747638534.3169856,3.598838,3.6391451,1.1640009,0.35276428,-0.21104772,3.1098998
788,1747638534.318197,3.598838,3.6391451,1.1640009,0.35276428,-0.21104772,3.1098998
789,1747638534.3327277,3.2950094,3.6098752,0.6097612,0.9665131,0.27831727,1.383569
790,1747638534.3480382,3.2950094,3.6098752,0.6097612,1.10487,0.639328,0.18325418
791,1747638534.3490398,3.2950094,3.6098752,0.6097612,1.0238564,1.0479848,-0.9566632
792,1747638534.36368,2.7507703,3.156434,0.34178823,0.9004652,1.3167577,-1.7202222
793,1747638534.3789427,1.8949276,2.44185,0.35227665,0.5764871,1.6734924,-3.4557157
794,1747638534.379492,1.8949276,2.44185,0.35227665,0.5764871,1.6734924,-3.4557157
795,1747638534.3948298,1.8312043,2.215373,0.4118228,0.5035672,1.7608436,-3.710439
796,1747638534.4097912,2.0364604,1.687507,0.49310803,0.5596888,2.0900903,-4.340833
797,1747638534.4108627,2.0364604,1.687507,0.49310803,0.5596888,2.0900903,-4.340833
798,1747638534.4258153,2.2185135,1.0625011,0.59439445,0.97277427,2.4370515,-5.4153137
799,1747638534.4268196,2.2185135,1.0625011,0.59439445,0.97277427,2.4370515,-5.4153137
800,1747638534.4410608,2.2185135,1.0625011,0.59439445,1.3353884,2.454766,-5.94866
801,1747638534.4570796,2.1314049,0.41773778,0.630982,2.197752,2.1756089,-6.685952
802,1747638534.45808,1.9974033,0.0802181,0.5570447,2.197752,2.1756089,-6.685952
803,1747638534.4728968,1.8878236,-0.17040628,0.4279518,2.658178,2.0002956,-6.923572
804,1747638534.4877377,1.6996723,-0.62506694,0.07238227,3.0208688,1.9398218,-7.007869
805,1747638534.4887383,1.6615908,-0.8105656,-0.09113336,3.0208688,1.9398218,-7.007869
806,1747638534.5029714,1.6750368,-0.9357558,-0.1929076,2.8843443,1.8665202,-6.807511
807,1747638534.5186176,1.8685541,-1.5839338,-0.33032414,2.0201483,2.0839818,-6.6407495
808,1747638534.519619,1.8685541,-1.5839338,-0.33032414,2.0201483,2.0839818,-6.6407495
809,1747638534.5342255,1.8251065,-1.9600229,-0.36935082,1.6407357,2.1969886,-6.7421503
810,1747638534.5500672,1.2342794,-2.755862,-0.5367691,0.9584193,2.5299003,-6.971829
811,1747638534.5510952,1.2342794,-2.755862,-0.5367691,0.9584193,2.5299003,-6.971829
812,1747638534.56582,-0.86550784,-2.939379,-0.4723446,0.4711923,1.4884057,-5.305972
813,1747638534.566934,-0.86550784,-2.939379,-0.4723446,0.4711923,1.4884057,-5.305972
814,1747638534.5816543,-1.4736531,-2.8439465,-0.5521359,0.31664795,0.823193,-3.4441094
815,1747638534.5970883,-1.6698841,-2.7607405,-0.60582805,0.11163234,0.33756948,-1.7990215
816,1747638534.5980878,-1.6698841,-2.7607405,-0.60582805,-0.17684028,-0.09926268,-0.09468132
817,1747638534.6119797,-1.0395119,-2.708024,-0.6334211,-0.7288935,-0.5042544,2.397652
818,1747638534.6271548,-0.40401748,-2.5005727,-0.44795296,-1.2061943,-0.8011262,4.241189
819,1747638534.6282473,-0.40401748,-2.5005727,-0.44795296,-1.2061943,-0.8011262,4.241189
820,1747638534.6418025,0.55436164,-2.077164,-0.18168743,-1.7395403,-1.6208832,6.3444123
821,1747638534.656945,1.4653904,-1.7708656,0.06015595,-1.825517,-2.4498029,7.3804092
822,1747638534.6579492,1.4653904,-1.7708656,0.06015595,-1.825517,-2.4498029,7.3804092
823,1747638534.672242,1.9722797,-1.3408709,0.15851535,-1.630504,-2.6685627,7.762265
824,1747638534.68761,2.3095555,-0.61726165,0.30276155,-1.3949461,-2.4742367,8.734734
825,1747638534.68861,2.3095555,-0.61726165,0.30276155,-1.3949461,-2.4742367,8.734734
826,1747638534.7032003,2.664637,-0.42179292,0.37865016,-1.343864,-2.1736999,9.385286
827,1747638534.7185307,3.3970275,0.08655993,0.5570447,-1.3531793,-1.6642534,9.796387
828,1747638534.7196088,3.3970275,0.08655993,0.5570447,-1.4410651,-1.3172921,9.983306
829,1747638534.7339234,4.3644314,0.26251534,0.7025105,-1.4148749,-1.4895511,9.658335
830,1747638534.7495675,4.831532,1.3038566,0.5394827,-1.2248251,-1.7662648,7.566107
831,1747638534.75063,4.831532,1.3038566,0.5394827,-1.2248251,-1.7662648,7.566107
832,1747638534.7647421,4.142102,2.354253,0.63586026,-1.3114891,-0.9709417,5.797704
833,1747638534.780589,3.3926368,2.8618743,1.1139675,-0.79990447,-0.2171562,4.210036
834,1747638534.781594,3.3926368,2.8618743,1.1139675,-0.79990447,-0.2171562,4.210036
835,1747638534.7957706,2.8583984,2.9924307,0.724463,-0.014813046,-0.09743014,1.5112361
836,1747638534.7967734,2.8583984,2.9924307,0.724463,-0.014813046,-0.09743014,1.5112361
837,1747638534.8110623,2.662442,3.020481,0.56728923,-0.028557109,0.013744064,0.539989
838,1747638534.826906,2.3485823,3.0644166,0.3561793,-0.17370969,0.11942064,-0.69155544
839,1747638534.8279734,2.1169832,2.9680085,0.21196358,-0.3768164,0.24166645,-1.5149776
840,1747638534.8428495,1.8534312,2.7373855,0.21123183,-0.61481774,0.43286163,-2.4587367
841,1747638534.8581471,1.580824,2.552161,0.35739893,-0.56999683,0.64238226,-3.3445415
842,1747638534.8592322,1.6991845,2.409409,0.4220978,-0.56999683,0.64238226,-3.3445415
843,1747638534.873392,2.0035012,2.2143974,0.44356245,-0.025426516,0.65276664,-3.8851414
844,1747638534.8885293,2.7363791,1.4832573,0.2956575,0.6387935,0.4481328,-5.4354715
845,1747638534.8895297,2.7363791,1.4832573,0.2956575,0.6387935,0.4481328,-5.4354715
846,1747638534.903942,2.890382,1.1657388,0.190255,0.71041536,0.53609484,-5.9498816
847,1747638534.9196014,3.1505194,0.46069762,0.30690816,0.96216077,0.74744797,-7.0561256
848,1747638534.9206033,3.1505194,0.46069762,0.30690816,0.96216077,0.74744797,-7.0561256
849,1747638534.9350648,2.650734,-0.6360737,0.3530084,1.1821421,0.67658967,-7.4611173
850,1747638534.9503226,2.3722727,-0.9799352,0.25272816,2.02954,0.074217945,-8.250943
851,1747638534.9514282,2.3722727,-0.9799352,0.25272816,2.02954,0.074217945,-8.250943
852,1747638534.965828,1.8922141,-1.4706956,-0.04552095,2.0388556,-0.2855711,-8.235672
853,1747638534.9668956,1.8922141,-1.4706956,-0.04552095,2.0388556,-0.2855711,-8.235672
854,1747638534.9814718,1.0888135,-2.1608577,-0.46966153,0.39766157,0.06872032,-7.393924
855,1747638534.9970398,0.17952266,-2.4256597,-0.08040103,-0.71201885,1.415104,-6.195442
856,1747638534.998041,0.17952266,-2.4256597,-0.08040103,-0.71201885,1.415104,-6.195442
857,1747638535.0126631,-0.4206038,-2.5659728,0.13924594,-0.5587725,1.6832659,-5.1318808
858,1747638535.0283747,-1.2115647,-2.671406,0.102384016,0.64001524,0.6326087,-2.5937338
859,1747638535.0293787,-1.2115647,-2.671406,0.102384016,0.64001524,0.6326087,-2.5937338
860,1747638535.0436265,-1.6083865,-2.665552,-0.56509393,1.3335559,-0.75286925,0.124001995
861,1747638535.0593715,-1.2803795,-2.5982003,-1.2298584,0.8668686,-1.2904148,2.9975038
862,1747638535.060926,-1.2803795,-2.5982003,-1.2298584,0.8668686,-1.2904148,2.9975038
863,1747638535.0743763,-0.91505337,-2.4554176,-1.3557802,-0.9457443,-1.2733111,5.3212433
864,1747638535.0896456,0.00085370836,-2.0207884,-1.0424389,-2.1277337,-1.1511416,6.257061
865,1747638535.0907018,0.00085370836,-2.0207884,-1.0424389,-2.1277337,-1.1511416,6.257061
866,1747638535.1056244,0.38596764,-1.8577608,-0.7359271,-2.795008,-0.95322716,6.6773243
867,1747638535.1067429,0.38596764,-1.8577608,-0.7359271,-2.795008,-0.95322716,6.6773243
868,1747638535.1204865,0.7488547,-1.4475235,-0.112140685,-3.1701446,-0.73698723,7.0719314
869,1747638535.1362345,1.0039,-0.81739527,0.77108157,-1.7681737,-1.0595145,7.536786
870,1747638535.137237,1.0039,-0.81739527,0.77108157,-1.7681737,-1.0595145,7.536786
871,1747638535.151972,1.3253212,-0.5330799,0.8838321,-1.7681737,-1.0595145,7.536786
872,1747638535.1666923,1.914441,0.5807656,0.44648945,-0.026648212,-2.0234315,7.4085083
873,1747638535.1678143,1.914441,0.5807656,0.44648945,-0.026648212,-2.0234315,7.4085083
874,1747638535.1825316,2.1304293,1.6486938,-0.0020732917,0.019470757,-1.0845593,6.850805
875,1747638535.197795,2.2400088,2.0262463,0.31690875,-0.52448875,0.06261184,6.505065
876,1747638535.2002435,2.4230378,2.243698,0.8952962,-0.62298787,0.791429,6.0261607
877,1747638535.2134554,2.6761012,2.5389898,1.3216319,-0.29832253,0.82869065,5.5790205
878,1747638535.2282844,4.029595,3.5664277,1.3230956,1.533532,-0.38636088,2.7934809
879,1747638535.229287,4.029595,3.5664277,1.3230956,1.533532,-0.38636088,2.7934809
880,1747638535.243517,4.185305,3.6869833,0.9226148,1.7241927,-0.13530266,0.9547543
881,1747638535.259118,3.5890813,3.4519696,0.8164806,1.6045431,1.139001,-1.8197904
882,1747638535.259665,3.5890813,3.4519696,0.8164806,1.6045431,1.139001,-1.8197904
883,1747638535.2748308,2.8220549,2.780589,0.82038325,1.8002433,1.3485217,-2.916872
884,1747638535.290643,2.8220549,2.780589,0.82038325,2.4812615,0.4621823,-4.0360208
885,1747638535.2917347,3.0372808,2.5763392,0.73202443,2.4812615,0.4621823,-4.0360208
886,1747638535.3058062,3.5673728,2.4428256,0.56387436,2.4818723,-0.25258535,-4.84295
887,1747638535.306806,3.5673728,2.4428256,0.56387436,2.4818723,-0.25258535,-4.84295
888,1747638535.320631,4.438369,1.8768778,0.31739658,2.2980838,-0.41018394,-5.640716
889,1747638535.3359385,4.4564185,1.0800631,0.052350618,1.3684505,-0.42728767,-7.117821
890,1747638535.3369398,4.4564185,1.0800631,0.052350618,1.3684505,-0.42728767,-7.117821
891,1747638535.3511627,3.726986,0.049454104,0.068693034,-0.08651124,0.22395188,-8.164203
892,1747638535.3669987,2.7993402,-1.0892404,0.6510136,-1.1002122,1.1225082,-8.23445
893,1747638535.368201,2.7993402,-1.0892404,0.6510136,-1.1002122,1.1225082,-8.23445
894,1747638535.3818586,2.4235256,-1.3708726,0.85379976,-0.99682635,1.4413705,-7.970564
895,1747638535.3971224,2.0806396,-1.5588105,1.0693002,0.011987877,1.8225392,-7.2613707
896,1747638535.3981266,2.0806396,-1.5588105,1.0693002,0.011987877,1.8225392,-7.2613707
897,1747638535.4120846,1.6186615,-2.1037507,1.1359199,1.6176763,1.827426,-6.6175375
898,1747638535.4276583,1.2223275,-2.895687,0.31983575,3.2575722,1.6325656,-6.393967
899,1747638535.428752,1.2223275,-2.895687,0.31983575,3.2575722,1.6325656,-6.393967
900,1747638535.4436116,0.6873572,-3.3696172,-0.34666657,3.518022,1.4206016,-6.346932
901,1747638535.4589865,-1.4143509,-3.542646,-1.5966785,1.6220286,0.6985802,-4.56196
902,1747638535.4589865,-1.4143509,-3.542646,-1.5966785,1.6220286,0.6985802,-4.56196
903,1747638535.4742134,-1.9712735,-3.4626107,-1.6057035,0.15591876,0.26243526,-2.6303847
904,1747638535.4900196,-1.6474131,-3.6058507,-1.2130281,-1.5924788,-0.64719266,0.899778
905,1747638535.4906096,-1.6474131,-3.6058507,-1.2130281,-1.5924788,-0.64719266,0.899778
906,1747638535.5055897,-0.5916809,-3.2466223,-0.4642954,-1.5556753,-1.7680974,4.2589035
907,1747638535.5207665,-0.33151326,-3.0572515,-0.43158004,-0.9450571,-2.7125437,5.2045712
908,1747638535.5207665,-0.33151326,-3.0572515,-0.43158004,-0.9450571,-2.7125437,5.2045712
909,1747638535.5359888,0.09726177,-2.845166,-0.61585915,-0.39056048,-3.4901521,6.0915217
910,1747638535.536581,0.09726177,-2.845166,-0.61585915,-0.39056048,-3.4901521,6.0915217
911,1747638535.5513747,0.5853695,-2.5447521,-0.86867875,0.04688253,-4.1773553,7.3633056
912,1747638535.5665183,1.797544,-1.5653962,-1.3692262,-0.3911713,-4.5701303,8.601569
913,1747638535.5676394,1.797544,-1.5653962,-1.3692262,-1.3476055,-4.254933,9.321147
914,1747638535.5814347,2.3751996,-1.138542,-1.3101679,-2.7445366,-3.2354288,9.724306
915,1747638535.5975013,2.9350493,-0.5262502,-0.018903542,-4.8331,-0.5311317,9.842811
916,1747638535.5980923,2.9350493,-0.5262502,-0.018903542,-4.8331,-0.5311317,9.842811
917,1747638535.6128402,3.5573723,0.3193784,1.8216916,-3.8586457,-0.5347968,9.745687
918,1747638535.628021,4.168444,1.1715927,2.3534606,-1.8279604,-1.4089192,9.798219
919,1747638535.6290812,4.168444,1.1715927,2.3534606,-1.8279604,-1.4089192,9.798219
920,1747638535.643407,5.256404,1.7665664,2.0676818,1.657534,-1.621494,9.023664
921,1747638535.6581967,4.494988,2.6881142,-0.06649778,4.7212386,-0.7162184,5.798315
922,1747638535.6592813,4.494988,2.6881142,-0.06649778,4.7212386,-0.7162184,5.798315
923,1747638535.673718,3.698417,2.8787045,-0.8118157,4.125586,-0.12736166,4.9424415
924,1747638535.6896122,3.388978,3.243055,-0.9960642,1.7310648,0.6069531,4.016397
925,1747638535.6906686,3.388978,3.243055,-0.9960642,1.7310648,0.6069531,4.016397
926,1747638535.7050989,3.6825624,3.1435065,-0.32395184,-0.020463383,0.51166093,2.0402298
927,1747638535.706101,3.6825624,3.1435065,-0.32395184,-0.86473066,0.54831177,0.1783674
928,1747638535.7199597,3.6825624,3.1435065,-0.32395184,-1.4130424,0.79875916,-1.4526712
929,1747638535.7352722,1.5625302,2.457247,1.1129917,-1.5420076,1.0522608,-2.3469515
930,1747638535.7363095,1.5625302,2.457247,1.1129917,-1.5420076,1.0522608,-2.3469515
931,1747638535.750767,1.223547,2.204397,1.3533716,-0.22601348,1.523224,-3.53085
932,1747638535.766695,1.5693599,1.6906779,1.2064424,1.7771838,0.6277219,-4.0683956
933,1747638535.7677639,1.5693599,1.6906779,1.2064424,1.7771838,0.6277219,-4.0683956
934,1747638535.7816026,1.8094957,1.5547553,0.91749257,2.3180127,0.30641624,-4.5246983
935,1747638535.796797,2.1394541,1.4163631,0.28151032,2.40712,0.8580113,-5.6695023
936,1747638535.7977974,2.1394541,1.4163631,0.28151032,2.40712,0.8580113,-5.6695023
937,1747638535.8126068,2.5238364,1.1959845,0.33764166,2.2606692,1.1163998,-5.980424
938,1747638535.8285248,2.8564472,0.09241393,0.2505329,2.146059,1.4413705,-7.463561
939,1747638535.8295283,2.8564472,0.09241393,0.2505329,2.146059,1.4413705,-7.463561
940,1747638535.8437626,2.7056456,-0.13601404,0.2663875,2.1597269,1.5293325,-7.834956
941,1747638535.8587441,2.445234,-0.7502877,0.27663198,2.2986946,1.4535874,-7.9681206
942,1747638535.859813,2.445234,-0.7502877,0.27663198,2.2986946,1.4535874,-7.9681206
943,1747638535.8751905,2.391298,-0.96331847,0.27614418,2.3647425,0.98873264,-7.7164516
944,1747638535.8764632,2.2954082,-1.1802822,0.2239155,2.3647425,0.98873264,-7.7164516
945,1747638535.8997722,2.1406736,-1.3418466,0.16168626,2.1740818,0.7242358,-7.4776106
946,1747638535.8997722,1.8929459,-1.4567922,0.06479037,1.8793479,0.675368,-7.243045
947,1747638535.9198282,1.4290164,-1.5524687,0.079211935,1.1378558,0.78593135,-6.4660473
948,1747638535.9198282,1.4290164,-1.5524687,0.079211935,1.1378558,0.78593135,-6.4660473
949,1747638535.9355123,0.91432166,-2.016642,0.08872469,0.11911522,1.1444987,-5.188689
950,1747638535.950922,0.49505937,-2.2606807,0.15997885,-0.1369825,1.2758309,-4.652365
951,1747638535.950922,0.49505937,-2.2606807,0.15997885,-0.1369825,1.2758309,-4.652365
952,1747638535.9664314,-0.519695,-2.4800837,0.23757485,-0.029167956,0.38093963,-3.1215823
953,1747638535.9675214,-0.519695,-2.4800837,0.23757485,-0.029167956,0.38093963,-3.1215823
954,1747638535.981614,-1.1783614,-2.3900175,-0.034026377,0.034436513,-1.0210311,-0.7905127
955,1747638535.9975564,-1.2718425,-2.3761141,-0.103115775,-0.015423893,-1.2226108,-0.3109976
956,1747638535.9985828,-0.96603197,-2.337301,-0.47893035,-0.5936672,-1.937913,2.6102266
957,1747638536.0130308,-0.5943639,-2.310714,-0.4494165,-1.0840248,-1.9965543,4.2082033
958,1747638536.0286376,0.5304578,-1.9973421,-0.09698737,-1.4865732,-2.4943948,6.2167454
959,1747638536.0296378,0.5304578,-1.9973421,-0.09698737,-1.4865732,-2.4943948,6.2167454
960,1747638536.0438437,1.0771055,-1.7279363,-0.0638147,-1.2647593,-2.910458,6.668772
961,1747638536.0596972,1.3645918,-1.3174244,-0.23196477,-1.1600753,-2.6612325,6.961979
962,1747638536.0607014,1.3645918,-1.3174244,-0.23196477,-1.1600753,-2.6612325,6.961979
963,1747638536.075386,1.3741045,-1.1114674,-0.21364051,-1.2634612,-2.3539,7.158061
964,1747638536.0764956,1.3741045,-1.1114674,-0.21364051,-1.2634612,-2.3539,7.158061
965,1747638536.091048,1.9754506,-0.6275061,0.023812365,-1.2703333,-2.4394186,7.4873075
966,1747638536.106056,2.2797673,0.27617463,-0.04183171,-1.193061,-2.5084443,7.409119
967,1747638536.106987,2.2797673,0.27617463,-0.04183171,-1.1837456,-2.2262328,7.3413153
968,1747638536.1209474,2.3329716,0.47045428,0.021373197,-1.2342169,-1.4645063,7.0328374
969,1747638536.1366389,2.011337,0.91316307,0.24367274,-1.1843565,-0.62336963,6.7713947
970,1747638536.1376414,2.011337,0.91316307,0.24367274,-1.1843565,-0.62336963,6.7713947
971,1747638536.1526113,2.4113297,0.98783207,0.47258857,-0.9986589,-0.7705838,6.633343
972,1747638536.1678836,2.8459587,1.5662194,0.32276276,-0.098957255,-1.5769022,5.094619
973,1747638536.168935,2.8459587,1.5662194,0.32276276,-0.098957255,-1.5769022,5.094619
974,1747638536.1828053,2.604847,2.077987,0.0696687,0.008857286,-1.2128372,4.095807
975,1747638536.198859,2.3034575,2.649545,-0.045277033,-0.3500155,-0.70888823,3.3719532
976,1747638536.1999366,2.3034575,2.649545,-0.045277033,-0.3500155,-0.70888823,3.3719532
977,1747638536.2140343,2.6482947,2.9528856,0.240014,-0.5980195,-0.45905173,3.1300578
978,1747638536.22871,2.936025,2.982918,0.49896204,-0.9071082,0.28014982,1.6016415
979,1747638536.2297106,2.936025,2.982918,0.49896204,-0.9071082,0.28014982,1.6016415
980,1747638536.2447004,3.1659164,2.9326406,0.68564975,-0.5911474,0.31313556,0.50578153
981,1747638536.2598753,2.938952,2.8157437,0.5218902,0.1776802,0.13171394,-1.6053829
982,1747638536.2608767,2.938952,2.8157437,0.5218902,0.1776802,0.13171394,-1.6053829
983,1747638536.2753837,2.3583694,2.5721927,0.27321714,0.1932568,0.5464792,-3.1435728
984,1747638536.276421,2.3583694,2.5721927,0.27321714,0.1932568,0.5464792,-3.1435728
985,1747638536.2901297,2.4476733,2.406238,0.3327633,0.20509197,0.6894175,-3.4532723
986,1747638536.3057077,2.5287147,1.8429734,0.50505996,0.7285117,1.1658783,-4.702455
987,1747638536.3067083,2.5287147,1.8429734,0.50505996,0.7285117,1.1658783,-4.702455
988,1747638536.3210654,2.4488928,1.5317967,0.49554718,1.129762,1.2819394,-5.2039604
989,1747638536.3362212,2.3595889,1.1935452,0.4179512,1.5366626,1.3387481,-5.6394944
990,1747638536.3372583,2.3595889,1.1935452,0.4179512,1.5366626,1.3387481,-5.6394944
991,1747638536.3515024,2.1975367,0.7218104,0.23172083,2.088105,1.2611705,-6.2210975
992,1747638536.3667862,2.031338,0.048722353,-0.053570196,2.2263856,1.1597699,-6.7989593
993,1747638536.3678825,2.031338,0.048722353,-0.053570196,2.2263856,1.1597699,-6.7989593
994,1747638536.382533,1.893708,-0.19385278,-0.13336144,2.0893266,1.267279,-6.959612
995,1747638536.3978598,1.7433639,-0.39322415,-0.13360536,1.8955353,1.4285426,-6.995041
996,1747638536.3992321,1.7433639,-0.39322415,-0.13360536,1.8955353,1.4285426,-6.995041
997,1747638536.4131825,1.6005812,-0.66461194,-0.023781875,1.5129923,1.6979263,-6.4562736
998,1747638536.4284754,1.6352478,-0.90596753,0.0257637,1.521086,1.903171,-6.3505974
999,1747638536.4294765,1.60424,-1.1097598,0.105067104,1.521086,1.903171,-6.3505974
