id,timestamp,acc_x,acc_y,acc_z,gyro_x,gyro_y,gyro_z
0,1747638503.2774756,0.33056808,0.86703235,0.82599336,0.74347746,-1.5836215,-0.40751147
1,1747638503.3013227,0.24663025,0.92852974,0.7427568,0.86244,-1.3350067,-0.3586437
2,1747638503.3013227,0.24663025,0.92852974,0.7427568,0.86244,-1.3350067,-0.3586437
3,1747638503.316494,0.25711864,0.86483705,0.6212253,0.82754534,-0.9049702,-0.22723518
4,1747638503.3316772,0.2710219,0.80651045,0.5758263,0.8357154,-0.7174401,-0.1887518
5,1747638503.3326776,0.2710219,0.80651045,0.5758263,0.8357154,-0.7174401,-0.1887518
6,1747638503.347353,0.23784924,0.62567675,0.4484408,1.0487484,-0.41812494,-0.18447587
7,1747638503.3484762,0.23784924,0.62567675,0.4484408,1.0487484,-0.41812494,-0.18447587
8,1747638503.3626482,0.25443557,0.49484593,0.38450414,1.4057887,-0.47798797,-0.28282228
9,1747638503.3783066,0.24906941,0.117811754,0.37377182,2.4874463,-1.4461809,-0.69644225
10,1747638503.3793821,0.24906941,0.117811754,0.37377182,2.4874463,-1.4461809,-0.69644225
11,1747638503.3935645,0.06579652,-0.21678093,0.29760882,2.8980885,-1.917755,-0.7648571
12,1747638503.408857,-0.177053,-0.387858,-0.45039213,2.675053,-2.430256,-0.064138964
13,1747638503.4098575,-0.177053,-0.387858,-0.45039213,2.675053,-2.430256,-0.064138964
14,1747638503.423745,-0.19973727,-0.4923153,-0.7366588,1.9883841,-2.1303298,0.35734564
15,1747638503.4392576,0.09750569,-0.8017541,-0.6048524,-0.06345176,-1.3111837,1.4116681
16,1747638503.440298,0.09750569,-0.8017541,-0.6048524,-0.06345176,-1.3111837,1.4116681
17,1747638503.4552934,0.5575325,-1.1724769,-0.015488708,-0.7537855,-0.89641833,1.8081079
18,1747638503.4704862,0.6641851,-1.1985761,0.07994369,-0.4753155,-1.085781,1.8850746
19,1747638503.4715827,0.6641851,-1.1985761,0.07994369,-0.4753155,-1.085781,1.8850746
20,1747638503.4865744,0.7527878,-1.2215346,-0.08259629,-0.19799086,-1.3918154,1.9620414
21,1747638503.487662,0.7527878,-1.2215346,-0.08259629,-0.19799086,-1.3918154,1.9620414
22,1747638503.501406,0.75669044,-1.1766235,-0.19071235,0.11476293,-2.4626307,2.5540287
23,1747638503.516633,0.8650505,-1.0841181,-0.40889582,-0.2622062,-3.0876038,3.2827694
24,1747638503.5177152,0.8650505,-1.0841181,-0.40889582,-0.2622062,-3.0876038,3.2827694
25,1747638503.5318139,1.4836842,-1.0004243,-0.374717,-1.480312,-3.434565,4.784232
26,1747638503.547015,2.73394,-0.75589776,-0.1167751,-2.8547947,-2.7717957,5.633386
27,1747638503.548095,2.73394,-0.75589776,-0.1167751,-2.8547947,-2.7717957,5.633386
28,1747638503.5627594,3.5488045,-0.3085546,0.36742997,-3.375084,-2.493784,5.485561
29,1747638503.577645,3.8416877,0.32011014,0.97947794,-3.5096993,-2.4473596,5.21801
30,1747638503.5786545,3.8416877,0.32011014,0.97947794,-3.5096993,-2.4473596,5.21801
31,1747638503.5929098,3.7018318,0.60515726,1.3043139,-2.9545155,-2.4504137,4.3254857
32,1747638503.6083224,3.121493,1.3504751,1.2872398,-1.1750411,-3.0277407,3.896671
33,1747638503.6093228,3.121493,1.3504751,1.2872398,-1.1750411,-3.0277407,3.896671
34,1747638503.62345,2.938708,1.5564628,0.9736239,-0.6310816,-3.1260872,3.9119422
35,1747638503.6394186,2.686102,1.790013,0.48993713,-0.6771242,-2.8408215,3.7555654
36,1747638503.640513,2.686102,1.790013,0.48993713,-0.6771242,-2.8408215,3.7555654
37,1747638503.6549225,2.4208426,1.8148925,0.59488225,-0.8921424,-2.6966615,3.44892
38,1747638503.670098,2.139698,1.7944036,0.76498365,-1.0510391,-2.469961,2.7226226
39,1747638503.6711588,2.139698,1.7944036,0.76498365,-1.0510391,-2.469961,2.7226226
40,1747638503.6861758,1.4636829,1.7648591,0.9565497,-0.8292252,-2.3239684,2.0707722
41,1747638503.6877248,1.4636829,1.7648591,0.9565497,-0.8292252,-2.3239684,2.0707722
42,1747638503.7014453,0.8850516,1.867609,0.90334535,-0.79929364,-2.0716884,1.6773865
43,1747638503.7172265,0.6070781,1.9925553,0.9548423,-0.8279271,-1.5927843,1.0976925
44,1747638503.7183292,0.40352964,2.1248496,1.0534456,-0.8279271,-1.5927843,1.0976925
45,1747638503.7326472,0.18635234,2.272236,1.2630615,-0.7407287,-1.537808,0.6377245
46,1747638503.7479534,0.058936365,2.4640768,1.5349371,-0.057190575,-1.3466128,-0.6237514
47,1747638503.7489552,0.058936365,2.4640768,1.5349371,-0.057190575,-1.3466128,-0.6237514
48,1747638503.7630067,0.193182,2.497981,1.460512,0.123467505,-1.1725214,-1.0018659
49,1747638503.778191,0.5594838,2.5685036,1.1979053,0.23563433,-0.9318475,-1.5296379
50,1747638503.7792542,0.5594838,2.5685036,1.1979053,0.23563433,-0.9318475,-1.5296379
51,1747638503.7933638,1.0063392,2.5187445,0.9738678,-0.2216612,-0.3283304,-2.9675725
52,1747638503.8085961,1.2628176,2.3952312,0.9218831,-0.6640673,0.18730104,-3.9676056
53,1747638503.8095963,1.2628176,2.3952312,0.9218831,-0.6640673,0.18730104,-3.9676056
54,1747638503.8239064,1.3970633,2.2536986,0.9936555,-0.89588386,0.9166527,-4.9877205
55,1747638503.8393774,2.41011,2.234917,0.9843562,-0.60550237,1.6075209,-5.9168954
56,1747638503.8404384,2.41011,2.234917,0.9843562,-0.60550237,1.6075209,-5.9168954
57,1747638503.854909,2.9116027,2.1365576,0.86380047,-0.32947573,1.8970625,-6.402519
58,1747638503.8701916,3.3367493,1.4842329,0.519695,0.26434416,2.534787,-7.4024763
59,1747638503.871265,3.3367493,1.4842329,0.519695,0.26434416,2.534787,-7.4024763
60,1747638503.8862312,3.2213159,0.52048767,0.04454528,1.0120212,3.4108183,-8.123276
61,1747638503.902276,3.0546293,0.116104335,-0.10555494,1.3091984,3.5586433,-8.258884
62,1747638503.9033787,3.0546293,0.116104335,-0.10555494,1.3091984,3.5586433,-8.258884
63,1747638503.9174101,2.796901,-0.27413183,-0.19705418,1.539106,3.6252258,-8.227731
64,1747638503.9184968,2.796901,-0.27413183,-0.19705418,1.8419336,3.7156312,-7.994998
65,1747638503.9330049,1.9468818,-1.078508,-0.3178539,2.5073752,3.7137985,-6.555231
66,1747638503.9483125,1.9468818,-1.078508,-0.3178539,2.5073752,3.7137985,-6.555231
67,1747638503.9493127,1.9468818,-1.078508,-0.3178539,2.5073752,3.7137985,-6.555231
68,1747638503.9637346,1.7167464,-1.2959597,-0.30175543,2.9890285,2.7247605,-5.4195895
69,1747638503.979598,1.3458103,-1.3511155,-0.55311155,3.2900233,1.4028871,-4.398864
70,1747638503.9808543,1.3458103,-1.3511155,-0.55311155,3.2900233,1.4028871,-4.398864
71,1747638503.9943688,1.0002413,-1.3782207,-0.99386895,3.2900233,1.4028871,-4.398864
72,1747638504.0100617,0.59000397,-1.4536214,-1.3369987,1.2251306,0.98201334,-2.4514065
73,1747638504.0111191,0.59000397,-1.4536214,-1.3369987,1.2251306,0.98201334,-2.4514065
74,1747638504.0254729,0.3312998,-1.6000324,-1.0375606,-1.1506835,0.7883747,-0.32993388
75,1747638504.0405521,0.3137378,-1.5841779,-0.83571947,-1.7843612,0.42797485,0.43492326
76,1747638504.0415525,0.3137378,-1.5841779,-0.83571947,-1.7843612,0.42797485,0.43492326
77,1747638504.0559134,0.3620638,-1.6422606,-0.58021677,-2.078484,0.08460235,1.0017895
78,1747638504.0713627,0.52801865,-1.6505537,-0.24757542,-2.008084,-0.84327465,2.3964303
79,1747638504.0724924,0.52801865,-1.6505537,-0.24757542,-2.008084,-0.84327465,2.3964303
80,1747638504.0869246,0.77132547,-1.6720488,-0.3354464,-1.7108305,-1.5316995,3.1813688
81,1747638504.0879974,0.77132547,-1.6720488,-0.3354464,-1.7108305,-1.5316995,3.1813688
82,1747638504.10212,1.0556408,-1.7098559,-0.6263475,-1.4884057,-2.5279913,4.346255
83,1747638504.1180089,1.3992585,-1.5373154,-1.0136262,-2.3445082,-3.2965136,6.0579247
84,1747638504.1191247,1.3992585,-1.5373154,-1.0136262,-2.3445082,-3.2965136,6.0579247
85,1747638504.1333544,1.6293938,-1.4421573,-0.8845333,-2.9813163,-3.3362186,6.8752384
86,1747638504.1493297,2.406177,-1.309863,-0.18315093,-3.4872506,-3.5726166,7.839232
87,1747638504.1503298,2.406177,-1.309863,-0.18315093,-3.4872506,-3.5726166,7.839232
88,1747638504.1652577,2.977003,-0.6882719,0.48188788,-2.3233576,-3.9220212,7.602758
89,1747638504.180319,2.977003,-0.6882719,0.48188788,-2.3233576,-3.9220212,7.602758
90,1747638504.18132,2.9157493,-0.30270058,0.522378,-2.3233576,-3.9220212,7.602758
91,1747638504.1956658,2.7168658,0.2373919,0.53582394,-1.0784508,-4.031363,7.346202
92,1747638504.2109122,2.7027187,0.89410704,0.5346044,-0.41736138,-3.4956498,7.53984
93,1747638504.2119873,2.7027187,0.89410704,0.5346044,-0.41736138,-3.4956498,7.53984
94,1747638504.226866,2.8105907,1.6282048,0.5148166,-0.22853324,-2.9874249,7.2582397
95,1747638504.2279522,2.8105907,1.6282048,0.5148166,-0.22853324,-2.9874249,7.2582397
96,1747638504.2416975,2.64488,2.7676616,0.8608734,-0.45286688,-2.1113935,6.2039175
97,1747638504.256854,2.0386555,4.205337,1.7858053,0.27304873,-1.6117204,4.17705
98,1747638504.2578576,2.0386555,4.205337,1.7858053,0.27304873,-1.6117204,4.17705
99,1747638504.2726738,2.043046,4.495018,1.727235,0.6649836,-1.3942589,3.4373138
100,1747638504.2882245,2.0135322,4.7407646,1.4527067,0.9272661,-1.0033166,2.2802927
101,1747638504.2897136,2.0135322,4.7407646,1.4527067,0.9272661,-1.0033166,2.2802927
102,1747638504.3028796,1.5869218,4.770065,1.0204864,0.40949672,-0.13041589,0.060473878
103,1747638504.3183627,0.9475248,4.316136,1.5063989,-0.68964654,0.88916457,-2.329237
104,1747638504.319446,0.9475248,4.316136,1.5063989,-0.68964654,0.88916457,-2.329237
105,1747638504.3343267,1.2030275,4.1999707,1.6708597,-0.634823,1.123119,-2.8075304
106,1747638504.3503938,2.27123,3.8898,1.8575778,0.17645851,2.0241187,-4.4116917
107,1747638504.3514295,2.27123,3.8898,1.8575778,0.17645851,2.0241187,-4.4116917
108,1747638504.3655508,4.0156918,2.976576,1.3228517,1.7117467,2.4724805,-7.0170317
109,1747638504.3810978,4.2843657,2.3059273,0.9194439,2.1210907,2.8854897,-8.269879
110,1747638504.382099,4.2843657,2.3059273,0.9194439,2.1210907,2.8854897,-8.269879
111,1747638504.3965087,3.9185517,1.3331571,0.4735947,2.56846,2.960624,-9.896642
112,1747638504.411702,3.1132,0.56759405,-0.22269592,2.367873,2.8586125,-10.031639
113,1747638504.411702,3.1132,0.56759405,-0.22269592,2.367873,2.8586125,-10.031639
114,1747638504.4272113,2.7749486,0.272272,-0.36008197,1.911112,2.9056478,-9.62848
115,1747638504.4272113,2.7749486,0.272272,-0.36008197,1.911112,2.9056478,-9.62848
116,1747638504.4426136,2.2673275,-0.15479562,-0.1841266,1.1241881,2.8091338,-8.305308
117,1747638504.458281,2.4911208,-0.910358,0.3693813,0.9035958,1.9978523,-6.9919868
118,1747638504.459351,2.4911208,-0.910358,0.3693813,0.9035958,1.9978523,-6.9919868
119,1747638504.4734688,2.3415086,-1.1675986,0.5104261,1.1790116,1.7864991,-6.931513
120,1747638504.4891975,1.6989406,-1.5568591,0.33934906,1.6656277,1.1066262,-6.1453524
121,1747638504.490198,1.6989406,-1.5568591,0.33934906,1.6656277,1.1066262,-6.1453524
122,1747638504.5043857,1.4583168,-1.7125388,-0.12043386,0.9322293,0.7144622,-4.7849193
123,1747638504.5200467,1.3934045,-2.0810666,-0.027440626,-0.57931226,1.2837719,-3.158844
124,1747638504.521047,1.3934045,-2.0810666,-0.027440626,-0.57931226,1.2837719,-3.158844
125,1747638504.5352182,1.3199246,-2.2330875,0.20830485,-1.0260707,1.4535874,-2.3793263
126,1747638504.5512495,1.2562319,-2.4922795,0.38499197,-0.71079713,0.5733565,-0.7251521
127,1747638504.55231,1.2562319,-2.4922795,0.38499197,-0.71079713,0.5733565,-0.7251521
128,1747638504.5665948,1.3143145,-2.4669123,0.10799411,-0.54815906,0.13782242,-0.17348062
129,1747638504.567638,1.3143145,-2.4669123,0.10799411,-0.54815906,0.13782242,-0.17348062
130,1747638504.5812979,1.1498536,-2.365382,-0.23416002,-0.77745587,-0.3008423,0.48989952
131,1747638504.5964353,0.40206614,-2.1960123,-0.4808817,-1.6853275,-0.5274666,1.9431051
132,1747638504.6116915,0.2061096,-2.1169221,-0.39767563,-2.008695,-0.69422793,2.8942707
133,1747638504.6127841,0.2061096,-2.1169221,-0.39767563,-2.008695,-0.69422793,2.8942707
134,1747638504.6270583,0.20440216,-2.0603032,-0.23830658,-1.896528,-1.3741009,4.5960913
135,1747638504.6281455,0.3515754,-1.9553884,-0.15900318,-1.896528,-1.3741009,4.5960913
136,1747638504.6419194,0.7598614,-1.8375157,-0.14994776,-1.4616048,-1.9147007,5.6205583
137,1747638504.6576197,2.1133244,-1.3852942,-0.59729093,-0.4166742,-2.9464982,7.0798726
138,1747638504.6586897,2.1133244,-1.3852942,-0.59729093,-0.4166742,-2.9464982,7.0798726
139,1747638504.6731822,2.4186473,-1.1287854,-0.74080545,-0.243499,-3.2079408,7.3785768
140,1747638504.6886506,2.9382203,-0.012775135,-1.1344564,-0.28213507,-3.2213793,9.156219
141,1747638504.689651,2.9382203,-0.012775135,-1.1344564,-0.28213507,-3.2213793,9.156219
142,1747638504.7036357,3.7120764,0.6788506,-1.0219499,-0.5207473,-2.9978092,10.300946
143,1747638504.7188509,4.4651995,1.1576895,-0.8362074,-0.36498123,-3.1566296,10.355311
144,1747638504.719926,5.6827707,1.8114775,-0.6026571,-0.36498123,-3.1566296,10.355311
145,1747638504.734099,5.588314,3.4358711,-0.5924126,0.15339902,-3.450447,6.6901517
146,1747638504.7499502,5.588314,3.4358711,-0.5924126,0.15339902,-3.450447,6.6901517
147,1747638504.7510495,5.588314,3.4358711,-0.5924126,0.15339902,-3.450447,6.6901517
148,1747638504.7647326,3.4916975,3.8553774,-0.19681026,-0.65414107,-2.9208424,5.253439
149,1747638504.780311,2.7578743,3.898825,0.25858217,-1.6971627,-2.6117537,5.329184
150,1747638504.7813177,2.7578743,3.898825,0.25858217,-1.6971627,-2.6117537,5.329184
151,1747638504.7962193,3.0150845,3.7236013,1.1947343,-1.6902907,-2.277544,4.9735947
152,1747638504.7972236,3.0150845,3.7236013,1.1947343,-1.6902907,-2.277544,4.9735947
153,1747638504.8110802,2.1577477,3.3331213,1.7045507,-0.7095755,-1.0118685,2.7421696
154,1747638504.8269055,0.47213122,2.8330617,1.498807,0.97834826,-0.4456131,1.0207257
155,1747638504.827996,0.47213122,2.8330617,1.498807,0.97834826,-0.4456131,1.0207257
156,1747638504.8426511,0.10701844,2.648813,1.1115283,1.4164021,-0.34054735,0.6047388
157,1747638504.8576443,-0.004756375,2.4982252,0.601468,1.175881,0.19768545,-0.25899923
158,1747638504.8586445,-0.034270294,2.4135556,0.31593305,1.175881,0.19768545,-0.25899923
159,1747638504.8729944,-0.08747462,2.318611,0.15071002,0.6406261,0.62588936,-0.8937459
160,1747638504.8877661,-0.36008197,2.0491743,0.49505937,-0.23662695,1.099296,-2.2058458
161,1747638504.8887672,-0.36008197,2.0491743,0.49505937,-0.23662695,1.099296,-2.2058458
162,1747638504.9033382,-0.27318668,2.000635,0.63561636,-0.31076854,1.2324607,-2.4318593
163,1747638504.9186583,0.32471406,1.901056,0.764008,0.0742943,1.4816864,-3.4233408
164,1747638504.919736,0.32471406,1.901056,0.764008,0.0742943,1.4816864,-3.4233408
165,1747638504.934427,0.85745853,1.8988608,0.7100719,0.3671192,1.3766207,-4.030523
166,1747638504.950038,1.5900928,1.7612003,0.16046669,0.32596338,1.515283,-5.5918484
167,1747638504.95112,1.5900928,1.7612003,0.16046669,0.32596338,1.515283,-5.5918484
168,1747638504.9653547,1.646712,1.699215,0.022836698,-0.13820419,1.9398218,-6.351819
169,1747638504.9806957,1.6064352,1.73876,0.25858217,-1.0485194,2.6624541,-6.9101334
170,1747638504.9819515,1.6064352,1.73876,0.25858217,-1.0485194,2.6624541,-6.9101334
171,1747638504.9961338,2.188268,1.8727312,0.38987032,-1.226734,2.8305135,-6.8844776
172,1747638505.010966,3.2371707,1.8183073,0.528476,-1.1257915,2.9575696,-7.31879
173,1747638505.0115905,3.2371707,1.8183073,0.528476,-1.1257915,2.9575696,-7.31879
174,1747638505.0270388,3.791166,1.4168509,0.47014937,-0.6310816,3.232451,-8.486806
175,1747638505.027416,3.791166,1.4168509,0.47014937,-0.6310816,3.232451,-8.486806
176,1747638505.0427086,3.5080705,0.6466536,0.4870101,0.3639886,3.9813497,-9.907637
177,1747638505.0576642,2.8798938,0.218092,0.27468067,1.4257175,3.6111763,-10.067679
178,1747638505.0582242,2.8798938,0.218092,0.27468067,1.4257175,3.6111763,-10.067679
179,1747638505.0735638,2.0635352,-0.33099493,-0.081864536,1.7372496,3.4633512,-9.235094
180,1747638505.0890985,1.2901667,-0.6748565,-0.29199874,1.740991,3.1450999,-8.247278
181,1747638505.090101,1.2901667,-0.6748565,-0.29199874,1.6793718,2.7821803,-7.410417
182,1747638505.1043818,1.1432374,-0.8701117,-0.49258974,1.4157913,2.203708,-6.2088804
183,1747638505.1199205,1.1229924,-1.2766904,-0.43328747,-0.16683766,2.119411,-4.5112596
184,1747638505.1214867,1.1229924,-1.2766904,-0.43328747,-0.16683766,2.119411,-4.5112596
185,1747638505.1354642,1.0319505,-1.5170703,0.061375532,-0.46714544,1.9624232,-3.9688272
186,1747638505.1505933,0.8508729,-1.983439,0.5346044,0.115373775,0.7957049,-2.6908586
187,1747638505.1516957,0.8508729,-1.983439,0.5346044,0.115373775,0.7957049,-2.6908586
188,1747638505.1657891,0.6361347,-2.071066,0.556313,1.3647091,-0.8640435,0.28526568
189,1747638505.1805317,0.95215917,-1.9688039,-0.105067104,1.4855806,-1.2989666,2.1526258
190,1747638505.1815352,0.95215917,-1.9688039,-0.105067104,1.4855806,-1.2989666,2.1526258
191,1747638505.1964598,1.2738243,-1.9031597,-0.36422858,0.27052897,-1.221389,3.9760811
192,1747638505.2112095,1.715039,-1.6286011,-0.54579407,-0.23349637,-1.1377031,4.1746063
193,1747638505.2132988,1.5346932,-1.50024,-0.32886064,-0.23349637,-1.1377031,4.1746063
194,1747638505.226404,1.5346932,-1.50024,-0.32886064,-0.6839962,-1.2794195,4.4873605
195,1747638505.2424824,1.3287361,-1.3464811,-0.054789785,-0.7444701,-2.1669807,5.485561
196,1747638505.243634,1.4478284,-1.2857152,-0.12653178,-0.7444701,-2.1669807,5.485561
197,1747638505.2580392,1.8051053,-1.1363467,-0.27785155,-0.37185326,-3.2207685,7.0914783
198,1747638505.259137,1.8051053,-1.1363467,-0.27785155,-0.37185326,-3.2207685,7.0914783
199,1747638505.2731612,2.1216178,-1.009693,-0.37057042,-0.326956,-3.5817792,7.4427156
200,1747638505.2890358,2.5428617,-0.76906925,-0.46649066,-0.33756948,-3.8322268,7.5801563
201,1747638505.2900372,2.5428617,-0.76906925,-0.46649066,-0.33756948,-3.8322268,7.5801563
202,1747638505.303768,2.5145369,-0.43228132,-0.49795586,-0.22731154,-3.9232428,8.132439
203,1747638505.3190186,2.507707,-0.23336728,-0.4952728,-0.22731154,-3.9232428,8.132439
204,1747638505.320151,2.507707,-0.23336728,-0.4952728,-0.22731154,-3.9232428,8.132439
205,1747638505.334183,2.8774545,0.023111105,-0.49332145,-0.05971032,-4.094891,9.129952
206,1747638505.3494365,4.186037,0.66836214,-0.6631789,0.27052897,-4.301968,9.439041
207,1747638505.3504386,4.186037,0.66836214,-0.6631789,0.27052897,-4.301968,9.439041
208,1747638505.3646524,4.4615407,1.0241756,-0.6495196,0.37086064,-4.359388,8.899663
209,1747638505.3799384,4.2485104,2.3935237,-0.9194439,0.38208497,-4.2915835,8.433586
210,1747638505.3809402,4.2485104,2.3935237,-0.9194439,0.109188944,-3.6966186,8.007215
211,1747638505.3946316,4.061304,2.8767533,-0.8113278,-0.20982604,-3.2763557,7.864277
212,1747638505.409767,4.0425224,3.8363519,-0.13823977,-1.4728291,-2.9086256,6.745128
213,1747638505.410815,4.0425224,3.8363519,-0.13823977,-1.4728291,-2.9086256,6.745128
214,1747638505.4250154,3.9966357,4.0381627,0.37279615,-1.7257962,-2.6758928,5.761664
215,1747638505.4402812,3.164453,4.0037704,1.3506886,-1.0940274,-1.8640004,3.1318903
216,1747638505.4412851,3.164453,4.0037704,1.3506886,-1.0940274,-1.8640004,3.1318903
217,1747638505.4557476,1.7394612,3.934437,1.769219,-0.13629529,-1.3307308,1.8050536
218,1747638505.471197,0.7393419,3.6740558,1.3555669,0.8312868,-0.7901309,0.7391252
219,1747638505.4722507,0.7393419,3.6740558,1.3555669,0.8312868,-0.7901309,0.7391252
220,1747638505.4871266,0.6017119,3.5290778,1.1222606,0.9297859,-0.31183752,0.22295925
221,1747638505.4881752,0.31007907,3.3497076,0.85501945,0.8282325,0.33329353,-1.0580639
222,1747638505.5024724,0.09238344,3.228908,0.687845,0.59267455,0.65704256,-1.885151
223,1747638505.5178683,0.011372615,3.0527086,0.60463893,0.21631628,1.0198859,-2.5925121
224,1747638505.5189838,0.011372615,3.0527086,0.60463893,0.21631628,1.0198859,-2.5925121
225,1747638505.5339072,0.6986078,2.6190248,0.92139524,-0.77936476,1.5971365,-3.6334722
226,1747638505.549595,1.1168944,2.566796,1.0705198,-1.3856306,2.2574625,-4.5118704
227,1747638505.5506353,1.1168944,2.566796,1.0705198,-1.3856306,2.2574625,-4.5118704
228,1747638505.5652432,1.8112032,2.558015,1.1437253,-1.2865207,2.5213485,-4.9357986
229,1747638505.5806527,2.8566911,2.5731683,0.970453,-0.82105505,3.1182225,-6.514915
230,1747638505.5816596,2.8566911,2.5731683,0.970453,-0.82105505,3.1182225,-6.514915
231,1747638505.596463,3.3748007,2.3835232,0.2549234,-0.79929364,4.06076,-8.492915
232,1747638505.6119857,3.5715194,2.0050256,0.06576603,-0.9058101,4.535388,-9.03718
233,1747638505.6130633,3.5715194,2.0050256,0.06576603,-0.9058101,4.535388,-9.03718
234,1747638505.6271255,3.5824957,1.2028446,-0.0086590415,-0.83541,4.8634133,-9.465384
235,1747638505.6281805,3.5824957,1.2028446,-0.0086590415,-0.47836977,5.074766,-9.921686
236,1747638505.6423721,3.4570613,0.70668757,-0.12604393,0.36963895,4.9538183,-10.177631
237,1747638505.6582701,3.3730931,0.48265013,-0.23172083,0.78020465,4.8194323,-10.1648035
238,1747638505.6592996,3.3730931,0.48265013,-0.23172083,0.78020465,4.8194323,-10.1648035
239,1747638505.674346,3.121493,0.26885715,-0.7224812,0.97712654,4.4669733,-9.699949
240,1747638505.6894653,2.767631,-0.110860124,-0.18656576,0.26243526,4.344193,-8.290037
241,1747638505.690468,2.767631,-0.110860124,-0.18656576,0.26243526,4.344193,-8.290037
242,1747638505.7046108,2.8196156,-0.37932092,0.30715206,0.63383037,3.5177166,-7.9583473
243,1747638505.7198722,2.367882,-0.616042,0.35081315,1.6656277,1.9086686,-7.4055305
244,1747638505.7208748,2.367882,-0.616042,0.35081315,1.6656277,1.9086686,-7.4055305
245,1747638505.735026,1.3326387,-0.85325104,-0.11336028,1.6506621,1.4584742,-5.433639
246,1747638505.7503934,1.3326387,-0.85325104,-0.11336028,1.6506621,1.4584742,-5.433639
247,1747638505.7514725,1.1871729,-0.976246,-0.15851535,1.3117181,1.5745351,-4.5564623
248,1747638505.7655702,1.2977282,-1.5246316,-0.061131615,0.82388026,1.7516809,-3.414789
249,1747638505.78121,1.5927758,-1.9492601,0.12604393,0.39453098,1.3925027,-1.2388746
250,1747638505.7822132,1.5927758,-1.9492601,0.12604393,0.39453098,1.3925027,-1.2388746
251,1747638505.79661,1.5442059,-2.0163982,0.057716787,0.59145284,0.7340093,-0.5767162
252,1747638505.7986107,1.5442059,-2.0163982,0.057716787,0.59145284,0.7340093,-0.5767162
253,1747638505.8125656,1.2298889,-1.9783167,-0.16875984,0.7640172,0.088878274,0.82342213
254,1747638505.8281198,0.9021258,-1.9321859,-0.5750945,0.24563695,-0.66673976,3.0176618
255,1747638505.8281198,0.9021258,-1.9321859,-0.5750945,0.24563695,-0.66673976,3.0176618
256,1747638505.8435767,0.778643,-1.857517,-0.70418745,-0.32390177,-0.9123004,3.9088879
257,1747638505.8595262,0.8103826,-1.7935802,-0.63025016,-1.2186403,-1.4266337,5.255272
258,1747638505.8606818,0.8103826,-1.7935802,-0.63025016,-1.2186403,-1.4266337,5.255272
259,1747638505.8748984,0.9997535,-1.7389123,-0.48722354,-1.766952,-1.9153116,6.2643914
260,1747638505.8903685,1.4797815,-1.6652191,-0.20290817,-1.9326444,-3.1566296,7.7201166
261,1747638505.8914604,1.4797815,-1.6652191,-0.20290817,-1.9326444,-3.1566296,7.7201166
262,1747638505.9063017,2.1470156,-1.3838308,-0.040124293,-1.8142927,-3.5805576,8.004771
263,1747638505.9073024,2.394469,-1.1702816,-0.0433257,-1.6491349,-3.8725426,8.340127
264,1747638505.9213226,2.5711563,-0.70415694,-0.04183171,-1.4435848,-3.7662551,8.953418
265,1747638505.937217,2.7778754,-0.5025598,0.059668116,-1.246052,-3.7955759,9.310763
266,1747638505.9382267,2.7778754,-0.5025598,0.059668116,-1.246052,-3.7955759,9.310763
267,1747638505.9519598,3.7469869,-0.069638215,-0.06625386,-0.23105298,-4.4491825,9.663222
268,1747638505.9671786,4.189696,0.97905105,-0.5724114,0.20073968,-4.2818103,9.118346
269,1747638505.9681804,4.189696,0.97905105,-0.5724114,0.20073968,-4.2818103,9.118346
270,1747638505.9831102,4.2167706,1.479568,-0.75739175,0.032527618,-4.1529217,8.923486
271,1747638505.998121,4.092556,2.2187881,-0.5843634,-0.61107635,-3.7912998,8.502612
272,1747638505.9992292,4.092556,2.2187881,-0.5843634,-0.61107635,-3.7912998,8.502612
273,1747638506.0140078,3.9688292,2.563625,-0.32395184,-0.73072606,-3.7088356,8.303476
274,1747638506.0293665,3.7560117,2.8879733,0.026739366,-0.6890357,-3.8413894,6.96992
275,1747638506.0303683,3.48438,3.3428779,0.1753456,-0.6890357,-3.8413894,6.96992
276,1747638506.0484884,3.2796426,3.594722,0.21293926,-1.0728005,-3.6049914,5.9516377
277,1747638506.0494902,3.0785332,3.7902212,0.3398369,-1.0728005,-3.6049914,5.9516377
278,1747638506.0638726,2.2336364,4.213874,1.3838612,-1.5594167,-2.7968404,4.7897296
279,1747638506.0793765,2.2336364,4.213874,1.3838612,-1.6273735,-2.06558,3.8881192
280,1747638506.0805104,2.2336364,4.213874,1.3838612,-1.6273735,-2.06558,3.8881192
281,1747638506.0948577,1.457829,4.078927,2.313702,-0.6946097,-0.8102889,2.0390081
282,1747638506.109697,0.85965383,3.814369,1.7843419,1.7141901,0.15736952,-0.47165045
283,1747638506.1106975,0.85965383,3.814369,1.7843419,1.7141901,0.15736952,-0.47165045
284,1747638506.1254835,0.9074919,3.6225588,1.3509325,1.9615833,0.4737884,-1.2938509
285,1747638506.1408007,0.6873572,3.1532633,0.5621669,1.5216969,1.1426661,-3.3317137
286,1747638506.141904,0.6873572,3.1532633,0.5621669,1.5216969,1.1426661,-3.3317137
287,1747638506.1561298,0.872368,2.7342145,0.06015595,-0.029778805,2.0283947,-4.365878
288,1747638506.171323,1.1759528,2.6363733,0.16436934,-0.8603784,2.6563456,-4.6767993
289,1747638506.1723275,1.1759528,2.6363733,0.16436934,-0.8603784,2.6563456,-4.6767993
290,1747638506.1865275,1.7065021,2.4882245,0.68247885,-1.5918679,3.6795912,-5.199074
291,1747638506.1875277,1.7065021,2.4882245,0.68247885,-1.5918679,3.6795912,-5.199074
292,1747638506.2011929,2.6019201,2.4040427,0.91212636,-1.2105466,3.7828243,-5.8735256
293,1747638506.217188,3.1080778,2.3242211,0.7891314,-0.8198334,3.8249729,-6.6774006
294,1747638506.2181885,3.1080778,2.3242211,0.7891314,-0.8198334,3.8249729,-6.6774006
295,1747638506.232585,3.6159427,1.9398388,0.43307403,-0.3955236,4.248901,-8.21246
296,1747638506.2481625,3.6928067,1.1083878,0.13485542,0.28740364,4.8536396,-9.749428
297,1747638506.2501621,3.6928067,1.1083878,0.13485542,0.28740364,4.8536396,-9.749428
298,1747638506.2634516,3.5854225,0.57710683,-0.0769862,0.67804044,4.8866253,-10.120823
299,1747638506.278471,3.1497874,-0.06305246,-0.3810588,1.0207257,4.7235293,-10.348058
300,1747638506.2794745,3.1497874,-0.06305246,-0.3810588,1.0207257,4.7235293,-10.348058
301,1747638506.2933903,2.8049502,-0.21653701,-0.4630758,1.0088906,4.476136,-10.16175
302,1747638506.3089943,2.3571498,-0.5313725,-0.3954804,0.5808394,3.8109233,-9.067111
303,1747638506.3099952,2.3571498,-0.5313725,-0.3954804,0.5808394,3.8109233,-9.067111
304,1747638506.3241715,2.1499424,-0.63043314,-0.045033116,0.7160657,3.2465005,-8.505132
305,1747638506.3400292,1.6450045,-0.2248302,0.055277612,1.5821707,1.3705121,-6.752535
306,1747638506.3410294,1.6450045,-0.2248302,0.055277612,1.5821707,1.3705121,-6.752535
307,1747638506.355412,1.6572002,-0.013994719,-0.31419516,0.6431458,1.64295,-4.7598743
308,1747638506.371024,1.6630543,-0.14967337,-0.19681026,0.14530529,2.215314,-4.3170104
309,1747638506.372028,1.6630543,-0.14967337,-0.19681026,0.14530529,2.215314,-4.3170104
310,1747638506.387024,1.5744821,-0.9599036,0.52997,0.008246438,2.1188002,-3.3763056
311,1747638506.3880274,1.5744821,-0.9599036,0.52997,0.008246438,2.1188002,-3.3763056
312,1747638506.403106,1.5446938,-1.4755739,0.40231007,0.5035672,0.9838459,-2.9223697
313,1747638506.419205,1.0124371,-1.9177948,0.055277612,0.5920637,0.40354097,-1.7751985
314,1747638506.4202054,1.0124371,-1.9177948,0.055277612,0.5920637,0.40354097,-1.7751985
315,1747638506.4350884,0.19806033,-1.6127465,0.23050125,0.8170082,0.163478,0.9431482
316,1747638506.449836,0.2866326,-1.5434133,0.14705126,1.13106,-0.30389652,2.223484
317,1747638506.450892,0.2866326,-1.5434133,0.14705126,1.13106,-0.30389652,2.223484
318,1747638506.4657495,0.5465563,-1.520973,-0.16558893,1.2681189,-0.7345438,3.1312795
319,1747638506.4811728,0.9363047,-1.5258512,-0.5426231,0.7708892,-1.1144909,4.079925
320,1747638506.483179,0.9363047,-1.5258512,-0.5426231,0.7708892,-1.1144909,4.079925
321,1747638506.4961793,1.0231694,-1.4826474,-0.5787533,0.070552856,-1.3624948,4.6150274
322,1747638506.5123086,0.97877663,-1.2842518,-0.29590142,-0.7394306,-1.7540479,5.6834755
323,1747638506.51331,0.97877663,-1.2842518,-0.29590142,-0.7394306,-1.7540479,5.6834755
324,1747638506.5278292,1.4021854,-1.212022,-0.0828402,-1.1874871,-2.2787657,7.2484665
325,1747638506.5288298,1.4021854,-1.212022,-0.0828402,-1.1874871,-2.2787657,7.2484665
326,1747638506.5438128,1.751657,-1.1448839,-0.02134271,-1.2017657,-2.559221,7.593595
327,1747638506.5592678,2.1611626,-0.970392,-0.046496615,-1.1195303,-2.9855924,7.855725
328,1747638506.560268,2.1611626,-0.970392,-0.046496615,-1.1076951,-3.1102052,7.9235287
329,1747638506.5744555,2.56018,-0.63851285,-0.23537959,-1.1108258,-3.0381253,7.943687
330,1747638506.5891345,2.873064,-0.08085837,-0.25074634,-0.49898586,-3.447393,8.252165
331,1747638506.590135,2.873064,-0.08085837,-0.25074634,-0.49898586,-3.447393,8.252165
332,1747638506.6042688,2.9884975,0.094853096,-0.3488618,-0.19989976,-3.6697412,8.398157
333,1747638506.6202614,3.3089125,0.85285467,-0.7564161,0.23250374,-4.062516,8.802538
334,1747638506.6212645,3.3089125,0.85285467,-0.7564161,0.23250374,-4.062516,8.802538
335,1747638506.6352289,3.7962885,1.3106862,-1.0195106,-0.034741938,-3.5542912,9.071921
336,1747638506.650871,4.408336,2.6334465,-0.7586113,-0.49585527,-3.1016533,8.864844
337,1747638506.6523573,4.408336,2.6334465,-0.7586113,-0.7718819,-3.1523535,8.418315
338,1747638506.6660705,4.2863173,3.3074796,-0.6583006,-1.6466914,-3.0173564,7.1763864
339,1747638506.6810794,3.6422856,3.6281688,0.0757971,-2.1912618,-2.7204847,5.7305107
340,1747638506.68208,3.6422856,3.6281688,0.0757971,-2.1912618,-2.7204847,5.7305107
341,1747638506.6962395,2.68537,3.893703,0.60195583,-2.176296,-2.4210932,5.0402536
342,1747638506.7115538,2.0857618,4.0269423,1.2074181,-1.8367413,-2.0051062,4.4018416
343,1747638506.7128046,2.0857618,4.0269423,1.2074181,-1.8367413,-2.0051062,4.4018416
344,1747638506.7267177,1.6391505,3.93151,1.9051721,-0.1861557,-0.762032,2.0102983
345,1747638506.7277174,1.6391505,3.93151,1.9051721,-0.1861557,-0.762032,2.0102983
346,1747638506.7424088,1.1317734,3.887117,2.0252402,1.0033166,-0.43583953,0.7831062
347,1747638506.7576556,0.33690992,3.616705,1.1679035,2.56846,-0.40224293,-0.8821398
348,1747638506.7586591,0.33690992,3.616705,1.1679035,2.56846,-0.40224293,-0.8821398
349,1747638506.7729988,0.17315035,3.4561164,0.5626548,2.5373068,-0.070552856,-1.5717864
350,1747638506.78187,0.19488941,3.1188405,0.09555435,2.5373068,-0.070552856,-1.5717864
351,1747638506.7972317,0.28809607,2.8735824,0.21928109,0.7235486,1.4096065,-3.0397286
352,1747638506.7982337,0.28809607,2.8735824,0.21928109,0.3148154,1.6050775,-3.4031827
353,1747638506.8126879,0.74690336,2.5734124,0.4970107,-0.030389652,1.755346,-3.8411603
354,1747638506.8277218,1.6235398,2.2256176,0.67906404,-0.404839,2.5158508,-5.1331024
355,1747638506.8278766,1.6235398,2.2256176,0.67906404,-0.404839,2.5158508,-5.1331024
356,1747638506.8428838,1.9961835,2.1328988,0.7488547,-0.35688752,2.7815692,-5.7770114
357,1747638506.858802,2.547496,2.035515,0.69174767,-0.0839915,3.0534728,-6.7482586
358,1747638506.859805,2.547496,2.035515,0.69174767,-0.0839915,3.0534728,-6.7482586
359,1747638506.874337,2.8776984,1.644791,0.3352025,0.2985516,3.3216348,-7.9607906
360,1747638506.8897247,2.924073,1.4891113,0.1724186,0.58396995,3.5238252,-8.788565
361,1747638506.8907926,2.924073,1.4891113,0.1724186,0.58396995,3.5238252,-8.788565
362,1747638506.905049,3.0519462,1.0207608,-0.030123709,0.69919103,3.6130087,-8.99381
363,1747638506.9210565,2.996059,0.61345047,-0.17461385,0.9091698,3.5421505,-9.393304
364,1747638506.9220617,2.996059,0.61345047,-0.17461385,0.9091698,3.5421505,-9.393304
365,1747638506.9362042,2.8837962,0.36282605,-0.23903833,0.83754796,3.4664054,-9.396358
366,1747638506.9372044,2.8837962,0.36282605,-0.23903833,0.7527929,3.3668373,-9.348712
367,1747638506.951309,2.6858578,0.10168276,-0.21440275,0.661853,3.1053948,-9.169123
368,1747638506.9672542,2.2648883,-0.26291168,-0.076742284,0.84251106,1.8414754,-8.54728
369,1747638506.9682572,2.2648883,-0.26291168,-0.076742284,0.84251106,1.8414754,-8.54728
370,1747638506.9822679,1.8954154,-0.25095978,-0.038416874,0.909857,1.3442458,-8.200243
371,1747638506.9977067,1.2650433,-0.064272046,-0.08064495,0.5471664,0.8848886,-6.7122188
372,1747638506.998838,1.2650433,-0.064272046,-0.08064495,0.5471664,0.8848886,-6.7122188
373,1747638507.012979,1.0734469,-0.11744587,0.038447365,0.16340165,1.2825502,-5.3517857
374,1747638507.028411,1.2755318,-0.85178757,0.27638808,0.2294495,1.655167,-3.890028
375,1747638507.029491,1.2755318,-0.85178757,0.27638808,0.44935453,1.3937243,-2.8759453
376,1747638507.0440807,1.5761895,-1.1353711,0.016494865,0.44187164,0.87206084,-2.3280153
377,1747638507.0593152,1.6359795,-1.8684931,-0.35691106,-1.2036746,0.7639409,-1.7110596
378,1747638507.0604184,1.6359795,-1.8684931,-0.35691106,-1.2036746,0.7639409,-1.7110596
379,1747638507.0748274,1.2179369,-1.9102335,0.03137378,-1.825517,1.0027821,-1.1979479
380,1747638507.0906923,0.29861498,-1.7008309,0.78108215,-1.2236034,0.9013815,0.029931515
381,1747638507.0917537,0.29861498,-1.7008309,0.78108215,-1.2236034,0.9013815,0.029931515
382,1747638507.1062474,0.058204614,-1.6095756,0.43600106,1.3758571,-0.62336963,2.877167
383,1747638507.1213808,0.3647469,-1.6837567,-0.033294626,1.8500273,-1.0143119,3.8245912
384,1747638507.122383,0.3647469,-1.6837567,-0.033294626,1.8500273,-1.0143119,3.8245912
385,1747638507.1370645,0.9697212,-1.6444557,-0.7005287,1.8413227,-1.1981769,4.388403
386,1747638507.1380646,0.9697212,-1.6444557,-0.7005287,1.8413227,-1.1981769,4.388403
387,1747638507.1522443,1.2650433,-1.4931663,-0.9228587,0.41759047,-1.4968812,5.3200216
388,1747638507.167352,1.3345901,-1.3477006,-0.91822433,-0.71079713,-1.393648,5.5564194
389,1747638507.1674383,1.3345901,-1.3477006,-0.91822433,-0.71079713,-1.393648,5.5564194
390,1747638507.1825922,1.1242119,-1.1527197,-0.53969616,-1.648524,-1.4834425,6.093354
391,1747638507.1977441,1.1149431,-1.0811912,-0.26147866,-1.8005487,-1.893932,6.6803784
392,1747638507.1988585,1.1149431,-1.0811912,-0.26147866,-1.8005487,-1.893932,6.6803784
393,1747638507.213561,1.8853844,-0.8595928,-0.089913785,-1.0167552,-2.9715428,7.9730077
394,1747638507.2288253,2.5428617,-0.29221216,-0.22976951,-0.09269607,-3.9446225,8.451912
395,1747638507.2288253,2.5428617,-0.29221216,-0.22976951,-0.09269607,-3.9446225,8.451912
396,1747638507.2440164,3.2427807,0.75379395,-1.0202425,0.16088189,-4.2402725,8.612565
397,1747638507.2591221,3.3584583,1.1852521,-0.9919176,-0.57931226,-3.6312578,9.396281
398,1747638507.2602115,3.3584583,1.1852521,-0.9919176,-0.57931226,-3.6312578,9.396281
399,1747638507.2740586,3.6576526,1.7299789,-0.856239,-0.8273163,-3.4956498,9.72675
400,1747638507.2896538,4.597738,2.5575273,-0.7163833,-1.3482163,-3.2409265,9.502569
401,1747638507.290687,4.597738,2.5575273,-0.7163833,-1.3482163,-3.2409265,9.502569
402,1747638507.3054776,4.8242145,3.2064676,-0.33617815,-1.8105513,-2.6624541,8.067689
403,1747638507.3204854,3.8145823,3.8146126,0.80596167,-1.5924788,-1.9544058,5.970574
404,1747638507.3214884,3.8145823,3.8146126,0.80596167,-1.5924788,-1.9544058,5.970574
405,1747638507.3356724,2.5850897,3.876354,1.4902699,-1.0821923,-1.8829367,5.3468986
406,1747638507.350961,2.0498757,3.8956542,1.5620424,1.2425396,-1.3496671,3.5240543
407,1747638507.352067,2.0498757,3.8956542,1.5620424,1.2425396,-1.3496671,3.5240543
408,1747638507.366258,1.6071974,3.9039474,1.2628176,2.144761,-1.2476555,2.6175568
409,1747638507.3814576,0.804986,4.0759997,0.34617874,2.405211,-0.8567133,1.0024004
410,1747638507.3824575,0.804986,4.0759997,0.34617874,2.405211,-0.8567133,1.0024004
411,1747638507.3973708,0.250289,4.145547,0.054789785,1.2282611,-0.054059982,-0.009162709
412,1747638507.398349,0.250289,4.145547,0.054789785,1.2282611,-0.054059982,-0.009162709
413,1747638507.4125917,0.23196477,3.708936,0.5755824,-0.22792238,0.8586222,-1.2846881
414,1747638507.428053,0.64759874,3.1332316,0.9631355,-0.30328566,1.2086377,-2.7666037
415,1747638507.4290535,0.64759874,3.1332316,0.9631355,-0.30328566,1.2086377,-2.7666037
416,1747638507.4438114,0.8716362,2.8447697,1.042195,0.18577392,1.4975684,-3.9132402
417,1747638507.4597254,1.1676596,2.7249455,0.8216028,0.940323,1.7339664,-5.493502
418,1747638507.4608257,1.1676596,2.7249455,0.8216028,0.940323,1.7339664,-5.493502
419,1747638507.47541,1.5449377,2.6675947,0.27468067,0.8767949,1.9697534,-5.974315
420,1747638507.490405,2.388859,2.6632042,-0.05308236,-0.07834116,2.4779782,-7.054293
421,1747638507.491435,2.388859,2.6632042,-0.05308236,-0.07834116,2.4779782,-7.054293
422,1747638507.5055969,2.8806252,2.4389226,-0.062107284,-0.34818295,2.655124,-7.5050983
423,1747638507.520822,3.584203,1.8471199,0.0330812,-0.17370969,2.699105,-8.747638
424,1747638507.5218222,3.584203,1.8471199,0.0330812,-0.17370969,2.699105,-8.747638
425,1747638507.53657,3.776257,1.0031987,-0.22659859,0.4088859,2.7076569,-10.156863
426,1747638507.5375738,3.776257,1.0031987,-0.22659859,0.4088859,2.7076569,-10.156863
427,1747638507.5517094,3.6510668,0.5907662,-0.32004914,0.49608433,2.8848789,-10.556356
428,1747638507.5668795,3.0870705,0.12512925,-0.36788732,0.4786752,2.9758952,-10.743277
429,1747638507.567943,3.0870705,0.12512925,-0.36788732,0.3970507,3.0198762,-10.701128
430,1747638507.5828333,2.485023,-0.2399835,-0.23220867,0.18516308,3.1499865,-10.063403
431,1747638507.5977528,2.1103976,-0.5113408,0.0389352,0.23937577,2.9948313,-9.382919
432,1747638507.598725,2.1103976,-0.5113408,0.0389352,0.23937577,2.9948313,-9.382919
433,1747638507.6129951,1.8592854,-0.6909549,0.26053348,0.52227443,2.6086996,-8.750082
434,1747638507.6279008,1.3477615,-1.0257916,-0.51823145,0.9055047,0.71873814,-5.71104
435,1747638507.628901,1.3477615,-1.0257916,-0.51823145,0.9055047,0.71873814,-5.71104
436,1747638507.6434112,1.358006,-1.2137294,-0.708334,-0.3014531,1.155494,-4.714061
437,1747638507.6592865,1.237938,-1.6344552,-0.320537,-2.2161539,1.8243717,-3.7092173
438,1747638507.6604292,1.237938,-1.6344552,-0.320537,-2.2161539,1.8243717,-3.7092173
439,1747638507.675619,1.0507625,-2.1071656,0.56826484,-2.6435943,2.0173993,-2.4459088
440,1747638507.6905339,1.0507625,-2.1071656,0.56826484,-1.6741033,1.5317758,-0.41606334
441,1747638507.6917512,1.0507625,-2.1071656,0.56826484,-1.6741033,1.5317758,-0.41606334
442,1747638507.7053077,1.2354989,-2.1257339,0.6939429,-1.06967,1.271555,0.20402299
443,1747638507.720515,1.2967526,-1.9256002,0.3091034,0.6294781,0.055281676,1.1251806
444,1747638507.7215188,1.2967526,-1.9256002,0.3091034,0.6294781,0.055281676,1.1251806
445,1747638507.7361083,1.0085344,-1.7284241,-0.013293459,1.0605836,-0.38025242,1.4379344
446,1747638507.752151,0.47432646,-1.3535546,-0.41938424,1.1709179,-0.9153546,2.3389342
447,1747638507.753202,0.47432646,-1.3535546,-0.41938424,1.1709179,-0.9153546,2.3389342
448,1747638507.767911,0.4882297,-1.009693,-0.67321,0.03000787,-1.3392826,4.968097
449,1747638507.7689703,0.4882297,-1.009693,-0.67321,0.03000787,-1.3392826,4.968097
450,1747638507.783675,0.78425306,-0.96112317,-0.6258597,-0.5114319,-1.425412,5.914376
451,1747638507.7995698,1.4392914,-0.823981,-0.40670058,-1.0784508,-1.7558805,6.9570923
452,1747638507.8006258,1.4392914,-0.823981,-0.40670058,-1.0784508,-1.7558805,6.9570923
453,1747638507.8143294,1.8265699,-0.3893215,-0.22318375,-0.906421,-2.7638547,7.982781
454,1747638507.829597,2.0542662,-0.03521547,-0.33739772,-0.8971056,-3.1932805,8.879505
455,1747638507.8306835,2.0542662,-0.03521547,-0.33739772,-0.8971056,-3.1932805,8.879505
456,1747638507.8455174,2.6189942,0.17077217,-0.46063665,-1.1027321,-3.53902,9.839757
457,1747638507.8606753,3.9561453,0.6163774,-0.47453988,-2.1806483,-3.3252234,10.322937
458,1747638507.861683,3.9561453,0.6163774,-0.47453988,-2.1806483,-3.3252234,10.322937
459,1747638507.8755949,4.218234,1.0986313,-0.051862784,-2.5146291,-3.2604735,9.9900255
460,1747638507.8908117,4.2253075,1.8302897,0.7451959,-2.2448637,-3.2067192,9.364517
461,1747638507.8919578,4.2253075,1.8302897,0.7451959,-2.2448637,-3.2067192,9.364517
462,1747638507.9065757,3.997855,2.660765,1.3333704,-0.268391,-3.5500152,7.5728264
463,1747638507.907636,3.997855,2.660765,1.3333704,-0.268391,-3.5500152,7.5728264
464,1747638507.9219172,3.686953,2.888705,1.1181141,0.67926216,-3.639199,6.7060337
465,1747638507.9374835,3.202748,3.0534403,0.69004023,1.1322818,-3.3502681,5.8575673
466,1747638507.9395442,2.456942,3.306016,0.48408312,1.1322818,-3.3502681,5.8575673
467,1747638507.9527419,1.403649,3.7135704,0.38328457,0.37208232,-2.46202,4.641905
468,1747638507.9674475,0.91432166,3.9046793,0.4411233,-0.5282302,-2.2103508,4.6174707
469,1747638507.9685535,0.91432166,3.9046793,0.4411233,-0.5282302,-2.2103508,4.6174707
470,1747638507.983428,0.8316034,3.9812994,1.0221938,-2.403073,-1.429688,3.9516473
471,1747638507.9987016,0.8316034,3.9812994,1.0221938,-2.403073,-1.429688,3.9516473
472,1747638507.9998772,1.018535,3.8194914,1.9285882,-2.7843945,-0.5873296,2.5100477
473,1747638508.0140595,1.0485673,3.633779,2.6948829,-1.3737955,0.20806985,0.38239038
474,1747638508.0297925,1.0485673,3.633779,2.6948829,-1.3737955,0.20806985,0.38239038
475,1747638508.0308447,0.67613703,3.137866,2.1811638,1.9117229,0.7126297,-2.5338707
476,1747638508.0446737,0.5131092,2.9216645,1.6389066,3.408375,1.0840248,-4.528974
477,1747638508.059993,0.19366984,2.5150857,-0.30638984,2.8139443,1.3527976,-4.798969
478,1747638508.059993,0.19366984,2.5150857,-0.30638984,2.8139443,1.3527976,-4.798969
479,1747638508.0753412,0.34938017,2.466028,-0.6968699,1.6363071,1.7718388,-4.740938
480,1747638508.0907063,1.2491583,2.5275257,-0.5331104,-0.49585527,2.2763987,-4.7232237
481,1747638508.090793,1.2491583,2.5275257,-0.5331104,-0.49585527,2.2763987,-4.7232237
482,1747638508.105755,2.1135685,2.441118,-0.18193135,-1.9382946,2.5445607,-5.807554
483,1747638508.1206644,2.6089935,2.1997626,0.354228,-2.0161777,3.1279962,-6.5533986
484,1747638508.1206644,2.6089935,2.1997626,0.354228,-2.0161777,3.1279962,-6.5533986
485,1747638508.1364963,2.5299342,1.8598037,1.2186687,-0.0839915,3.5714712,-7.8477836
486,1747638508.1518528,2.5838704,1.6733599,1.0446341,1.2961415,3.1396022,-8.10434
487,1747638508.1528523,2.5838704,1.6733599,1.0446341,1.2961415,3.1396022,-8.10434
488,1747638508.1670234,2.6582954,1.5637803,0.55777645,2.2500558,2.763244,-8.254608
489,1747638508.167165,2.6582954,1.5637803,0.55777645,2.2500558,2.763244,-8.254608
490,1747638508.1823916,2.7346718,1.290929,-0.22781818,2.55044,2.4724805,-8.244835
491,1747638508.1972766,2.7346718,1.290929,-0.22781818,2.55044,2.4724805,-8.244835
492,1747638508.1982782,2.686102,0.7674533,-0.7168711,1.1484692,2.0100694,-8.082349
493,1747638508.212488,2.4088907,0.5812534,-0.699553,0.5745782,2.171944,-7.9320807
494,1747638508.2279012,2.4088907,0.5812534,-0.699553,0.5745782,2.171944,-7.9320807
495,1747638508.2289023,1.7497057,0.118055664,-0.43792188,-0.5755708,2.880603,-6.883256
496,1747638508.243164,1.4661222,-0.2514476,-0.016220458,-0.68025476,3.021098,-5.9944735
497,1747638508.2585242,1.301143,-0.5321042,0.279559,-0.3400892,2.5604427,-5.2955875
498,1747638508.2595274,1.301143,-0.5321042,0.279559,-0.3400892,2.5604427,-5.2955875
499,1747638508.2732377,1.0929906,-1.1126869,0.34959355,0.67246646,1.8219283,-4.232713
500,1747638508.288385,0.8726119,-1.5429254,0.068693034,1.6133239,0.96246624,-3.1270797
501,1747638508.2884846,0.8726119,-1.5429254,0.068693034,1.6133239,0.96246624,-3.1270797
502,1747638508.3044157,0.8726119,-1.5429254,0.068693034,1.6133239,0.96246624,-3.1270797
503,1747638508.319666,0.62683535,-1.6966844,-0.64586085,0.74905145,0.32535252,-1.4111335
504,1747638508.319666,0.62683535,-1.6966844,-0.64586085,0.74905145,0.32535252,-1.4111335
505,1747638508.3348465,0.51749974,-1.7533036,-0.4320679,-0.6466582,0.6509341,0.09162709
506,1747638508.350846,0.4540509,-1.7476934,-0.30419457,-0.9606337,0.7425612,0.6951442
507,1747638508.3509715,0.4540509,-1.7476934,-0.30419457,-0.9606337,0.7425612,0.6951442
508,1747638508.3662066,0.39621213,-1.7091241,-0.18461442,-1.0453887,0.75477815,1.1105204
509,1747638508.3815646,0.20171909,-1.4958495,0.0389352,-0.78432786,0.26854372,2.0206828
510,1747638508.382638,0.20171909,-1.4958495,0.0389352,-0.78432786,0.26854372,2.0206828
511,1747638508.3974211,0.20537783,-1.3262359,0.015519199,-0.37124243,-0.5512897,2.9235914
512,1747638508.3974211,0.20537783,-1.3262359,0.015519199,-0.37124243,-0.5512897,2.9235914
513,1747638508.4125798,0.6253719,-1.1539392,-0.17900434,-0.21791977,-1.2000095,4.0548806
514,1747638508.427728,0.98170364,-0.8073947,-0.23464784,-0.46348035,-1.6477605,5.0029154
515,1747638508.427728,0.98170364,-0.8073947,-0.23464784,-0.46348035,-1.6477605,5.0029154
516,1747638508.4434433,1.1010399,-0.66022146,-0.26586917,-0.6447493,-1.7131212,5.46296
517,1747638508.4583793,1.3306874,-0.45886827,-0.25294158,-1.0310339,-1.8236845,6.446424
518,1747638508.4594707,1.3306874,-0.45886827,-0.25294158,-1.0310339,-1.8236845,6.446424
519,1747638508.4737022,1.5571641,-0.34441036,-0.1651011,-1.1725214,-2.0674126,7.06338
520,1747638508.4883296,2.5631068,-0.030581051,-0.016220458,-0.9992698,-2.7901213,8.495282
521,1747638508.4893312,2.5631068,-0.030581051,-0.016220458,-0.9992698,-2.7901213,8.495282
522,1747638508.503835,3.1685996,0.24178241,-0.0960117,-0.8247965,-2.926951,8.828194
523,1747638508.5191877,3.8055575,1.435663,-0.0886942,-0.7170583,-2.7821803,9.045655
524,1747638508.5203125,3.8055575,1.435663,-0.0886942,-0.7170583,-2.7821803,9.045655
525,1747638508.534356,4.012033,1.8678528,0.03088595,-0.61107635,-2.6807795,8.969911
526,1747638508.5490143,4.1596637,2.4616375,0.35691106,-0.27648473,-2.6123648,8.576525
527,1747638508.550015,4.1596637,2.4616375,0.35691106,0.13224843,-2.6117537,8.130606
528,1747638508.5641503,3.9693172,2.7100666,0.4057249,0.7715001,-2.6771145,7.4439373
529,1747638508.5797987,3.002157,2.9777958,0.019909699,1.5397933,-2.3068647,5.841685
530,1747638508.5808005,3.002157,2.9777958,0.019909699,1.5397933,-2.3068647,5.841685
531,1747638508.5953147,2.3483381,3.0868876,-0.16217409,1.1565629,-2.0191555,5.2522173
532,1747638508.6113508,1.2154977,3.4397738,0.07210787,-0.3537569,-1.5927843,4.8263807
533,1747638508.6121624,1.2154977,3.4397738,0.07210787,-0.3537569,-1.5927843,4.8263807
534,1747638508.6274884,0.9968264,3.4014482,1.0341457,-1.7307594,-1.2421579,3.9595883
535,1747638508.6285224,0.9968264,3.4014482,1.0341457,-1.7307594,-1.2421579,3.9595883
536,1747638508.6434083,0.9943873,3.4585552,1.4099908,-1.7052565,-1.0204203,3.0268245
537,1747638508.6586688,0.66589254,3.5439873,1.6572002,-1.1750411,-0.72843534,1.1771027
538,1747638508.6597285,0.66589254,3.5439873,1.6572002,-1.1750411,-0.72843534,1.1771027
539,1747638508.6739433,0.2898035,3.4631896,1.4951482,-0.7027034,-0.28679278,-0.52418333
540,1747638508.6894472,0.193182,3.2050042,1.3775194,-0.48585263,0.09743014,-1.5754515
541,1747638508.6904492,0.193182,3.2050042,1.3775194,-0.2391467,0.47012332,-2.5638022
542,1747638508.7046018,0.322031,2.546551,1.0170716,-0.032909397,0.7285117,-3.2174852
543,1747638508.7197049,0.6490623,2.2961707,0.6153712,0.46806172,1.2324607,-4.7360516
544,1747638508.7207053,0.6490623,2.2961707,0.6153712,0.46806172,1.2324607,-4.7360516
545,1747638508.7354636,0.96435505,2.2734559,0.27638808,0.2973299,1.4554199,-5.0512486
546,1747638508.7507415,1.8424551,2.666863,-0.07649837,-0.6248204,1.9984632,-5.2522173
547,1747638508.7518237,1.8424551,2.666863,-0.07649837,-0.6248204,1.9984632,-5.2522173
548,1747638508.7662044,3.735279,2.6529596,-0.110189356,-1.7906224,2.6459613,-6.431229
549,1747638508.7813306,4.089873,2.303976,0.05308236,-1.818645,3.0174327,-7.2888584
550,1747638508.7823317,4.089873,2.303976,0.05308236,-1.818645,3.0174327,-7.2888584
551,1747638508.796604,3.829705,1.4236807,0.5245733,-0.6790331,3.4737356,-9.321835
552,1747638508.797607,3.829705,1.4236807,0.5245733,-0.6790331,3.4737356,-9.321835
553,1747638508.8120878,3.200065,0.72083473,0.40084654,0.9410102,3.1115031,-9.951618
554,1747638508.8277986,2.6185064,0.13537374,-0.45136783,1.6731106,2.8518932,-9.864878
555,1747638508.8288,2.6185064,0.13537374,-0.45136783,1.8344507,2.755303,-9.497759
556,1747638508.8425488,2.502585,-0.053265303,-0.60875505,1.6705909,2.694829,-9.1220875
557,1747638508.857694,2.0213375,-0.56161815,-0.62049353,0.70232165,2.4877517,-7.2375474
558,1747638508.8586972,2.0213375,-0.56161815,-0.62049353,0.70232165,2.4877517,-7.2375474
559,1747638508.8730657,1.9513029,-0.8354451,-0.41499373,0.36337775,2.4901953,-6.3218875
560,1747638508.8887131,1.9898417,-1.2930328,0.068693034,0.36085802,2.21959,-5.3242974
561,1747638508.889715,1.9898417,-1.2930328,0.068693034,0.36085802,2.21959,-5.3242974
562,1747638508.9040427,1.2274497,-1.7774513,0.4015783,1.3553174,1.8793479,-4.3396115
563,1747638508.9199116,0.8213589,-2.0012448,0.26541182,2.0755827,1.3118708,-3.5363474
564,1747638508.9209156,0.8213589,-2.0012448,0.26541182,2.0755827,1.3118708,-3.5363474
565,1747638508.9350355,0.54631233,-2.0354235,-0.07649837,2.42514,0.8854995,-2.717125
566,1747638508.9501262,0.26833883,-1.9783167,-1.0639036,1.5092509,0.49577892,-0.26694027
567,1747638508.9512231,0.26833883,-1.9783167,-1.0639036,1.5092509,0.49577892,-0.26694027
568,1747638508.9662483,0.13070884,-1.8587364,-1.2069302,0.14782503,0.73156595,1.0024004
569,1747638508.9820395,-0.1387276,-1.629089,-0.7849543,-1.4317496,0.35650572,2.8826647
570,1747638508.9830976,-0.1387276,-1.629089,-0.7849543,-1.4317496,0.35650572,2.8826647
571,1747638508.9977245,0.026495447,-1.5983249,-0.5238415,-1.6928104,-0.7980719,5.0181866
572,1747638508.9987237,0.026495447,-1.5983249,-0.5238415,-1.6928104,-0.7980719,5.0181866
573,1747638509.0129766,0.5321652,-1.6722926,-0.37837574,-1.3918154,-1.4443483,6.3370824
574,1747638509.0281274,1.3306874,-1.604179,-0.41426197,-0.723854,-2.4705718,7.8887105
575,1747638509.0291276,1.3306874,-1.604179,-0.41426197,-0.723854,-2.4705718,7.8887105
576,1747638509.0429657,1.8517239,-1.4728909,-0.58119243,-0.4821112,-2.8976302,8.35723
577,1747638509.058484,2.3124824,-1.1109794,-0.8894117,-0.2602973,-3.4840436,8.905771
578,1747638509.059863,2.4662416,-0.74781805,-1.1793371,-0.5506788,-3.4626641,9.237461
579,1747638509.0737965,2.6199698,-0.47841206,-1.1849471,-1.1319764,-3.331332,9.626571
580,1747638509.089079,3.024841,-0.28559595,-0.82645065,-1.8529288,-3.3356078,9.963758
581,1747638509.090079,3.024841,-0.28559595,-0.82645065,-1.8529288,-3.3356078,9.963758
582,1747638509.104296,3.428005,0.50045604,-0.36105764,-2.125825,-3.2299314,9.875796
583,1747638509.1195571,3.8328762,1.3741655,-0.0799132,-2.256088,-2.9336703,9.231964
584,1747638509.120649,3.8328762,1.3741655,-0.0799132,-2.256088,-2.9336703,9.231964
585,1747638509.134857,3.8961115,1.778305,0.18095568,-2.3894055,-2.7333124,8.412818
586,1747638509.1506474,2.7917788,2.519964,1.2289132,-1.890954,-2.430256,5.9522486
587,1747638509.1517572,2.7917788,2.519964,1.2289132,-1.890954,-2.430256,5.9522486
588,1747638509.1661382,2.0747857,2.7761986,1.6281743,-1.1887088,-2.3673387,5.234503
589,1747638509.1812265,1.2101315,3.1754596,1.6435411,0.15156648,-2.2726572,4.460483
590,1747638509.1822276,1.2101315,3.1754596,1.6435411,0.15156648,-2.2726572,4.460483
591,1747638509.1966562,1.4495358,3.6838126,1.0346335,-0.5045598,-0.4950917,3.1337228
592,1747638509.1976562,1.4495358,3.6838126,1.0346335,-0.5045598,-0.4950917,3.1337228
593,1747638509.2118661,1.4959104,3.7108872,1.3382488,-0.7824953,0.15736952,2.244253
594,1747638509.2271051,1.3079727,3.7057652,1.8107154,0.053067356,0.99361944,-0.07818845
595,1747638509.2281613,1.1112844,3.5981367,2.1013725,0.053067356,0.99361944,-0.07818845
596,1747638509.2419066,0.87895375,3.251836,2.1223495,2.3566487,1.0455414,-2.05741
597,1747638509.257482,0.8003516,3.0141394,1.5446938,3.11555,0.98873264,-2.7617168
598,1747638509.258485,0.8003516,3.0141394,1.5446938,3.11555,0.98873264,-2.7617168
599,1747638509.272491,0.95337886,2.8630939,0.3354464,3.3056,1.1011286,-4.0244145
600,1747638509.2880409,1.9078553,3.2220783,-0.23537959,0.68552333,1.8091005,-4.8960934
601,1747638509.2900403,1.9078553,3.2220783,-0.23537959,0.68552333,1.8091005,-4.8960934
602,1747638509.3039901,2.770802,3.2159803,0.021129282,-0.31076854,2.091312,-5.414703
603,1747638509.3193715,3.6061556,2.8272078,0.46575886,-0.94070476,2.4633179,-6.8655415
604,1747638509.3204365,3.6061556,2.8272078,0.46575886,-0.94070476,2.4633179,-6.8655415
605,1747638509.3347442,3.6454568,2.3408377,0.94874436,-0.4708869,2.7491944,-8.192302
606,1747638509.3500764,3.509046,1.8393147,0.74665946,0.29794076,2.5561666,-8.661509
607,1747638509.35061,3.509046,1.8393147,0.74665946,0.9789591,2.291059,-8.8356
608,1747638509.3648,3.5827394,1.5430473,0.47847307,1.3671526,1.9386002,-8.901571
609,1747638509.3805988,3.2857406,0.82773125,-0.33642206,0.6543701,1.4358728,-8.728702
610,1747638509.3805988,3.2857406,0.82773125,-0.33642206,0.6543701,1.4358728,-8.728702
611,1747638509.3955371,3.0048401,0.485821,-0.43889758,-0.35940725,1.903171,-8.29248
612,1747638509.4114606,2.4591372,-0.21629311,-0.065034285,-2.0254931,3.2581065,-7.194788
613,1747638509.4114933,2.4591372,-0.21629311,-0.065034285,-2.0254931,3.2581065,-7.194788
614,1747638509.4270298,1.9903295,-1.0675318,0.9392316,-1.7949747,4.5976944,-5.4189787
615,1747638509.4276476,1.9903295,-1.0675318,0.9392316,-1.7949747,4.5976944,-5.4189787
616,1747638509.442822,1.9725237,-1.3174244,1.3912092,-0.4621823,4.211639,-4.9107537
617,1747638509.458185,2.0218253,-1.9419426,0.92993236,2.7005558,2.6166406,-4.4239087
618,1747638509.4592402,2.0218253,-1.9419426,0.92993236,2.7005558,2.6166406,-4.4239087
619,1747638509.4735014,1.7819333,-2.451515,-0.083815865,3.9156072,1.5116179,-4.3170104
620,1747638509.4884846,1.2413529,-2.454442,-0.5553068,3.7990882,1.2819394,-3.9523344
621,1747638509.4900534,1.2413529,-2.454442,-0.5553068,3.7990882,1.2819394,-3.9523344
622,1747638509.504188,0.58390605,-2.3863587,-1.0704893,2.3497767,0.7364527,-2.2253928
623,1747638509.5195024,0.664429,-2.565729,-1.0339018,-0.8485432,0.40231928,0.35978904
624,1747638509.5206726,0.664429,-2.565729,-1.0339018,-0.8485432,0.40231928,0.35978904
625,1747638509.5351677,0.74153715,-2.5376787,-0.6263475,-2.1027653,0.12743801,1.199704
626,1747638509.5503929,0.40279788,-2.1105804,0.098725274,-2.227989,-0.6526903,1.8209357
627,1747638509.5514529,0.40279788,-2.1105804,0.098725274,-2.227989,-0.6526903,1.8209357
628,1747638509.5662408,0.09287128,-1.4455721,0.2754124,-0.28648737,-2.4180388,2.841127
629,1747638509.5818586,0.13680676,-1.2793734,0.022348866,0.56343025,-3.002696,3.4281511
630,1747638509.5829601,0.13680676,-1.2793734,0.022348866,0.56343025,-3.002696,3.4281511
631,1747638509.597552,0.21854934,-1.2000395,-0.22367159,1.1141855,-3.5298572,4.691994
632,1747638509.5985525,0.3854798,-1.1475669,-0.5697284,1.1141855,-3.5298572,4.691994
633,1747638509.6124475,0.5246038,-1.0855817,-0.84059787,0.89053893,-3.4608314,5.3359036
634,1747638509.6279752,0.8884665,-0.82544446,-1.0841792,-0.367501,-2.9019063,7.0047383
635,1747638509.6289759,0.8884665,-0.82544446,-1.0841792,-0.367501,-2.9019063,7.0047383
636,1747638509.6432788,1.8219355,-0.54283655,-0.63707983,-0.86473066,-3.082717,8.146488
637,1747638509.6593306,2.8498614,-0.10378654,-0.83767086,0.117893524,-4.4430737,8.443971
638,1747638509.6603622,2.8498614,-0.10378654,-0.83767086,0.117893524,-4.4430737,8.443971
639,1747638509.6745892,3.164697,0.30279207,-1.3165097,0.18890451,-4.381989,8.4641285
640,1747638509.689727,3.093656,1.2211384,-1.2835505,-0.6466582,-3.6153758,8.936314
641,1747638509.6907978,3.093656,1.2211384,-1.2835505,-0.6466582,-3.6153758,8.936314
642,1747638509.7057068,3.1768928,1.5920746,-1.0558543,-1.2971342,-3.318504,9.828151
643,1747638509.7210689,4.745612,2.59195,0.11433593,-0.8734352,-3.4034119,9.26495
644,1747638509.7220733,4.745612,2.59195,0.11433593,-0.8734352,-3.4034119,9.26495
645,1747638509.7362862,5.1029196,3.0827105,0.242941,-0.3319955,-3.2855184,7.9333024
646,1747638509.751473,3.8436391,3.7421389,0.75007427,0.18455222,-1.9794506,4.672447
647,1747638509.7528563,3.8436391,3.7421389,0.75007427,0.18455222,-1.9794506,4.672447
648,1747638509.7672558,2.1628702,3.7553108,1.312607,1.1035719,-0.9086353,3.4257078
649,1747638509.7685356,2.1628702,3.7553108,1.312607,1.1035719,-0.9086353,3.4257078
650,1747638509.7826009,1.8822136,3.7079601,1.3108996,1.6431792,-0.78035736,3.1685412
651,1747638509.7981575,1.4746592,3.5488656,0.43917197,2.2563171,-0.12858334,1.6743324
652,1747638509.7992768,1.4746592,3.5488656,0.43917197,2.2563171,-0.12858334,1.6743324
653,1747638509.8133197,1.2579392,3.454165,0.15510051,1.9011858,0.34917557,0.6725428
654,1747638509.8290005,0.5726553,3.1393294,0.17339426,1.3877686,0.77432525,-0.3702498
655,1747638509.8300042,0.5726553,3.1393294,0.17339426,1.0680665,1.0021713,-1.0635614
656,1747638509.8438196,0.17805916,2.90895,0.253216,0.78333527,1.1487746,-1.789248
657,1747638509.8599675,0.11653119,2.4394107,0.33861732,0.43942824,1.3344722,-2.9150395
658,1747638509.8610013,0.11653119,2.4394107,0.33861732,0.43942824,1.3344722,-2.9150395
659,1747638509.8752668,0.41478032,2.318367,0.3383734,0.4107184,1.4767996,-3.3537042
660,1747638509.8903632,1.121041,2.0079525,0.33056808,0.5035672,1.6728816,-4.4764414
661,1747638509.8913653,1.121041,2.0079525,0.33056808,0.5035672,1.6728816,-4.4764414
662,1747638509.9057834,1.427065,1.810746,0.23586741,0.67804044,1.7278578,-5.5161033
663,1747638509.921173,1.731412,1.5952455,-0.023537958,0.77463067,1.8042138,-6.750702
664,1747638509.9221654,1.731412,1.5952455,-0.023537958,0.77463067,1.8042138,-6.750702
665,1747638509.9363084,2.165553,1.4632256,-0.25074634,0.7446992,1.8439188,-7.0445194
666,1747638509.9518142,2.5387151,1.518869,-0.37374133,0.47806433,1.8793479,-7.771428
667,1747638509.9528146,2.5387151,1.518869,-0.37374133,0.47806433,1.8793479,-7.771428
668,1747638509.9671032,2.8901381,1.4571277,-0.40670058,0.2474695,1.9135554,-7.9974413
669,1747638509.9681573,2.8901381,1.4571277,-0.40670058,0.2474695,1.9135554,-7.9974413
670,1747638509.9825773,3.2811062,1.1467133,-0.3793514,-0.10827268,1.9691424,-8.4562645
671,1747638509.998371,3.2500982,0.3723388,0.24565458,-0.1681357,2.21959,-9.446447
672,1747638509.9994526,3.2500982,0.3723388,0.24565458,-0.1681357,2.21959,-9.446447
673,1747638510.0135577,3.0897534,0.08509643,0.3442274,0.36337775,1.7248036,-9.542351
674,1747638510.0293925,2.6177747,-0.37712565,0.22976951,1.0556204,1.2562838,-9.26075
675,1747638510.0303926,2.6177747,-0.37712565,0.22976951,1.0556204,1.2562838,-9.26075
676,1747638510.044217,1.5593593,-0.89986956,0.23830658,1.14908,1.2758309,-8.869807
677,1747638510.0593786,1.5593593,-0.89986956,0.23830658,1.2307045,1.3222553,-7.1483636
678,1747638510.060418,1.1342125,-1.0235963,0.273705,1.2307045,1.3222553,-7.1483636
679,1747638510.0746784,0.92971885,-1.144152,0.22659859,1.2986612,1.0602018,-6.4843726
680,1747638510.0898063,0.75303173,-1.5792994,-0.38398582,0.40392274,0.3265742,-4.4275737
681,1747638510.09086,0.75303173,-1.5792994,-0.38398582,0.40392274,0.3265742,-4.4275737
682,1747638510.105686,0.6541845,-1.8035808,-0.40913972,-0.75317466,0.37055522,-3.6035407
683,1747638510.1208878,0.16680852,-2.0437167,0.19732858,-2.4585838,0.9026032,-1.9218018
684,1747638510.1218963,0.16680852,-2.0437167,0.19732858,-2.4585838,0.9026032,-1.9218018
685,1747638510.136563,-0.18071176,-1.9419426,1.3341023,-1.3724974,0.37238777,1.5185663
686,1747638510.1375635,-0.18071176,-1.9419426,1.3341023,-1.3724974,0.37238777,1.5185663
687,1747638510.152193,0.08140719,-1.8780059,1.1635131,-0.20799349,-0.30939415,2.7574408
688,1747638510.1678107,0.64028126,-1.812118,0.40962756,1.0556204,-1.0399674,4.0988617
689,1747638510.1688426,0.64028126,-1.812118,0.40962756,1.0556204,-1.0399674,4.0988617
690,1747638510.1826324,0.8084313,-1.718393,-0.022562291,1.0780691,-1.3899829,4.7872863
691,1747638510.1974359,1.0173155,-1.5927149,-0.44158065,0.59389627,-1.673416,5.3517857
692,1747638510.1984372,1.0173155,-1.5927149,-0.44158065,0.59389627,-1.673416,5.3517857
693,1747638510.21314,1.2808979,-1.4543532,-0.67979574,-1.0024004,-1.8884343,6.597303
694,1747638510.228331,1.6025326,-1.3718483,-0.20754258,-2.0510724,-2.1443794,8.337072
695,1747638510.2293308,1.6025326,-1.3718483,-0.20754258,-2.0510724,-2.1443794,8.337072
696,1747638510.243523,1.8495287,-1.2371453,-0.101408355,-1.8236082,-2.6319118,9.075586
697,1747638510.2592561,2.899163,-1.0006682,-0.23245259,-0.92512816,-3.5854445,10.038282
698,1747638510.2603438,2.899163,-1.0006682,-0.23245259,-0.92512816,-3.5854445,10.038282
699,1747638510.2747078,3.7601585,-0.19190145,-0.8723375,-0.24410984,-4.1669707,9.399946
700,1747638510.2899067,3.7601585,-0.19190145,-0.8723375,-0.24410984,-4.1669707,9.399946
701,1747638510.290907,3.686465,0.29840153,-1.0014304,-0.24410984,-4.1669707,9.399946
702,1747638510.3047457,3.5854225,0.7086389,-0.7576357,-0.8522846,-3.6257603,8.993733
703,1747638510.3199594,3.6520424,1.6589688,-0.32248834,-1.1015103,-3.0485096,8.845298
704,1747638510.3209596,3.6520424,1.6589688,-0.32248834,-1.1015103,-3.0485096,8.845298
705,1747638510.3355575,3.8709574,1.9615779,-0.18876101,-1.168169,-2.7656872,8.408542
706,1747638510.351143,3.7799158,2.7244577,0.1211656,-1.1376266,-2.3361855,6.618072
707,1747638510.3522522,3.7799158,2.7244577,0.1211656,-1.1376266,-2.3361855,6.618072
708,1747638510.3662534,2.112593,3.6677139,0.97996575,-0.80990714,-2.1028416,4.4977446
709,1747638510.381402,1.6049716,4.0955133,1.0693002,-0.69835114,-2.13766,4.2552385
710,1747638510.382288,1.6049716,4.0955133,1.0693002,-0.69835114,-2.13766,4.2552385
711,1747638510.3973362,1.6596396,4.3251605,1.1429935,-0.76875126,-1.8328472,3.9821897
712,1747638510.3983364,1.6596396,4.3251605,1.1429935,-0.76875126,-1.8328472,3.9821897
713,1747638510.4124663,2.1567721,4.463065,1.4470966,-0.96628404,-0.5286883,2.561359
714,1747638510.4283366,1.9671575,4.079415,1.8770913,0.8282325,0.6008446,-1.1154834
715,1747638510.429337,1.9671575,4.079415,1.8770913,0.8282325,0.6008446,-1.1154834
716,1747638510.4434412,1.6530536,3.9258995,1.5581093,1.8756065,0.6814765,-2.4153664
717,1747638510.4585333,1.3265408,3.5520363,-0.065034285,2.1727836,1.0650885,-3.8973582
718,1747638510.4596198,1.3265408,3.5520363,-0.065034285,2.1727836,1.0650885,-3.8973582
719,1747638510.4738579,1.5588714,3.4888318,-0.41572547,1.287437,1.4468681,-4.2687535
720,1747638510.4897516,2.388859,3.0470986,-0.36861908,-0.46096063,2.386351,-5.1080575
721,1747638510.4907517,2.388859,3.0470986,-0.36861908,-0.46096063,2.386351,-5.1080575
722,1747638510.5044646,3.2086017,2.2512593,0.15729576,-0.9071082,2.6337442,-5.5637493
723,1747638510.5197399,3.2652209,1.7685179,0.4057249,-0.8796964,3.4657946,-7.451955
724,1747638510.52074,3.2652209,1.7685179,0.4057249,-0.8796964,3.4657946,-7.451955
725,1747638510.5349905,3.1234443,1.4029477,0.56924057,-0.16248538,3.5287118,-8.14038
726,1747638510.5501165,2.8462026,0.71985906,0.2998041,1.326073,3.0553052,-8.8759165
727,1747638510.5511198,2.8462026,0.71985906,0.2998041,1.326073,3.0553052,-8.8759165
728,1747638510.5653384,2.6878092,0.3723388,-0.014269125,1.9684553,2.6612325,-9.130029
729,1747638510.5813837,2.1672606,-0.17333329,-0.5819242,1.8201721,2.283118,-9.040845
730,1747638510.582387,2.1672606,-0.17333329,-0.5819242,1.8201721,2.283118,-9.040845
731,1747638510.5966525,1.6825981,-0.42959824,-0.62390834,0.9322293,2.3716908,-8.282096
732,1747638510.5976524,1.6825981,-0.42959824,-0.62390834,0.9322293,2.3716908,-8.282096
733,1747638510.6118364,1.3555669,-0.56869173,-0.42426255,0.14347275,2.771185,-7.374988
734,1747638510.6269355,1.292362,-0.60433406,-0.15555786,-0.19241689,2.8066905,-6.7445936
735,1747638510.6280212,1.292362,-0.60433406,-0.15555786,-0.19241689,2.8066905,-6.7445936
736,1747638510.6424658,1.3008991,-0.79882705,0.21196358,-0.2267007,2.6367986,-6.123362
737,1747638510.6576908,1.0934784,-1.1749161,0.6549163,1.215128,1.9489845,-5.3884363
738,1747638510.659755,1.0934784,-1.1749161,0.6549163,1.215128,1.9489845,-5.3884363
739,1747638510.6732907,1.0456402,-1.2078754,0.49042496,2.0874178,1.1750411,-4.839285
740,1747638510.6893985,1.1088451,-1.1924781,-0.21586627,2.3342001,0.42492062,-3.8417711
741,1747638510.6904008,1.1088451,-1.1924781,-0.21586627,2.3342001,0.42492062,-3.8417711
742,1747638510.7054691,1.1125039,-1.2005273,-0.4367023,1.8824786,0.56724805,-3.4288385
743,1747638510.7206624,0.78376526,-1.2686411,-0.17924827,0.46180052,1.3576844,-2.429416
744,1747638510.7216654,0.78376526,-1.2686411,-0.17924827,-0.10514209,1.6197379,-1.7697009
745,1747638510.7353754,0.72763395,-1.3364804,0.008902958,-0.2839676,1.5366626,-1.1997803
746,1747638510.750584,0.86553836,-1.4043198,0.09018819,-0.17187715,0.6368846,0.03420745
747,1747638510.751683,0.86553836,-1.4043198,0.09018819,-0.17187715,0.6368846,0.03420745
748,1747638510.766258,0.86651397,-1.3389196,-0.08210845,-0.23601611,0.1866902,0.6810947
749,1747638510.767375,0.86651397,-1.3389196,-0.08210845,-0.23601611,0.1866902,0.6810947
750,1747638510.7817276,0.5795155,-1.2376332,-0.074059196,-0.5008184,-0.104760304,1.5020734
751,1747638510.7967002,0.18684018,-1.1185409,-0.025733208,-0.6036698,-0.8090672,3.3548496
752,1747638510.7977004,0.18684018,-1.1185409,-0.025733208,-0.6036698,-0.8090672,3.3548496
753,1747638510.811952,0.25419167,-1.0894843,-0.040612124,-0.62543124,-1.2024528,4.344422
754,1747638510.8279555,0.38206497,-1.0780202,-0.10409144,-0.8217423,-1.8908777,5.9608
755,1747638510.828958,0.64564747,-1.052653,-0.11726294,-0.8217423,-1.8908777,5.9608
756,1747638510.8427124,0.877978,-1.0223768,-0.12872702,-0.91146046,-2.1804192,6.5398836
757,1747638510.857574,1.6994286,-0.7141575,-0.24147749,-1.2397909,-2.8817482,8.130606
758,1747638510.858603,1.6994286,-0.7141575,-0.24147749,-1.2397909,-2.8817482,8.130606
759,1747638510.8728755,2.0457292,-0.5037794,-0.3398369,-1.4984083,-3.1040967,8.690753
760,1747638510.8880224,2.7144268,-0.2924561,-0.273705,-2.1551454,-3.2818532,9.399336
761,1747638510.8890276,2.7144268,-0.2924561,-0.273705,-2.1551454,-3.2818532,9.399336
762,1747638510.903152,3.506851,0.13342242,0.079211935,-2.3937576,-3.4877088,9.475692
763,1747638510.9183798,3.9312356,0.82895076,0.37596706,-2.1077285,-3.8206205,8.784823
764,1747638510.9195566,3.9312356,0.82895076,0.37596706,-2.1077285,-3.8206205,8.784823
765,1747638510.933677,3.595667,1.6318635,0.49969378,-1.8902669,-3.771142,8.347457
766,1747638510.9488478,3.1690874,2.0196605,0.63683593,-1.2559783,-3.2647495,6.9790826
767,1747638510.9498491,3.1690874,2.0196605,0.63683593,-1.2559783,-3.2647495,6.9790826
768,1747638510.964157,2.919896,2.2939754,0.790351,-1.0603545,-3.2116058,6.720694
769,1747638510.9796216,2.7290616,2.805743,0.77839905,-0.8092199,-2.8255503,6.065866
770,1747638510.980623,2.7290616,2.805743,0.77839905,-0.8092199,-2.8255503,6.065866
771,1747638510.9955628,2.4403558,3.3104067,0.932402,-0.98186064,-2.2030206,4.949772
772,1747638511.0106401,1.7665361,3.7350657,1.1286024,-1.3033954,-1.14992,3.3676772
773,1747638511.0116704,1.7665361,3.7350657,1.1286024,-1.3033954,-1.14992,3.3676772
774,1747638511.0254521,0.89871097,3.8910198,1.628906,-1.1532032,-0.1279725,1.6089717
775,1747638511.0404825,0.43478146,3.8409863,1.9066355,-0.22601348,0.5861843,0.50639236
776,1747638511.0414827,0.43478146,3.8409863,1.9066355,-0.22601348,0.5861843,0.50639236
777,1747638511.055655,0.43819633,3.7675064,1.940784,0.77463067,0.95819026,-0.19486028
778,1747638511.0704708,0.62049353,3.594478,1.3199246,2.6694026,1.3265312,-1.6420338
779,1747638511.07156,0.62049353,3.594478,1.3199246,2.6694026,1.3265312,-1.6420338
780,1747638511.085959,1.1874168,3.6218271,-0.14824036,3.1573167,1.3766207,-3.5033617
781,1747638511.1011639,1.6140271,3.7377486,-0.59021735,2.3553507,1.2013075,-4.1551356
782,1747638511.1021664,1.6140271,3.7377486,-0.59021735,2.3553507,1.2013075,-4.1551356
783,1747638511.1164713,2.5955782,3.5876484,-0.8279142,1.4382398,1.2135245,-4.589448
784,1747638511.1175888,2.5955782,3.5876484,-0.8279142,1.4382398,1.2135245,-4.589448
785,1747638511.131806,2.8733077,3.183509,-0.55408716,-1.1126583,1.8500273,-6.22293
786,1747638511.1471808,2.7332084,2.6468618,0.059668116,-1.8959172,2.4462142,-7.1208754
787,1747638511.1482882,2.7332084,2.6468618,0.059668116,-1.8959172,2.4462142,-7.1208754
788,1747638511.1625586,2.5528624,1.9322774,0.9680138,-1.3251568,3.0064375,-7.5741243
789,1747638511.1777456,2.7890956,1.1759832,1.1132356,1.7590874,2.7064352,-7.663308
790,1747638511.1788108,2.7890956,1.1759832,1.1132356,1.7590874,2.7064352,-7.663308
791,1747638511.193655,2.945294,0.89191175,0.69004023,2.706817,2.3497005,-7.754324
792,1747638511.2097466,2.8174205,0.42212826,0.025519783,3.2700944,2.0894794,-7.9895005
793,1747638511.2107751,2.8174205,0.42212826,0.025519783,3.2700944,2.0894794,-7.9895005
794,1747638511.2253613,2.39764,-0.008872469,-0.45283127,2.6694026,1.8243717,-7.5545774
795,1747638511.2405355,2.2431798,-0.21531744,-0.54384273,2.6694026,1.8243717,-7.5545774
796,1747638511.2415392,2.2431798,-0.21531744,-0.54384273,2.6694026,1.8243717,-7.5545774
797,1747638511.2554622,2.2431798,-0.21531744,-0.54384273,2.0712304,2.0491636,-7.0805597
798,1747638511.2711504,2.1057632,-0.9965216,-0.40109047,0.5640411,2.2140923,-5.9376645
799,1747638511.2722268,2.1057632,-0.9965216,-0.40109047,0.5640411,2.2140923,-5.9376645
800,1747638511.2864256,1.8346193,-1.47533,-0.1987616,0.08926006,1.7565676,-5.4250875
801,1747638511.2874296,1.8346193,-1.47533,-0.1987616,0.08926006,1.7565676,-5.4250875
802,1747638511.3013947,1.3980389,-1.9563642,-0.064302534,-0.1506502,1.2336824,-4.4190216
803,1747638511.317341,1.1698549,-2.5379224,-0.05454587,0.008246438,0.86839575,-2.820358
804,1747638511.3184428,1.1698549,-2.5379224,-0.05454587,0.008246438,0.86839575,-2.820358
805,1747638511.3330007,1.078569,-2.6775038,-0.10701844,0.14652699,0.39376742,-2.0500798
806,1747638511.3481581,1.0056075,-2.776351,-0.2739489,0.1577513,-0.2275406,-1.2126082
807,1747638511.3491583,0.9135899,-2.7595208,-0.38865072,0.03504736,-0.59527063,-0.55167145
808,1747638511.3635037,0.79644895,-2.5896633,-0.5131092,-0.27839363,-0.9269607,0.5393781
809,1747638511.3786902,0.5665574,-2.257266,-0.5350617,-0.71392775,-1.5714046,2.4440763
810,1747638511.3797853,0.5665574,-2.257266,-0.5350617,-0.71392775,-1.5714046,2.4440763
811,1747638511.393845,0.5026208,-2.082774,-0.5189632,-0.7880693,-1.9263068,3.0543127
812,1747638511.4097843,0.4911567,-1.7681825,-0.5043282,-0.8603784,-2.794397,4.743916
813,1747638511.4108734,0.4911567,-1.7681825,-0.5043282,-0.8603784,-2.794397,4.743916
814,1747638511.424902,0.7259265,-1.106345,-0.6246401,-1.044167,-3.0802736,6.8477507
815,1747638511.440646,1.0351518,-0.7507755,-0.513841,-1.1563338,-3.3478248,7.7708173
816,1747638511.4416494,1.0351518,-0.7507755,-0.513841,-1.1563338,-3.3478248,7.7708173
817,1747638511.4564521,2.0569491,0.04994194,-0.4721007,-1.297745,-4.1284876,9.166603
818,1747638511.472511,2.722232,0.48362577,-0.54579407,-1.5102435,-4.1474237,9.331532
819,1747638511.4735115,2.722232,0.48362577,-0.54579407,-1.5102435,-4.1474237,9.331532
820,1747638511.4876738,3.0524342,0.6764114,-0.45039213,-1.9862462,-3.7418213,9.149499
821,1747638511.4887564,3.0524342,0.6764114,-0.45039213,-1.9862462,-3.7418213,9.149499
822,1747638511.5032134,3.2376585,1.2962952,0.14778301,-2.3115225,-3.5072558,8.769552
823,1747638511.5165362,3.4741356,2.2773585,0.9594767,-1.5463598,-3.9195778,7.762265
824,1747638511.517757,3.4741356,2.2773585,0.9594767,-1.5463598,-3.9195778,7.762265
825,1747638511.5319738,3.2191207,2.4403863,1.1715623,-0.8584695,-3.714333,7.00596
826,1747638511.547615,2.2575707,2.8850465,1.2447678,0.22815146,-3.3991358,6.2472878
827,1747638511.5483768,2.2575707,2.8850465,1.2447678,0.22815146,-3.3991358,6.2472878
828,1747638511.562926,1.7077217,3.2215905,0.8352622,0.16897562,-2.598926,6.2918797
829,1747638511.5786786,1.7865677,3.4968808,0.84355533,-0.4852418,-1.8676655,6.2197995
830,1747638511.5786786,1.7865677,3.4968808,0.84355533,-0.4852418,-1.8676655,6.2197995
831,1747638511.5939026,2.362028,3.862939,1.6925988,-1.1581664,-0.13713521,3.8197043
832,1747638511.6097524,2.1465278,4.350071,3.1227126,0.19760908,0.89588386,1.8789662
833,1747638511.610329,2.1465278,4.350071,3.1227126,0.19760908,0.89588386,1.8789662
834,1747638511.625233,2.0571933,4.2485404,3.3565068,1.9298192,1.5244457,0.39888325
835,1747638511.6406267,1.811691,3.8409863,2.6150916,5.1735706,1.9905221,-2.2785366
836,1747638511.6416276,1.811691,3.8409863,2.6150916,5.1735706,1.9905221,-2.2785366
837,1747638511.6559134,1.5869218,2.9021206,-0.18241918,6.476432,1.9477628,-5.147152
838,1747638511.6711898,1.577897,2.717384,-0.76470923,5.960495,1.7504592,-5.695158
839,1747638511.6724317,1.577897,2.717384,-0.76470923,5.960495,1.7504592,-5.695158
840,1747638511.6866322,1.8073007,2.178542,-1.5944833,4.767968,1.4523658,-6.207048
841,1747638511.6877146,1.8073007,2.178542,-1.5944833,2.3684838,1.1451095,-6.663351
842,1747638511.702473,1.886604,2.03893,-1.5224669,1.5678159,1.0852466,-6.7562
843,1747638511.717578,2.060608,1.6770186,-1.0936918,-0.10582929,0.967353,-6.903414
844,1747638511.7187014,2.060608,1.6770186,-1.0936918,-0.10582929,0.967353,-6.903414
845,1747638511.7331405,2.3061407,1.125462,-0.35178882,-1.4223578,0.82197136,-6.977937
846,1747638511.7489512,2.3129702,0.47484478,0.62244487,-1.474738,0.99300855,-6.971218
847,1747638511.7499516,2.3129702,0.47484478,0.62244487,-1.474738,0.99300855,-6.971218
848,1747638511.7645996,2.2424479,0.34136137,0.83331084,-0.9438354,1.0266051,-6.8374424
849,1747638511.780289,2.1272583,0.11439692,0.9767948,0.2911451,0.8745042,-6.4141254
850,1747638511.7812905,2.1272583,0.11439692,0.9767948,0.2911451,0.8745042,-6.4141254
851,1747638511.796301,2.5374956,-0.39444375,0.522378,1.1902359,0.38888064,-5.7947264
852,1747638511.8115318,2.6246045,-0.70293736,0.25370383,1.0755494,0.4053735,-5.644458
853,1747638511.8126311,2.6246045,-0.70293736,0.25370383,1.0755494,0.4053735,-5.644458
854,1747638511.8267722,2.5638387,-1.3674577,0.011829958,0.07673769,0.88672113,-5.2436657
855,1747638511.8278785,2.5638387,-1.3674577,0.011829958,0.07673769,0.88672113,-5.2436657
856,1747638511.8425803,2.0769808,-1.8089471,0.27150977,-0.83915144,2.0980313,-4.6083846
857,1747638511.857722,1.7379978,-2.0451803,0.6153712,-0.8403731,2.6038127,-3.982266
858,1747638511.8587246,1.7379978,-2.0451803,0.6153712,-0.8403731,2.6038127,-3.982266
859,1747638511.8730059,1.3924288,-2.3548934,0.7256826,0.17393875,2.1652246,-2.572354
860,1747638511.8886018,1.3723972,-2.4490757,0.5026208,0.7671478,1.4413705,-1.8497219
861,1747638511.8896024,1.2794344,-2.4727662,-0.10165227,0.9359707,0.85984385,-1.2883532
862,1747638511.9043262,1.0329262,-2.3656259,-0.54091567,0.4966952,0.5226562,-0.71598935
863,1747638511.9195755,0.39011422,-2.117654,-0.6871133,-0.5562528,0.37788537,0.24372806
864,1747638511.920576,0.39011422,-2.117654,-0.6871133,-0.5562528,0.37788537,0.24372806
865,1747638511.9348288,-0.24855109,-1.760865,-0.38130274,-0.9681165,0.14026581,1.0891407
866,1747638511.950127,-0.15653352,-1.614454,-0.36569205,-0.6447493,-1.1041064,3.3462977
867,1747638511.9511302,-0.15653352,-1.614454,-0.36569205,-0.6447493,-1.1041064,3.3462977
868,1747638511.9651494,-0.0015854583,-1.4997522,-0.4674663,-0.1369825,-1.7870337,4.177661
869,1747638511.9805322,0.32276276,-1.2378771,-1.0231694,0.35719293,-2.6942182,5.4391365
870,1747638511.9815323,0.32276276,-1.2378771,-1.0231694,0.35719293,-2.6942182,5.4391365
871,1747638511.9963944,0.65857506,-0.94234157,-1.3160219,0.09483404,-3.1407475,6.653501
872,1747638512.0114071,1.2508656,-0.18726702,-1.4736835,-0.5706077,-3.4480038,8.327909
873,1747638512.0124488,1.2508656,-0.18726702,-1.4736835,-0.5706077,-3.4480038,8.327909
874,1747638512.026999,3.1117365,0.92877364,-1.4182839,-1.6142403,-3.3374403,9.832426
875,1747638512.0291288,3.1117365,0.92877364,-1.4182839,-1.6142403,-3.3374403,9.832426
876,1747638512.04231,4.041547,1.711167,-1.1010094,-1.8485765,-3.2726905,9.456144
877,1747638512.057407,4.375652,2.0679865,-0.85501945,-1.7768784,-3.2329855,8.859958
878,1747638512.0584097,4.375652,2.0679865,-0.85501945,-1.4416759,-3.2555869,7.7903643
879,1747638512.072678,4.053255,2.7908335,-0.20071293,-1.0479084,-3.3881407,7.0719314
880,1747638512.0887856,3.0131333,3.6062164,0.061375532,-0.025426516,-3.4608314,6.1562715
881,1747638512.0897887,3.0131333,3.6062164,0.061375532,-0.025426516,-3.4608314,6.1562715
882,1747638512.1049001,2.9836192,3.7326262,0.10653061,-0.15691139,-2.9782622,5.894829
883,1747638512.1203072,2.8464465,3.5249314,0.3957243,-0.8515974,-1.7436635,4.8184395
884,1747638512.1213098,2.8464465,3.5249314,0.3957243,-0.8515974,-1.7436635,4.8184395
885,1747638512.1361837,2.2746449,3.2872345,1.1171383,-0.9213867,-1.0082034,3.6431694
886,1747638512.1521835,1.6933304,2.9204447,1.466366,-0.45156884,-0.28679278,2.3450427
887,1747638512.1532922,1.6933304,2.9204447,1.466366,-0.45156884,-0.28679278,2.3450427
888,1747638512.167797,1.2272058,2.666863,1.6420776,0.38330665,0.1311031,1.1709942
889,1747638512.168978,1.2272058,2.666863,1.6420776,0.38330665,0.1311031,1.1709942
890,1747638512.1837482,0.35230714,2.3227575,1.3394684,1.4170129,0.5721348,0.00061084726
891,1747638512.1994696,-0.08552328,2.1199713,0.79742455,1.840101,0.80242425,-0.50463617
892,1747638512.2005098,-0.08552328,2.1199713,0.79742455,2.0114436,0.9221503,-0.8583168
893,1747638512.214592,-0.21754318,1.9996594,0.1724186,1.7372496,1.2074159,-1.6377579
894,1747638512.2302837,-0.0638147,1.9991715,0.007683375,0.85808766,1.5635399,-2.2956405
895,1747638512.2313666,-0.0638147,1.9991715,0.007683375,0.85808766,1.5635399,-2.2956405
896,1747638512.2453337,0.07165052,2.003562,0.0023172083,0.47806433,1.7333554,-2.6016748
897,1747638512.2602935,0.5699723,2.0257585,0.17022336,-0.09025268,2.0619912,-3.394631
898,1747638512.2613811,0.5699723,2.0257585,0.17022336,-0.09025268,2.0619912,-3.394631
899,1747638512.2763202,1.3980389,2.0738404,0.22245201,-0.20860434,1.9856354,-4.9638977
900,1747638512.2776976,1.3980389,2.0738404,0.22245201,-0.20860434,1.9856354,-4.9638977
901,1747638512.2919307,1.737266,2.178542,0.17217468,-0.3425326,2.319158,-5.427531
902,1747638512.3075018,2.1008847,2.162413,0.18632185,-0.5463265,2.8573909,-6.371366
903,1747638512.308612,2.5885048,2.089451,0.20684133,-0.5463265,2.8573909,-6.371366
904,1747638512.3229854,3.124908,1.8300457,0.09384694,-0.6204681,3.1725879,-7.194177
905,1747638512.3382714,3.4058087,1.3270591,0.117506854,-0.6216898,3.7657206,-8.1135025
906,1747638512.3393338,3.4058087,1.3270591,0.117506854,-0.6216898,3.7657206,-8.1135025
907,1747638512.3537142,3.4148333,0.5834487,0.42892745,0.0025961008,4.0509863,-9.0493965
908,1747638512.368821,2.9050171,-0.63336015,0.29736492,2.022668,2.9264164,-9.649249
909,1747638512.3698893,2.9050171,-0.63336015,0.29736492,2.022668,2.9264164,-9.649249
910,1747638512.3846016,2.6260679,-1.0245719,0.026983283,2.5061536,2.2055404,-9.437896
911,1747638512.4004617,2.0328016,-1.3584329,-0.42231122,2.197752,1.7877209,-8.5289545
912,1747638512.4014623,2.0328016,-1.3584329,-0.42231122,2.197752,1.7877209,-8.5289545
913,1747638512.4155853,1.3838917,-1.5663719,-0.40865192,1.4438138,2.0564938,-7.4220233
914,1747638512.4310298,0.66638035,-1.5736895,-0.23928225,0.057419643,1.9043927,-4.997494
915,1747638512.4323084,0.66638035,-1.5736895,-0.23928225,0.057419643,1.9043927,-4.997494
916,1747638512.4462562,0.46798465,-1.7013187,0.058692448,-1.1581664,2.059548,-3.0366745
917,1747638512.4619856,0.03722778,-1.8250456,0.5428975,-1.4896274,1.9734185,-1.6884582
918,1747638512.4630725,0.03722778,-1.8250456,0.5428975,-1.4896274,1.9734185,-1.6884582
919,1747638512.4767356,-0.19802985,-1.8028492,0.6568676,-1.2074159,1.358906,-0.71965444
920,1747638512.4772887,-0.19802985,-1.8028492,0.6568676,-1.2074159,1.358906,-0.71965444
921,1747638512.4923537,-0.5084443,-1.7193686,0.3942608,-0.4864635,-0.033902023,1.2730057
922,1747638512.5078328,-0.28297383,-1.4582559,-0.07283961,-0.22601348,-1.2519314,4.524011
923,1747638512.508931,-0.28297383,-1.4582559,-0.07283961,-0.22601348,-1.2519314,4.524011
924,1747638512.52363,0.023080615,-1.4455721,-0.21781757,-0.3655921,-1.605612,5.5631385
925,1747638512.5392475,0.9726482,-1.4326141,-0.36642382,-0.7046123,-1.9544058,6.737187
926,1747638512.540311,0.9726482,-1.4326141,-0.36642382,-0.7046123,-1.9544058,6.737187
927,1747638512.5551805,1.7540963,-1.1734526,-0.3298363,-0.112624966,-2.8939652,6.872795
928,1747638512.570378,1.7540963,-1.1734526,-0.3298363,0.4911212,-3.374702,6.6932063
929,1747638512.5714545,1.8436747,-0.97798395,-0.40474924,0.4911212,-3.374702,6.6932063
930,1747638512.5857751,1.8422111,-0.7861435,-0.5423792,0.95964104,-3.7155547,6.569815
931,1747638512.6004708,1.6545173,-0.2953831,-1.3404136,1.3765444,-3.8536062,6.6003575
932,1747638512.601471,1.6545173,-0.2953831,-1.3404136,1.3765444,-3.8536062,6.6003575
933,1747638512.6165237,1.595459,0.035306938,-1.5910685,1.3765444,-3.8536062,6.6003575
934,1747638512.617628,1.595459,0.035306938,-1.5910685,1.3765444,-3.8536062,6.6003575
935,1747638512.6317022,2.0964944,0.23300138,-1.3672749,-0.881529,-3.0002527,7.5062437
936,1747638512.6473079,2.5631068,1.0790873,-0.77666116,-1.3089694,-3.3417163,6.637008
937,1747638512.6483626,2.5631068,1.0790873,-0.77666116,-1.3089694,-3.3417163,6.637008
938,1747638512.6624398,2.5877728,1.4827695,-0.5287199,-1.1438115,-3.4877088,6.218578
939,1747638512.6783197,2.533593,1.7756219,-0.35837457,-0.8734352,-3.4437277,5.6730914
940,1747638512.6793873,2.533593,1.7756219,-0.35837457,-0.8734352,-3.4437277,5.6730914
941,1747638512.6936436,2.1648214,2.0481987,-0.14628904,-0.6628456,-2.9929225,4.8905196
942,1747638512.709029,1.7653164,2.444289,0.3676739,-0.51021016,-2.5194395,4.463537
943,1747638512.7100294,1.7653164,2.444289,0.3676739,-0.36498123,-2.345959,4.4818625
944,1747638512.7250335,1.571555,3.2684531,0.7637641,-0.14813046,-2.0832946,4.5539427
945,1747638512.7409432,2.4662416,4.0981965,0.74202496,-0.0029778804,-1.397924,3.9418738
946,1747638512.7420442,2.4662416,4.0981965,0.74202496,-0.0029778804,-1.397924,3.9418738
947,1747638512.756448,3.4345908,4.3686085,0.80230296,-0.2727433,-0.47982052,2.4703426
948,1747638512.7574484,3.4345908,4.3686085,0.80230296,-0.2727433,-0.47982052,2.4703426
949,1747638512.7723646,3.1314936,4.183628,1.3267543,0.12911785,0.47317755,-0.81738997
950,1747638512.787163,1.5847266,3.5742328,1.0539334,1.663108,1.0931876,-3.4917557
951,1747638512.78828,1.5847266,3.5742328,1.0539334,1.663108,1.0931876,-3.4917557
952,1747638512.8032355,1.3968194,3.2969909,0.6117125,1.8251352,1.2361258,-3.7959576
953,1747638512.8184254,1.8038857,2.8823633,-0.34837398,1.00576,1.6001908,-4.2351565
954,1747638512.8198469,1.8038857,2.8823633,-0.34837398,1.00576,1.6001908,-4.2351565
955,1747638512.8337512,2.0779567,2.7320192,-0.50481606,0.37521294,1.8182632,-4.49721
956,1747638512.849236,2.644636,2.0481987,-0.52530503,-1.4709965,2.4541552,-6.011577
957,1747638512.8502388,2.644636,2.0481987,-0.52530503,-1.4709965,2.4541552,-6.011577
958,1747638512.8649275,2.6099694,1.8031846,-0.4018222,-1.8267387,2.7846236,-6.435505
959,1747638512.880102,2.3722727,1.0266452,-0.019635292,-1.9793742,3.4853418,-7.130649
960,1747638512.8811023,2.3722727,1.0266452,-0.019635292,-1.9793742,3.4853418,-7.130649
961,1747638512.895264,2.2497654,0.5290248,0.13509935,-1.3027081,3.8872793,-7.475167
962,1747638512.9113681,2.1362832,-0.1311357,0.17729694,-0.10888352,3.7095227,-7.7005696
963,1747638512.912403,2.1362832,-0.1311357,0.17729694,-0.10888352,3.7095227,-7.7005696
964,1747638512.9265463,2.0755174,-0.4923153,-0.009634708,1.0226346,3.5708604,-7.871607
965,1747638512.92765,1.9995983,-0.66680723,-0.0843037,1.0226346,3.5708604,-7.871607
966,1747638512.9419053,1.8490409,-0.91718763,-0.19632243,1.4836717,3.3344624,-7.87405
967,1747638512.9572272,1.7084533,-1.067044,-0.36983865,1.6463097,3.148154,-7.772039
968,1747638512.9582293,1.7084533,-1.067044,-0.36983865,1.631344,3.1224985,-7.682855
969,1747638512.9725256,1.4853915,-1.2510486,-0.48551616,1.4438138,3.1353264,-7.296189
970,1747638512.9877763,1.1317734,-1.5085331,-0.34008083,0.9820897,2.639242,-6.2724085
971,1747638512.988867,1.1317734,-1.5085331,-0.34008083,0.9820897,2.639242,-6.2724085
972,1747638513.0037155,1.0556408,-1.5751529,-0.15680793,0.7702784,2.2586842,-5.736696
973,1747638513.0186124,0.7266582,-1.629089,-0.012073875,0.3733804,1.9080578,-4.96573
974,1747638513.0196636,0.7266582,-1.629089,-0.012073875,0.3733804,1.9080578,-4.96573
975,1747638513.033895,0.19854817,-1.551737,0.2693145,0.18829367,2.0015173,-3.9889853
976,1747638513.0491793,-0.25538075,-1.5109723,0.4672224,0.38208497,1.8940083,-3.0806553
977,1747638513.0501804,-0.25538075,-1.5109723,0.4672224,0.6543701,1.6203487,-2.284645
978,1747638513.0644305,-0.29029134,-1.5275586,0.31251824,0.9746068,1.09502,-1.1020448
979,1747638513.0800095,0.049423616,-1.4763057,-0.2900474,0.40758783,0.47073418,1.6169127
980,1747638513.0810118,0.049423616,-1.4763057,-0.2900474,0.40758783,0.47073418,1.6169127
981,1747638513.0952613,0.18391317,-1.4841111,-0.34227607,-0.060932014,0.37605286,2.29984
982,1747638513.1106102,0.44502598,-1.6278694,-0.28760824,-1.0466105,-0.049173206,3.6456127
983,1747638513.1116586,0.44502598,-1.6278694,-0.28760824,-1.0466105,-0.049173206,3.6456127
984,1747638513.1258812,0.33934906,-1.5285343,0.027958948,-1.487184,-1.33745,5.842296
985,1747638513.1409647,0.55411774,-1.5251195,-0.013049542,-1.4142641,-1.861557,7.0835376
986,1747638513.142026,0.55411774,-1.5251195,-0.013049542,-1.4142641,-1.861557,7.0835376
987,1747638513.1566672,0.802059,-1.5378032,-0.04381353,-1.2522368,-2.1834736,9.339473
988,1747638513.1576674,1.1847337,-1.5104845,-0.01841571,-1.2522368,-2.1834736,9.339473
989,1747638513.185487,3.044141,-1.4365473,-0.16558893,-0.4653129,-3.5414634,11.429869
990,1747638513.185487,3.044141,-1.4365473,-0.16558893,-0.4653129,-3.5414634,11.429869
991,1747638513.185487,3.044141,-1.4365473,-0.16558893,-0.4653129,-3.5414634,11.429869
992,1747638513.2054012,4.297324,-0.9760021,-0.92529786,-0.4871507,-3.7815263,10.786036
993,1747638513.2253268,3.7940934,0.41968912,-0.8647761,-1.64295,-3.382643,9.627182
994,1747638513.2253268,3.7940934,0.41968912,-0.8647761,-1.64295,-3.382643,9.627182
995,1747638513.2407324,3.5066073,0.9839294,-0.8630686,-2.7370539,-2.7882886,10.18122
996,1747638513.241731,3.5693243,1.2243092,-0.71077317,-2.7370539,-2.7882886,10.18122
997,1747638513.2485058,4.1025567,1.3631588,-0.25781992,-3.2598627,-2.2928152,9.851363
998,1747638513.2616727,4.413489,1.5657316,0.26980233,-3.203741,-2.0368702,8.698083
999,1747638513.2853742,3.8040938,2.3830354,1.5429864,-1.1008232,-2.206075,5.433028
