id,timestamp,acc_x,acc_y,acc_z,gyro_x,gyro_y,gyro_z
0,1747638679.3520818,0.100432694,0.4367633,0.86550784,0.7446992,0.06810947,-0.5296809
1,1747638679.3693311,-0.04329521,0.54878205,0.8091326,0.5727457,-0.6135961,-0.5993175
2,1747638679.3845818,-0.025733208,0.6459218,0.7578796,-0.057190575,-1.3258439,0.14782503
3,1747638679.3855836,-0.025733208,0.6459218,0.7578796,-0.057190575,-1.3258439,0.14782503
4,1747638679.400539,0.049423616,0.5807656,0.8979792,-0.2734305,-1.2904148,0.51127917
5,1747638679.401542,0.049423616,0.5807656,0.8979792,-0.2734305,-1.2904148,0.51127917
6,1747638679.4166086,0.25833824,0.56049,1.0497868,-0.065284304,-0.54151607,0.8765658
7,1747638679.4317467,0.35279498,0.43505585,1.0341457,0.22066857,0.38399386,0.76966757
8,1747638679.432749,0.35279498,0.43505585,1.0341457,0.2518218,0.7877639,0.22173755
9,1747638679.446935,0.36425903,0.33157423,0.99511904,0.16958646,0.8305232,-0.42033926
10,1747638679.46245,0.2371175,0.61296254,0.98069745,0.08926006,0.66131854,-0.6445202
11,1747638679.4635222,0.14534386,0.5902783,0.9724043,0.08926006,0.66131854,-0.6445202
12,1747638679.4777076,0.1680281,0.5324396,0.97142863,-0.13133216,-0.04795151,-0.6365792
13,1747638679.4937727,0.26272872,0.47606438,0.96679425,-0.11766446,-0.17378604,-0.7184327
14,1747638679.4948144,0.26272872,0.47606438,0.96679425,-0.11766446,-0.17378604,-0.7184327
15,1747638679.5089302,0.1006766,0.4989925,0.7774234,-0.09147438,-0.07849387,-0.90351945
16,1747638679.524228,0.019177949,0.5292687,0.6129321,-0.82853794,-0.10659285,-0.67750597
17,1747638679.5252316,0.019177949,0.5292687,0.6129321,-0.82853794,-0.10659285,-0.67750597
18,1747638679.5393748,0.052838445,0.49191895,0.74422026,-1.1264024,-0.21532366,-0.5107447
19,1747638679.5546691,0.18635234,0.40968856,0.9936555,-1.0398147,-0.40957308,-0.4130091
20,1747638679.5558531,0.18635234,0.40968856,0.9936555,-1.0398147,-0.40957308,-0.4130091
21,1747638679.570108,0.23342825,0.39209604,1.0036561,-0.64413846,-0.5036436,-0.46493113
22,1747638679.5716102,0.22489117,0.36380172,0.87749016,-0.13255386,-0.6911737,-0.6225297
23,1747638679.5848017,0.22489117,0.36380172,0.87749016,-0.13255386,-0.6911737,-0.6225297
24,1747638679.6006691,0.16241801,0.37477797,0.8127913,-0.08773294,-0.5170822,-0.85281914
25,1747638679.6016693,0.15973492,0.4031028,0.6922355,-0.12949961,-0.5390727,-0.9016869
26,1747638679.615734,0.18805976,0.36160645,0.7164138,-0.2192178,-0.42056835,-0.9145147
27,1747638679.6309526,0.17217468,0.32206148,0.681991,-0.22540264,-0.45660833,-0.84793234
28,1747638679.631997,0.17217468,0.32206148,0.681991,-0.22540264,-0.45660833,-0.84793234
29,1747638679.646845,0.014787449,0.3838029,0.69808954,-0.32512346,-0.8756496,-0.33176643
30,1747638679.66246,-0.010122542,0.36721656,0.56021565,-0.5954997,-1.6398195,0.37689275
31,1747638679.663491,-0.010122542,0.36721656,0.56021565,-0.5954997,-1.6398195,0.37689275
32,1747638679.6779003,-0.043051295,0.3152318,0.52530503,-0.5954997,-1.6398195,0.37689275
33,1747638679.6935577,0.0521067,0.29571846,0.58411944,-0.43790114,-2.5879307,-0.10262234
34,1747638679.6947863,0.0521067,0.29571846,0.58411944,-0.43790114,-2.5879307,-0.10262234
35,1747638679.708197,0.27419284,-0.020824386,0.5838755,-0.250371,-4.463232,-0.17653486
36,1747638679.7234914,0.201963,-0.042289052,0.45087993,-0.13072132,-5.0001664,-0.44599485
37,1747638679.72454,0.05039928,0.046527103,0.31739658,-0.027946262,-5.252523,-0.6921663
38,1747638679.7387033,-0.040612124,0.056070343,0.18805976,-0.011682454,-5.3533125,-0.7056049
39,1747638679.7539668,-0.30834118,-0.057899717,0.05308236,-0.26778015,-4.6941323,-0.30916506
40,1747638679.7550395,-0.30834118,-0.057899717,0.05308236,-0.26778015,-4.6941323,-0.30916506
41,1747638679.7697816,-0.37227783,-0.0605828,0.1387581,-0.1681357,-4.634269,0.09162709
42,1747638679.7855768,-0.24635585,-0.20312162,0.02844678,0.019470757,-4.746054,0.5088358
43,1747638679.7866719,-0.24635585,-0.20312162,0.02844678,0.14782503,-4.8120255,0.85396445
44,1747638679.8007789,-0.17095509,-0.24925235,-0.22659859,-0.020463383,-4.5933423,1.2644538
45,1747638679.8017805,-0.17095509,-0.24925235,-0.22659859,-0.020463383,-4.5933423,1.2644538
46,1747638679.8164477,0.09750569,-0.36663726,-0.38669938,-1.168169,-3.418683,1.9180604
47,1747638679.8321366,0.22367159,-0.41715845,-0.28565693,-1.968837,-3.0240757,2.1226943
48,1747638679.8331366,0.22367159,-0.41715845,-0.28565693,-1.968837,-3.0240757,2.1226943
49,1747638679.8473728,0.2280621,-0.4471602,0.089700356,-3.2423773,-2.6117537,2.3988736
50,1747638679.8624933,0.2915414,-0.48719305,0.36694214,-3.5077903,-2.6337442,2.6505425
51,1747638679.8635492,0.2915414,-0.48719305,0.36694214,-3.4760263,-2.5744922,2.8557873
52,1747638679.8783085,0.43917197,-0.5228354,0.38669938,-3.310334,-2.317249,3.0512583
53,1747638679.8936033,0.6222009,-0.50280374,0.41401803,-2.9426804,-1.4070866,3.1899207
54,1747638679.8947392,0.6222009,-0.50280374,0.41401803,-2.9426804,-1.4070866,3.1899207
55,1747638679.909672,0.6983639,-0.47304586,0.35203275,-2.8835044,-0.7614211,3.4147124
56,1747638679.924935,0.8247738,-0.4378914,0.32886064,-3.0517166,-0.34421244,3.7030325
57,1747638679.9259412,0.9970704,-0.4147193,0.33861732,-3.232451,-0.095597595,3.8771238
58,1747638679.9404635,1.312607,-0.41789025,0.3442274,-3.4386883,0.2386122,3.9302676
59,1747638679.95574,1.9488332,-0.46304533,0.4679541,-3.5913239,1.123119,3.032933
60,1747638679.9567423,1.9488332,-0.46304533,0.4679541,-3.5913239,1.123119,3.032933
61,1747638679.9710262,2.145308,-0.3866384,0.6402508,-3.4380012,1.1768736,2.4019277
62,1747638679.9723754,2.145308,-0.3866384,0.6402508,-3.4380012,1.1768736,2.4019277
63,1747638679.9865203,2.4401119,-0.18287653,0.8255055,-3.0087283,0.09009997,1.392121
64,1747638680.0017817,2.716134,-0.01545822,0.6778444,-2.9943733,-1.2562073,0.69758755
65,1747638680.0028732,2.716134,-0.01545822,0.6778444,-2.9943733,-1.2562073,0.69758755
66,1747638680.0171897,2.9450498,0.04018527,0.50652343,-3.459228,-1.6459279,0.22173755
67,1747638680.0320437,3.366995,-0.095493376,0.59195524,-5.086678,-0.9147438,-0.6634565
68,1747638680.0330474,3.366995,-0.095493376,0.59195524,-5.086678,-0.9147438,-0.6634565
69,1747638680.0474067,3.415809,-0.025214886,1.46661,-5.697296,1.9666991,-2.0983367
70,1747638680.063083,3.1871371,0.06851009,2.003257,-4.9870334,2.992388,-2.7207901
71,1747638680.0641716,3.1871371,0.06851009,2.003257,-4.9870334,2.992388,-2.7207901
72,1747638680.0782764,2.8913577,0.25812483,2.4073966,-2.8560927,2.6691735,-3.7336512
73,1747638680.0934956,2.4645035,0.16025324,2.679516,0.8400677,-0.65452284,-4.918084
74,1747638680.0946014,2.4645035,0.16025324,2.679516,0.8400677,-0.65452284,-4.918084
75,1747638680.1088262,2.421574,0.016769271,2.602408,2.4775202,-2.1223888,-5.176472
76,1747638680.1240869,2.5111222,-0.02204397,1.806325,3.4501417,-3.0613375,-5.3884363
77,1747638680.1250873,2.5111222,-0.02204397,1.806325,4.033348,-3.735102,-5.6358294
78,1747638680.1392105,2.7056456,0.05582643,1.3526399,3.7567105,-3.571395,-5.7605186
79,1747638680.1543448,3.1385672,0.04164877,1.2652568,2.6058743,-2.5402083,-5.9883647
80,1747638680.1554053,3.1385672,0.04164877,1.2652568,2.6058743,-2.5402083,-5.9883647
81,1747638680.169693,3.7506456,-0.14455111,1.8333997,1.1889378,-0.9972082,-6.811176
82,1747638680.1856146,3.792386,-0.79760754,2.8393729,1.7167099,0.24410984,-8.786733
83,1747638680.1867023,3.792386,-0.79760754,2.8393729,1.7167099,0.24410984,-8.786733
84,1747638680.2015483,3.5407553,-0.96600145,2.9618802,2.7105584,0.39987588,-9.270523
85,1747638680.202617,3.5407553,-0.96600145,2.9618802,2.7105584,0.39987588,-9.270523
86,1747638680.216757,3.0738988,-1.1558907,2.6148477,4.3997035,0.21356747,-9.704225
87,1747638680.2315965,2.761533,-1.1827215,2.1887252,5.1063013,-0.3246653,-9.8532715
88,1747638680.2326436,2.761533,-1.1827215,2.1887252,5.1063013,-0.3246653,-9.8532715
89,1747638680.2466207,2.5252998,-1.138786,1.7069899,5.2303033,-0.76569706,-9.917411
90,1747638680.2618766,2.0618277,-0.97798395,1.0336579,4.221489,-1.109604,-9.792798
91,1747638680.2629669,2.0618277,-0.97798395,1.0336579,4.221489,-1.109604,-9.792798
92,1747638680.276729,1.7479985,-0.82763976,0.88992995,2.6713114,-0.434007,-9.11659
93,1747638680.2919252,1.5290831,-0.65509915,1.0612509,2.2893028,-0.10109522,-8.9449415
94,1747638680.2929683,1.5290831,-0.65509915,1.0612509,1.8656039,0.34001285,-8.6987705
95,1747638680.306749,1.3514203,-0.53405553,1.1842458,1.7403802,0.35406235,-8.49719
96,1747638680.3226924,0.90529674,-0.23364168,1.4187717,2.015796,-0.079715565,-7.4916596
97,1747638680.3237238,0.90529674,-0.23364168,1.4187717,2.015796,-0.079715565,-7.4916596
98,1747638680.338127,0.89895487,-0.2177566,1.3658113,2.4095633,-0.23059484,-7.0726185
99,1747638680.3538883,0.8852955,-0.20653644,1.2479386,2.8444867,-0.39063683,-6.826447
100,1747638680.355073,0.8967596,-0.21556135,1.0021926,3.1803763,-0.645971,-6.6291437
101,1747638680.3692338,0.9199317,-0.25705767,0.76205665,3.2687964,-0.8359445,-6.5894384
102,1747638680.3852258,0.27443674,-0.19409668,0.24858157,2.8544893,-0.9355126,-6.19422
103,1747638680.38623,0.27443674,-0.19409668,0.24858157,2.8544893,-0.9355126,-6.19422
104,1747638680.4006224,0.036496032,-0.20678036,0.15680793,2.5279913,-0.8402204,-5.6859956
105,1747638680.4159164,-0.4352388,-0.34001982,0.11726294,2.1890476,-0.7907418,-4.3444986
106,1747638680.4170487,-0.4352388,-0.34001982,0.11726294,2.1890476,-0.7907418,-4.3444986
107,1747638680.4318306,-0.49624845,-0.39493158,0.03795953,2.1304824,-0.97521764,-3.510692
108,1747638680.4318306,-0.49624845,-0.39493158,0.03795953,2.1304824,-0.97521764,-3.510692
109,1747638680.4470403,-0.30931684,-0.48158297,-0.10457927,1.7472522,-0.8677085,-1.9743347
110,1747638680.46236,0.14266077,-0.76638615,-0.27346107,1.5185663,-0.5195256,-1.6670785
111,1747638680.46236,0.14266077,-0.76638615,-0.27346107,1.5185663,-0.5195256,-1.6670785
112,1747638680.4773097,-0.023294043,-0.8881616,-0.5301834,1.8856091,2.5653293,-1.5137559
113,1747638680.4930544,-0.21632361,-1.0414327,-0.6832106,2.0264094,3.104784,-1.4031925
114,1747638680.4945145,-0.21632361,-1.0414327,-0.6832106,2.0264094,3.104784,-1.4031925
115,1747638680.508846,-0.3202931,-1.3184,-0.9760631,2.217681,2.7748501,-1.3427186
116,1747638680.524661,-0.25099024,-1.4231013,-1.0949115,1.8992769,1.1567156,-1.6774629
117,1747638680.5256622,-0.25099024,-1.4231013,-1.0949115,1.8992769,1.1567156,-1.6774629
118,1747638680.5405736,-0.53115904,-1.6256741,-1.4880747,1.8045955,0.8659524,-1.8460568
119,1747638680.5554435,-0.9211513,-1.8301678,-1.8709629,1.5709465,2.0845926,-1.7073945
120,1747638680.5564544,-0.9211513,-1.8301678,-1.8709629,1.5709465,2.0845926,-1.7073945
121,1747638680.5705724,-1.2667203,-2.0703342,-1.9253867,1.6837242,3.1090598,-1.0140828
122,1747638680.5726836,-1.2667203,-2.0703342,-1.9253867,1.6837242,3.1090598,-1.0140828
123,1747638680.585749,-1.3941058,-2.043473,-1.9229476,1.5977473,3.0192652,-0.17103723
124,1747638680.6018524,-0.99289334,-1.88947,-2.0117943,0.7515712,1.2196329,1.4348803
125,1747638680.6029398,-0.31834176,-1.9153557,-2.0359418,0.7515712,1.2196329,1.4348803
126,1747638680.6171339,0.181474,-1.9851464,-1.8741642,-1.5594167,-0.70277977,2.2882338
127,1747638680.6330798,0.44819686,-1.9463332,-1.5571336,-2.8131044,-1.2928582,2.091541
128,1747638680.6340802,0.44819686,-1.9463332,-1.5571336,-2.8131044,-1.2928582,2.091541
129,1747638680.6484425,0.5170119,-1.6439679,-0.75983095,-3.9046884,-2.0802402,1.963263
130,1747638680.6640801,0.33593425,-1.2940085,0.24269708,-3.678522,-1.7430526,2.6627595
131,1747638680.6650827,0.33593425,-1.2940085,0.24269708,-3.678522,-1.7430526,2.6627595
132,1747638680.6793156,0.48408312,-1.4228574,0.47676563,-3.2822351,-1.2708677,3.04515
133,1747638680.6951845,0.67272216,-1.3394074,0.40474924,-3.0168219,-0.6050442,3.5319953
134,1747638680.6962197,0.74153715,-1.2098267,0.33569032,-3.0168219,-0.6050442,3.5319953
135,1747638680.7102056,0.9851185,-1.1673547,0.33325115,-3.490992,-0.41323817,3.7012
136,1747638680.7254863,1.0366154,-1.1622324,0.5140849,-3.8941512,-0.37658733,3.6437802
137,1747638680.7264931,1.0366154,-1.1622324,0.5140849,-3.8941512,-0.37658733,3.6437802
138,1747638680.741061,0.6331772,-1.0619217,0.9204195,-4.1003885,-0.24342263,3.5857499
139,1747638680.7421618,0.39791957,-0.9833501,1.0719832,-4.1003885,-0.24342263,3.5857499
140,1747638680.7563097,0.17927876,-0.9450246,1.1835141,-3.4878614,-0.56411743,4.116576
141,1747638680.7715676,0.09238344,-1.0770445,1.1578724,-3.3271322,-0.8951967,4.333427
142,1747638680.7726007,0.09238344,-1.0770445,1.1578724,-3.3271322,-0.8951967,4.333427
143,1747638680.7867746,0.12656227,-1.0782641,1.0231694,-3.1389914,-1.4907727,5.0249057
144,1747638680.8026154,0.7234873,-1.2844957,0.5399705,-3.7302916,-1.5286453,6.145887
145,1747638680.80368,0.7234873,-1.2844957,0.5399705,-3.7302916,-1.5286453,6.145887
146,1747638680.8178754,0.7234873,-1.2844957,0.5399705,-3.7302916,-1.5286453,6.145887
147,1747638680.83267,0.907248,-1.3984658,0.5497272,-4.494156,-0.49203748,6.9992404
148,1747638680.8336723,0.96435505,-1.430175,0.6273232,-4.494156,-0.49203748,6.9992404
149,1747638680.848256,1.2706535,-1.423833,0.7657154,-4.7907224,-1.3466128,8.186193
150,1747638680.8642921,1.7809577,-1.5048743,0.63000625,-4.919764,-2.421704,8.4794
151,1747638680.8653357,1.7809577,-1.5048743,0.63000625,-4.919764,-2.421704,8.4794
152,1747638680.8794007,2.698816,-1.5795434,0.5006695,-5.458073,-3.4070768,8.018821
153,1747638680.894783,2.8118103,-1.3008381,0.87919766,-6.5466027,-2.5873199,7.3859067
154,1747638680.8957837,2.8118103,-1.3008381,0.87919766,-6.5466027,-2.5873199,7.3859067
155,1747638680.9099612,2.7771437,-1.2081193,1.2613541,-6.805831,-1.8041373,7.368192
156,1747638680.9258661,2.9018462,-0.862032,2.1636019,-6.3665557,-1.2427688,7.1763864
157,1747638680.9268663,2.9018462,-0.862032,2.1636019,-6.3665557,-1.2427688,7.1763864
158,1747638680.9414127,3.7718663,-0.015946053,2.8037307,-5.5726833,-1.9550166,6.8239274
159,1747638680.9424505,3.7718663,-0.015946053,2.8037307,-5.5726833,-1.9550166,6.8239274
160,1747638680.9566925,3.8140943,0.31401223,2.6780527,-2.872891,-4.117492,5.0915647
161,1747638680.9717708,3.8636398,0.6529954,2.323215,-1.8685054,-4.1516995,4.572268
162,1747638680.9728181,3.8636398,0.6529954,2.323215,-1.8685054,-4.1516995,4.572268
163,1747638680.986866,3.8372664,1.6350344,2.1367712,-1.818645,-2.6771145,4.4665914
164,1747638681.0027316,4.0191064,2.2454054,2.2224164,-1.7887135,-2.053974,4.63885
165,1747638681.003809,4.0191064,2.2454054,2.2224164,-1.7887135,-2.053974,4.63885
166,1747638681.0182555,4.9608684,2.9382505,1.8905067,-2.2691448,-1.00576,3.6431694
167,1747638681.0333989,5.0872784,2.8333056,2.7380865,-3.486029,-0.10292777,0.34696123
168,1747638681.0344021,5.0872784,2.8333056,2.7380865,-3.486029,-0.10292777,0.34696123
169,1747638681.0486355,4.6872854,2.675156,3.4614518,-3.1040967,-0.08215895,-1.0220238
170,1747638681.063895,4.144053,2.5575273,3.893154,-1.9962488,0.19402036,-2.025035
171,1747638681.0649307,3.8841293,2.3862064,4.1218257,-0.907719,0.32351997,-2.6047292
172,1747638681.0794914,3.6974413,2.1028666,4.2184777,0.7347729,0.051616594,-3.3769164
173,1747638681.095574,3.2837892,1.3707508,2.8527884,3.3760002,-0.13652436,-4.7195587
174,1747638681.0965748,3.2837892,1.3707508,2.8527884,3.3760002,-0.13652436,-4.7195587
175,1747638681.111455,3.3313835,1.1862278,2.6072865,3.51932,-0.29106873,-5.0762935
176,1747638681.1124923,3.3313835,1.1862278,2.6072865,3.51932,-0.29106873,-5.0762935
177,1747638681.126656,3.5839593,1.1779346,2.3163853,3.447011,0.08521319,-5.6511006
178,1747638681.1415648,3.8892512,1.1261938,2.1706755,3.5416925,1.047374,-5.962098
179,1747638681.142565,3.8892512,1.1261938,2.1706755,3.3336225,1.9001168,-6.262635
180,1747638681.156829,4.224088,1.0910698,1.5976541,3.3336225,1.9001168,-6.262635
181,1747638681.1724699,4.588469,0.55951434,1.9198072,2.1248322,2.7235389,-6.9406757
182,1747638681.1736295,4.588469,0.55951434,1.9198072,2.1248322,2.7235389,-6.9406757
183,1747638681.1878362,4.317325,0.35819164,2.1536012,2.2912116,3.408375,-7.966899
184,1747638681.2038374,3.981513,0.025062438,2.2197332,3.4002812,3.8988853,-8.304087
185,1747638681.205327,3.981513,0.025062438,2.2197332,3.4002812,3.8988853,-8.304087
186,1747638681.218598,3.47877,-0.37956485,1.5027401,5.1573834,3.3894386,-8.685331
187,1747638681.2342498,2.41011,-0.71001095,0.20123126,5.420353,2.6361878,-8.998696
188,1747638681.2353091,2.41011,-0.71001095,0.20123126,5.420353,2.6361878,-8.998696
189,1747638681.2498605,1.9578886,-0.71684057,-0.11336028,4.910601,2.3936813,-8.804447
190,1747638681.2645657,1.1627812,-0.5831133,-0.42865306,3.8077927,2.207373,-7.994387
191,1747638681.2655659,1.1627812,-0.5831133,-0.42865306,3.8077927,2.207373,-7.994387
192,1747638681.2798321,1.0749103,-0.5579594,-0.47429594,2.7279675,1.9379892,-7.1172104
193,1747638681.2951348,1.0829595,-0.58872336,-0.43962932,2.1248322,1.986857,-6.774525
194,1747638681.2965074,1.0829595,-0.58872336,-0.43962932,1.5759096,2.2953348,-6.572335
195,1747638681.3108768,0.97557527,-0.6243352,-0.25538075,1.3166813,2.5537233,-6.432451
196,1747638681.3119671,0.8184319,-0.6877841,0.19781642,1.3771552,2.167057,-6.1532936
197,1747638681.3262458,0.687845,-0.7085474,0.26419225,1.7316756,1.5757569,-6.0005817
198,1747638681.3414762,0.556313,-0.712694,0.240014,2.0849743,0.99728453,-5.803889
199,1747638681.342556,0.556313,-0.712694,0.240014,2.0849743,0.99728453,-5.803889
200,1747638681.3567443,0.3047129,-0.661441,0.15095393,2.2880812,0.6045097,-5.5466456
201,1747638681.3718712,0.23809317,-0.55625194,-0.20412776,2.2195134,0.11270132,-4.7329974
202,1747638681.3729267,0.23809317,-0.55625194,-0.20412776,1.5055094,0.76149744,-4.1447515
203,1747638681.3877153,0.7044618,-0.5572277,-0.37227783,0.9422319,1.2984322,-3.9816551
204,1747638681.4026842,0.8247738,-0.51914614,0.120921694,0.16523418,1.7907751,-4.1759048
205,1747638681.4037852,0.8247738,-0.51914614,0.120921694,0.16523418,1.7907751,-4.1759048
206,1747638681.4183204,0.6947051,-0.54551965,0.5026208,0.1440836,1.6062993,-4.28097
207,1747638681.4338484,0.20708527,-0.46938714,1.3389806,0.86618143,0.91787434,-4.0433507
208,1747638681.4349532,0.039666947,-0.45423386,1.5830191,0.86618143,0.91787434,-4.0433507
209,1747638681.4495726,-0.03744121,-0.43984273,1.3963314,3.390355,-1.4492351,-3.0232358
210,1747638681.4647312,1.0168276,-0.54600745,-0.18802926,4.7934713,-1.6385977,-2.2980838
211,1747638681.465287,1.0168276,-0.54600745,-0.18802926,4.7934713,-1.6385977,-2.2980838
212,1747638681.4806623,1.1029912,-0.5467392,-0.69784564,4.1934667,-1.2439904,-2.7427804
213,1747638681.4959877,0.33910516,-0.55259323,-0.64342165,2.8880858,-0.4755446,-2.9003792
214,1747638681.4959877,0.33910516,-0.55259323,-0.64342165,2.8880858,-0.4755446,-2.9003792
215,1747638681.5119755,-0.6461048,-0.44130626,-0.4015783,2.5990024,0.12308572,-0.76913303
216,1747638681.5119755,-0.6461048,-0.44130626,-0.4015783,2.5990024,0.12308572,-0.76913303
217,1747638681.5267553,-0.6402508,-0.56527686,-0.5135971,2.4681284,-0.13469182,0.19058435
218,1747638681.5425174,-0.22781818,-0.62457913,-0.93066406,1.8176523,-0.43889377,1.2430742
219,1747638681.5436547,-0.22781818,-0.62457913,-0.93066406,1.8176523,-0.43889377,1.2430742
220,1747638681.5578647,0.15753968,-0.68071043,-1.1493354,0.9814788,0.2679329,1.3652437
221,1747638681.5739326,0.021861032,-0.67388076,-0.90383315,0.26121357,1.1139563,1.0311102
222,1747638681.5749347,0.021861032,-0.67388076,-0.90383315,-0.2933594,1.9257723,0.37689275
223,1747638681.589168,-0.33736727,-0.6926929,-0.63293326,-0.5126536,2.0882578,-0.03603999
224,1747638681.6047485,-1.0993019,-0.8439822,-0.3544719,0.35276428,0.98628926,-0.7495859
225,1747638681.6047485,-1.0993019,-0.8439822,-0.3544719,0.35276428,0.98628926,-0.7495859
226,1747638681.6194339,-1.3469993,-0.8988939,-0.47453988,1.012632,0.02351762,-0.6988856
227,1747638681.6349409,-2.6729,-0.7544343,-0.040612124,1.5347537,-0.91413295,-0.51318806
228,1747638681.6359982,-2.6729,-0.7544343,-0.040612124,1.5347537,-0.91413295,-0.51318806
229,1747638681.6504085,-1.4373094,-1.3120582,-1.0485368,2.4401057,-1.9269177,0.19302773
230,1747638681.6660023,-1.4709699,-1.1532075,-1.5078318,2.2818198,-1.493827,0.23028941
231,1747638681.667088,-1.4709699,-1.1532075,-1.5078318,2.2818198,-1.493827,0.23028941
232,1747638681.6817532,-1.3611466,-0.9638063,-2.369559,1.2257414,-0.1603474,-0.16065283
233,1747638681.6828198,-1.3611466,-0.9638063,-2.369559,1.2257414,-0.1603474,-0.16065283
234,1747638681.697115,-1.7706827,-0.9208769,-1.9261185,-1.0485194,1.3424132,-0.09407048
235,1747638681.7121058,-1.7753171,-0.99237496,-1.3723972,-2.1021545,1.459085,0.5625903
236,1747638681.7131102,-1.7753171,-0.99237496,-1.3723972,-2.1021545,1.459085,0.5625903
237,1747638681.727938,-1.607167,-0.91596806,-0.8237676,-2.5146291,0.52754295,1.5631582
238,1747638681.743701,-1.3206563,-1.0196936,-0.14384985,-1.8709488,-0.21104772,1.5503304
239,1747638681.744754,-1.3206563,-1.0196936,-0.14384985,-1.8709488,-0.21104772,1.5503304
240,1747638681.7590375,-1.3557802,-1.0953687,-0.08088887,-1.3793695,-0.449889,1.4312152
241,1747638681.7748537,-1.2362001,-1.1402494,-0.35691106,-1.07784,-0.7278245,1.9333316
242,1747638681.7759113,-1.2362001,-1.1402494,-0.35691106,-1.07784,-0.7278245,1.9333316
243,1747638681.790197,-1.0912527,-1.1778431,-0.47112507,-1.2354386,-0.5347968,2.295564
244,1747638681.8058653,-0.251722,-1.0802155,-0.7090658,-2.5887706,1.1011286,3.485571
245,1747638681.8068662,-0.251722,-1.0802155,-0.7090658,-2.5887706,1.1011286,3.485571
246,1747638681.8207757,0.083602436,-1.1034181,-0.6500074,-3.3246126,1.8555249,3.7635064
247,1747638681.821776,0.083602436,-1.1034181,-0.6500074,-3.3246126,1.8555249,3.7635064
248,1747638681.8365204,0.39743173,-1.0939053,-0.40011483,-4.1670475,2.8775487,3.913164
249,1747638681.852156,0.624884,-1.0199375,0.13802634,-4.2766943,2.6587892,4.0878663
250,1747638681.8531597,0.624884,-1.0199375,0.13802634,-4.2766943,2.6587892,4.0878663
251,1747638681.8672876,0.77474034,-0.95844,0.21171968,-4.142766,1.7266362,4.164833
252,1747638681.8827863,0.76205665,-0.8439822,0.3442274,-3.8598676,0.25082916,4.1306257
253,1747638681.883818,0.76205665,-0.8439822,0.3442274,-3.8598676,0.25082916,4.1306257
254,1747638681.897951,0.7642519,-0.8505679,0.40011483,-3.5962868,-0.13530266,4.276618
255,1747638681.9128878,0.749373,-0.8976743,0.4279518,-3.4411316,-0.36437038,4.5234003
256,1747638681.9138901,0.749373,-0.8976743,0.4279518,-3.4411316,-0.36437038,4.5234003
257,1747638681.928752,0.87968546,-1.0262794,0.29248658,-3.3003314,-0.71438587,5.0799584
258,1747638681.9439828,1.1442132,-1.1858925,0.19293809,-3.783817,-1.3117945,5.485561
259,1747638681.9450128,1.1442132,-1.1858925,0.19293809,-3.783817,-1.3117945,5.485561
260,1747638681.959173,1.2684581,-1.2464142,0.23830658,-4.0960364,-1.633711,5.550922
261,1747638681.974837,1.3680067,-1.2649823,0.6866255,-4.410699,-2.3819988,5.7115746
262,1747638681.9758935,1.3680067,-1.2649823,0.6866255,-4.410699,-2.3819988,5.7115746
263,1747638681.9898171,1.5527735,-1.3891969,1.0917406,-3.9377506,-2.974597,5.7592206
264,1747638682.0058699,1.5669206,-1.3755071,1.2330598,-3.2591755,-3.1297524,5.701801
265,1747638682.0068724,1.5669206,-1.3755071,1.2330598,-3.2591755,-3.1297524,5.701801
266,1747638682.0214522,1.4831964,-1.1995517,1.1888804,-2.0074732,-3.3777564,5.8484044
267,1747638682.0224535,1.4831964,-1.1995517,1.1888804,-2.0074732,-3.3777564,5.8484044
268,1747638682.036692,1.6159784,-1.1031741,0.74763507,-1.0211076,-4.1639166,6.614407
269,1747638682.0518813,1.9015133,-1.0045708,0.6519892,-0.8834379,-4.283643,6.8428636
270,1747638682.052885,1.9015133,-1.0045708,0.6519892,-0.8834379,-4.283643,6.8428636
271,1747638682.0678344,2.3456552,-0.60726106,0.7203164,-0.5593834,-4.641599,6.6956496
272,1747638682.083734,2.5933828,0.067290515,0.2751685,-1.1332744,-3.8377242,6.6828218
273,1747638682.0847442,2.5933828,0.067290515,0.2751685,-1.1332744,-3.8377242,6.6828218
274,1747638682.0988362,2.6843944,0.18906592,0.3781623,-1.746336,-2.950774,6.665718
275,1747638682.1146982,2.7097921,0.479967,0.70177877,-2.078484,-2.1291082,6.4757447
276,1747638682.1158035,2.7410138,0.8343169,1.1117722,-2.078484,-2.1291082,6.4757447
277,1747638682.1294274,3.2772036,1.0932649,1.4160888,-1.3644037,-2.2842634,6.2271295
278,1747638682.1446588,3.9102585,1.2408956,1.3748363,-0.5643465,-2.8169985,5.5961246
279,1747638682.1456628,3.9102585,1.2408956,1.3748363,-0.5643465,-2.8169985,5.5961246
280,1747638682.160602,4.545509,1.764615,0.32081142,0.43629766,-3.7314367,3.692648
281,1747638682.1760206,4.4903536,2.4438012,-0.2648935,-2.13766,-2.0735211,2.5949554
282,1747638682.1770248,4.4903536,2.4438012,-0.2648935,-2.13766,-2.0735211,2.5949554
283,1747638682.191867,4.3080564,2.6258545,0.5294516,-3.4024956,-0.92757154,2.2198188
284,1747638682.192893,4.3080564,2.6258545,0.5294516,-3.4024956,-0.92757154,2.2198188
285,1747638682.207427,4.2794876,2.8850465,2.1963172,-3.3963108,0.16042376,1.5069602
286,1747638682.222546,4.425197,3.1930215,2.4352336,-1.0422581,0.8812235,-0.5528931
287,1747638682.2236285,4.425197,3.1930215,2.4352336,-1.0422581,0.8812235,-0.5528931
288,1747638682.2377882,4.3175693,3.1586294,2.120398,-0.2415901,1.0577583,-1.7642032
289,1747638682.2537978,4.02618,3.06588,1.917368,0.3515426,1.27522,-2.9749024
290,1747638682.2549615,4.02618,3.06588,1.917368,0.75653434,1.3686796,-3.7654152
291,1747638682.2691224,3.4248338,2.8164752,1.5366446,1.5484978,1.4254885,-4.85028
292,1747638682.2847593,3.4692574,2.5023718,0.6817471,1.663108,1.639285,-5.823436
293,1747638682.2857594,3.4692574,2.5023718,0.6817471,1.663108,1.639285,-5.823436
294,1747638682.3005607,3.5251448,2.437947,0.39499256,1.2157388,1.8280368,-6.095874
295,1747638682.3159225,3.404345,2.2307703,0.56924057,-0.8684721,2.8598342,-6.4361157
296,1747638682.3170025,3.404345,2.2307703,0.56924057,-0.8684721,2.8598342,-6.4361157
297,1747638682.331728,3.5192907,2.053809,0.90480894,-1.1512944,3.1170008,-6.43184
298,1747638682.3327324,3.5192907,2.053809,0.90480894,-1.1512944,3.1170008,-6.43184
299,1747638682.346737,3.7260103,1.3160828,1.563018,-0.42415705,3.6856997,-7.133703
300,1747638682.3619387,3.626919,0.9944177,1.6879644,0.38765895,4.073588,-7.595504
301,1747638682.363005,3.158355,0.41700605,1.7348268,2.575332,4.3967257,-8.378076
302,1747638682.3768475,2.8532763,0.15269183,1.6457363,4.149867,4.007005,-8.671282
303,1747638682.3927612,2.3161411,-0.2763271,1.2115647,5.489455,3.292925,-8.740919
304,1747638682.393864,2.3161411,-0.2763271,1.2115647,5.489455,3.292925,-8.740919
305,1747638682.4083319,1.3648357,-0.5608864,0.5235976,6.499491,2.1676679,-8.353031
306,1747638682.4234934,0.2976393,-0.40788963,-0.0784497,5.793581,2.4535444,-5.3969884
307,1747638682.4245365,-0.16336319,-0.33294627,-0.2573321,5.793581,2.4535444,-5.3969884
308,1747638682.439049,-0.34398347,-0.31099376,-0.21684194,5.793581,2.4535444,-5.3969884
309,1747638682.4544723,-0.294194,-0.42837867,-0.1006766,4.0252542,2.2165356,-0.68056023
310,1747638682.4555328,-0.294194,-0.42837867,-0.1006766,4.0252542,2.2165356,-0.68056023
311,1747638682.470491,-0.07649837,-0.5171948,-0.040612124,3.5672717,1.3075949,0.22784603
312,1747638682.471616,-0.07649837,-0.5171948,-0.040612124,3.5672717,1.3075949,0.22784603
313,1747638682.48567,0.070187025,-0.587016,-0.030611541,3.1759477,0.3302393,0.839915
314,1747638682.5004725,0.36108813,-0.5496662,0.023080615,2.743544,-1.0130901,1.1905413
315,1747638682.501474,0.5011573,-0.4664601,-0.010610376,2.743544,-1.0130901,1.1905413
316,1747638682.5156493,0.7537635,-0.33123884,-0.14775252,2.1547637,-0.749815,0.2247918
317,1747638682.5314612,0.82696897,-0.30416408,-0.1797361,1.8830894,0.2838149,-0.3714715
318,1747638682.5325558,0.82696897,-0.30416408,-0.1797361,1.8830894,0.2838149,-0.3714715
319,1747638682.5464337,0.8850516,-0.14674637,-0.19461502,1.5752987,2.0522177,-1.4722183
320,1747638682.5615375,0.8684653,-0.016677802,-0.34934965,1.2026819,3.0327039,-2.2156193
321,1747638682.5625706,0.86331254,0.0060369377,-0.3632529,0.93161845,3.3204129,-2.4825597
322,1747638682.576732,0.86331254,0.0060369377,-0.3632529,0.93161845,3.3204129,-2.4825597
323,1747638682.5923967,1.0090222,-0.056436222,0.017958365,0.56648445,2.506688,-3.1484594
324,1747638682.5924199,1.0090222,-0.056436222,0.017958365,0.56648445,2.506688,-3.1484594
325,1747638682.6076639,0.9099311,-0.07988271,0.624884,1.3372973,-0.733933,-3.8265
326,1747638682.6228435,0.8044982,-0.099152125,0.6610142,2.0114436,-2.2757115,-4.0751147
327,1747638682.6239312,0.8044982,-0.099152125,0.6610142,2.0114436,-2.2757115,-4.0751147
328,1747638682.638108,0.62659144,-0.27437577,0.56753314,3.0812664,-3.9562287,-4.4202433
329,1747638682.6539474,0.29837108,-0.50865775,0.12701961,3.785955,-3.818788,-4.464835
330,1747638682.6549492,0.29837108,-0.50865775,0.12701961,3.785955,-3.818788,-4.464835
331,1747638682.6692786,0.0623512,-0.49694976,-0.0521067,3.8009207,-3.4687724,-4.1203175
332,1747638682.6844454,0.0030489585,-0.4552095,-0.16558893,3.7554126,-3.1938913,-3.713493
333,1747638682.6854477,-0.046466127,-0.44008666,-0.37764397,3.5946834,-2.7498052,-3.138686
334,1747638682.699716,-0.060399864,-0.37444258,-0.6085111,3.1429617,-2.1266646,-2.448963
335,1747638682.7150784,0.073845774,-0.5711309,-0.91773653,1.9428761,-1.1609153,-1.4581687
336,1747638682.7161617,0.073845774,-0.5711309,-0.91773653,1.9428761,-1.1609153,-1.4581687
337,1747638682.7302303,0.08677336,-0.6446108,-0.95334834,1.3566154,-0.5512897,-1.0653939
338,1747638682.7457862,0.13168451,-0.804925,-0.9899663,0.39269844,0.6515449,-0.86076015
339,1747638682.7468433,0.13168451,-0.804925,-0.9899663,0.39269844,0.6515449,-0.86076015
340,1747638682.7615442,-0.02841629,-0.772728,-0.96655035,0.08116633,1.0901333,-1.3005701
341,1747638682.7625525,-0.02841629,-0.772728,-0.96655035,0.08116633,1.0901333,-1.3005701
342,1747638682.7765806,-0.8862408,-0.73537827,-0.9477383,-0.45660833,2.0265622,-2.5198214
343,1747638682.7914033,-1.2327853,-0.84276253,-0.9460308,-0.55503106,2.2061512,-2.7751555
344,1747638682.7924259,-1.2327853,-0.84276253,-0.9460308,-0.55503106,2.2061512,-2.7751555
345,1747638682.80657,-1.8917261,-1.3572134,-0.554575,0.043751936,0.7254575,-2.5479202
346,1747638682.8225644,-1.9781032,-1.3769706,-0.52506113,0.7191963,-0.52196896,-2.397041
347,1747638682.823633,-1.9781032,-1.3769706,-0.52506113,0.7191963,-0.52196896,-2.397041
348,1747638682.8376386,-2.175066,-1.4113933,-1.0387801,2.0245006,-1.8163543,-1.9419597
349,1747638682.8528762,-2.3707786,-1.4035879,-1.424138,2.1865277,-2.0478654,-1.7373259
350,1747638682.853879,-2.3707786,-1.4035879,-1.424138,2.1865277,-2.0478654,-1.7373259
351,1747638682.8675437,-2.4056892,-1.2852274,-1.5515234,1.709227,-2.2201242,-0.8949676
352,1747638682.8832397,-1.7116243,-1.1409812,-1.6252168,-0.120107844,-1.8792716,1.2082559
353,1747638682.8843377,-1.7116243,-1.1409812,-1.6252168,-0.120107844,-1.8792716,1.2082559
354,1747638682.898571,-1.1761662,-1.1151261,-1.5273452,-0.9781192,-1.0955546,1.8972915
355,1747638682.9144511,-0.75519645,-1.0448476,-1.3899592,-1.6778448,0.025961008,2.268076
356,1747638682.9154809,-0.44206846,-0.9760021,-1.2422981,-1.6778448,0.025961008,2.268076
357,1747638682.9298682,-0.29882842,-0.9347802,-1.1493354,-2.5831966,1.8652985,2.3903217
358,1747638682.9447222,-0.18290702,-0.86474556,-0.88819206,-3.4554865,2.6905532,2.2967856
359,1747638682.9457228,-0.18290702,-0.86474556,-0.88819206,-3.4554865,2.6905532,2.2967856
360,1747638682.9607983,-0.23464784,-0.8237371,-0.7590992,-3.6443148,2.4095633,2.3535945
361,1747638682.9618,-0.23464784,-0.8237371,-0.7590992,-3.6443148,2.4095633,2.3535945
362,1747638682.9760313,-0.22684251,-0.7734598,-0.48868704,-3.9302676,1.1664892,2.6187785
363,1747638682.991282,-0.05430195,-0.7841921,-0.3015115,-3.9850912,-0.044897273,2.8777778
364,1747638682.992255,-0.05430195,-0.7841921,-0.3015115,-3.9850912,-0.044897273,2.8777778
365,1747638683.0065832,0.2500451,-0.93038964,-0.24659975,-4.031821,-0.4694361,3.076914
366,1747638683.021778,0.3059325,-0.8984061,-0.19534676,-4.29418,0.038177952,3.3927221
367,1747638683.0227792,0.3059325,-0.8984061,-0.19534676,-4.506602,0.63383037,3.541158
368,1747638683.0374403,0.20757309,-0.8984061,0.13802634,-4.737197,1.3442458,3.8300886
369,1747638683.0527713,0.24638632,-0.90426004,0.29053524,-4.808208,1.41938,4.0463285
370,1747638683.0537715,0.24638632,-0.90426004,0.29053524,-4.808208,1.41938,4.0463285
371,1747638683.0681157,0.54899544,-1.0885086,0.4030418,-4.9147243,1.0852466,4.0591564
372,1747638683.0835633,0.3298363,-1.1139064,0.6971138,-4.7969837,0.06688777,3.9351544
373,1747638683.0846527,0.3298363,-1.1139064,0.6971138,-4.7969837,0.06688777,3.9351544
374,1747638683.0992286,0.20391434,-1.1029302,0.84648234,-4.5353117,-0.49936762,4.212479
375,1747638683.1143446,0.3720644,-1.1612568,0.7952293,-3.6922662,-1.0161444,5.249163
376,1747638683.1154053,0.3720644,-1.1612568,0.7952293,-3.6922662,-1.0161444,5.249163
377,1747638683.1295805,0.82696897,-1.2857152,0.45697787,-3.5944543,-0.8945858,5.817862
378,1747638683.144879,1.1425056,-1.3425784,0.3500814,-4.063585,-0.8493831,5.7922063
379,1747638683.1458802,1.1425056,-1.3425784,0.3500814,-4.063585,-0.8493831,5.7922063
380,1747638683.1597517,1.4348704,-1.4350837,0.6141517,-5.383931,-1.1358705,5.285814
381,1747638683.1753492,1.2821175,-1.4860623,1.6879644,-5.9434676,-2.0484762,5.5277095
382,1747638683.1763935,1.2821175,-1.4860623,1.6879644,-5.9434676,-2.0484762,5.5277095
383,1747638683.1909328,1.2738243,-1.4845989,1.7987634,-5.861843,-2.1908038,5.6675935
384,1747638683.1920574,1.2738243,-1.4845989,1.7987634,-5.861843,-2.1908038,5.6675935
385,1747638683.2056377,1.6752806,-1.4550849,2.0264597,-3.9937956,-2.4907298,7.07804
386,1747638683.2208025,2.076493,-1.4331019,1.7230884,-3.5838408,-2.0961223,7.3962913
387,1747638683.2218025,2.4025183,-1.400661,1.492953,-3.5838408,-2.0961223,7.3962913
388,1747638683.2361841,2.4025183,-1.400661,1.492953,-4.03373,-1.9898349,7.1287403
389,1747638683.2516928,2.1550648,-1.2169002,1.760438,-4.8194323,-1.2555965,6.565539
390,1747638683.2527285,2.1550648,-1.2169002,1.760438,-4.8194323,-1.2555965,6.565539
391,1747638683.2672129,1.6999164,-0.9755142,2.346387,-3.9614208,-1.6477605,6.7958283
392,1747638683.2824867,2.4474294,-0.6033584,2.046217,-2.9420695,-3.7601466,7.533732
393,1747638683.2835884,2.4474294,-0.6033584,2.046217,-2.9420695,-3.7601466,7.533732
394,1747638683.297985,2.930415,-0.36932033,1.7919338,-2.7782097,-3.3539333,7.689498
395,1747638683.3132172,3.3338225,-0.2719366,1.5876536,-3.576358,-0.7846333,6.7243595
396,1747638683.314219,3.3743126,-0.08622454,1.6689084,-3.576358,-0.7846333,6.7243595
397,1747638683.3287163,3.4097111,0.013598354,1.9952079,-3.8330665,-0.114533864,6.069531
398,1747638683.3439903,3.3511407,0.6156457,2.5242937,-3.6910446,-0.12125318,5.3047504
399,1747638683.3450415,3.3511407,0.6156457,2.5242937,-3.3227801,-0.4199575,4.7781234
400,1747638683.359141,3.3999543,0.8616661,2.6092377,-2.586251,-1.0399674,4.1697197
401,1747638683.3743014,3.830925,1.9427962,1.6684206,-1.6965519,-1.6172181,3.2467296
402,1747638683.3753102,3.830925,1.9427962,1.6684206,-1.6965519,-1.6172181,3.2467296
403,1747638683.3899126,4.2497296,2.035759,1.3489811,-2.403073,-1.1120474,2.6627595
404,1747638683.40575,4.457882,2.0714014,2.2358317,-3.9527164,0.8781693,1.1612207
405,1747638683.4067833,4.457882,2.0714014,2.2358317,-3.9527164,0.8781693,1.1612207
406,1747638683.4209485,4.761497,1.786842,3.80946,-4.2281322,1.5714809,0.62856185
407,1747638683.4219484,4.761497,1.786842,3.80946,-4.2281322,1.5714809,0.62856185
408,1747638683.4367423,4.8918095,1.590855,4.0356927,-2.625574,2.6325226,-0.965215
409,1747638683.452242,4.3131785,0.84382975,4.312203,-1.2148988,3.0571377,-2.2712064
410,1747638683.4532783,4.3131785,0.84382975,4.312203,0.78959644,2.639242,-3.7837405
411,1747638683.467675,4.1201186,0.31571963,4.3907743,2.6550477,1.623403,-4.896704
412,1747638683.4829547,4.0967026,-0.32270175,4.148199,4.6869545,0.7376744,-5.882077
413,1747638683.4840791,4.0967026,-0.32270175,4.148199,4.6869545,0.7376744,-5.882077
414,1747638683.498382,3.8646157,-0.93014574,3.208358,7.112629,-0.8322794,-7.327953
415,1747638683.5131547,3.7652807,-0.73952484,1.3238273,6.090147,0.43835926,-7.4244666
416,1747638683.5141551,3.7652807,-0.73952484,1.3238273,6.090147,0.43835926,-7.4244666
417,1747638683.5291338,3.8760798,-0.5760092,1.05247,4.6813807,1.7889426,-7.222276
418,1747638683.544347,3.8694942,-0.34809956,1.5998495,3.2214558,3.4633512,-7.090333
419,1747638683.5453513,3.8694942,-0.34809956,1.5998495,3.2214558,3.4633512,-7.090333
420,1747638683.5594869,3.9251375,-0.4759729,2.186042,3.590331,3.8231404,-7.335283
421,1747638683.5746553,3.8560786,-0.64997697,2.2758644,5.9561424,2.9569588,-8.354863
422,1747638683.575744,3.6496031,-0.9335606,2.0364604,5.9561424,2.9569588,-8.354863
423,1747638683.5902562,3.4016619,-1.1246388,1.7194296,6.8247676,2.2537973,-8.819718
424,1747638683.6049254,2.1472595,-1.4558166,0.20001167,7.8154855,0.13476817,-9.948564
425,1747638683.6059313,2.1472595,-1.4558166,0.20001167,7.8154855,0.13476817,-9.948564
426,1747638683.6209254,1.6884522,-1.3882213,-0.15851535,7.2004385,-0.3362714,-9.855104
427,1747638683.6229272,1.6884522,-1.3882213,-0.15851535,7.2004385,-0.3362714,-9.855104
428,1747638683.6361227,0.74592763,-0.9696602,-0.7134563,5.2340446,-0.39246938,-8.876527
429,1747638683.6511028,0.4416111,-0.73952484,-0.7554404,3.622095,0.17630579,-7.6975155
430,1747638683.651748,0.4416111,-0.73952484,-0.7554404,2.5185995,0.6930826,-6.6749573
431,1747638683.666831,0.6129321,-0.447892,-0.411335,1.6780738,0.98873264,-5.814884
432,1747638683.6825297,1.47783,-0.56869173,0.19196242,1.0599728,1.019275,-5.3676677
433,1747638683.6825297,1.47783,-0.56869173,0.19196242,0.72538114,0.82869065,-5.37683
434,1747638683.6982222,1.6613469,-0.6648559,0.44380638,0.8668686,0.58679515,-5.777622
435,1747638683.7138686,1.5832632,-0.76906925,0.5719236,1.226963,0.3406237,-6.255305
436,1747638683.7148983,1.5832632,-0.76906925,0.5719236,1.226963,0.3406237,-6.255305
437,1747638683.7292368,1.0634462,-0.90230876,0.859166,2.020759,-0.22509721,-6.7616973
438,1747638683.7450788,0.6009802,-0.8266641,0.66686815,3.0457609,-0.80845636,-6.1172533
439,1747638683.7460816,0.6009802,-0.8266641,0.66686815,3.0457609,-0.80845636,-6.1172533
440,1747638683.7608073,0.6844302,-0.755166,0.31788442,3.0862293,-0.5005893,-5.605287
441,1747638683.7618105,0.6844302,-0.755166,0.31788442,3.0862293,-0.5005893,-5.605287
442,1747638683.7760873,0.8996867,-0.5699113,-0.08747462,2.2164593,0.83663166,-4.6829076
443,1747638683.791071,0.8935887,-0.5274698,0.19732858,1.2649883,1.6215703,-3.926679
444,1747638683.7922223,0.8935887,-0.5274698,0.19732858,1.2649883,1.6215703,-3.926679
445,1747638683.8059313,0.7671789,-0.5040233,0.5787533,1.2387983,1.5580423,-3.3799706
446,1747638683.8208864,0.31471348,-0.39419982,1.387276,2.5865564,0.46523654,-2.2198954
447,1747638683.8218865,0.31471348,-0.39419982,1.387276,2.5865564,0.46523654,-2.2198954
448,1747638683.8360653,0.6068342,-1.0177423,0.74080545,5.3604903,-0.87320614,-1.1435825
449,1747638683.8519306,0.6285428,-1.157598,-0.034758125,5.8009872,-1.1511416,-1.1240354
450,1747638683.852933,0.5653379,-1.298399,-0.7578796,5.371104,-0.8945858,-1.2657518
451,1747638683.8669684,0.40060264,-1.3079116,-1.1747028,4.2240086,-0.088878274,-1.485046
452,1747638683.8823354,-0.7273595,-1.4736226,-1.472464,0.4169796,3.1133358,-1.6762413
453,1747638683.8833923,-0.7273595,-1.4736226,-1.472464,0.4169796,3.1133358,-1.6762413
454,1747638683.8969994,-1.1939721,-1.5490233,-1.0817399,-0.5195256,3.7376218,-1.421518
455,1747638683.9130533,-1.7282106,-1.6749758,-0.29809666,-0.94200283,3.7693858,-0.43866467
456,1747638683.9140575,-1.7282106,-1.6749758,-0.29809666,-0.94200283,3.7693858,-0.43866467
457,1747638683.9285877,-1.8043432,-1.5580788,0.076528855,0.35841462,2.6563456,1.0781454
458,1747638683.9438949,-0.96408063,-1.7457421,-1.24989,2.516767,0.4145362,1.2497935
459,1747638683.9449055,-0.96408063,-1.7457421,-1.24989,2.516767,0.4145362,1.2497935
460,1747638683.9593515,-0.96310496,-1.7035141,-1.4082528,2.5653293,0.25571594,1.0964708
461,1747638683.9744136,-1.6410714,-1.6505537,-2.4735286,1.2830846,-0.7815791,-0.42705858
462,1747638683.9755094,-1.6410714,-1.6505537,-2.4735286,1.2830846,-0.7815791,-0.42705858
463,1747638683.989613,-1.9651756,-1.7491571,-2.3629732,0.7347729,-1.1230427,-0.69277716
464,1747638684.0042903,-2.6458251,-1.7381808,-2.1940916,0.28427303,-1.3478345,-0.57915956
465,1747638684.0052907,-2.6458251,-1.7381808,-2.1940916,0.28427303,-1.3478345,-0.57915956
466,1747638684.019566,-3.3272064,-1.3328216,-1.715283,-0.07963921,-2.3001454,1.3261493
467,1747638684.035182,-2.5753028,-1.3423345,-1.642047,-0.4621823,-1.9049271,3.9974608
468,1747638684.0362802,-2.5753028,-1.3423345,-1.642047,-0.4621823,-1.9049271,3.9974608
469,1747638684.0504699,-2.2204344,-1.1849166,-1.6537855,-0.8634326,-1.1731322,4.749414
470,1747638684.0657034,-1.6745185,-1.1068329,-1.6400958,-1.9825047,-0.03939965,5.601622
471,1747638684.0667312,-1.2032714,-1.0314016,-1.6291195,-1.9825047,-0.03939965,5.601622
472,1747638684.0805418,-0.3459348,-0.72049934,-1.4568228,-2.7719486,0.6118399,5.6327753
473,1747638684.0957875,0.015275282,-0.5496662,-1.2452556,-3.1451762,0.95513606,5.5002213
474,1747638684.0967884,0.015275282,-0.5496662,-1.2452556,-3.1451762,0.95513606,5.5002213
475,1747638684.1104715,0.42746398,-0.3559049,-0.68516195,-4.1539903,1.4096065,4.257682
476,1747638684.1256418,0.40352964,-0.6097002,0.15875927,-4.6742034,0.9001598,3.2992623
477,1747638684.126642,0.40352964,-0.6097002,0.15875927,-4.6742034,0.9001598,3.2992623
478,1747638684.1417234,0.46234405,-0.76541054,0.49871814,-4.846233,0.7865422,3.4116583
479,1747638684.142726,0.46234405,-0.76541054,0.49871814,-4.846233,0.7865422,3.4116583
480,1747638684.1559095,0.60366327,-0.78492385,0.9331337,-4.8511963,1.2947671,4.0054016
481,1747638684.171687,0.7169016,-0.7563856,1.0793008,-4.5302725,2.1975994,4.593648
482,1747638684.1717718,0.7169016,-0.7563856,1.0793008,-4.5302725,2.1975994,4.593648
483,1747638684.1869035,1.3875505,-0.77126455,1.0688124,-4.033043,2.1811066,5.068963
484,1747638684.2027488,1.7001601,-0.8054128,1.0722271,-3.8928533,1.4890165,4.9015145
485,1747638684.2027488,1.7001601,-0.8054128,1.0722271,-3.8928533,1.4890165,4.9015145
486,1747638684.2182057,1.9032208,-0.8725509,1.2908984,-3.1128013,-1.1951227,3.3255289
487,1747638684.2378764,1.6076852,-0.698303,1.3514203,-2.6205347,-1.925696,2.829521
488,1747638684.238944,1.323126,-0.6267744,1.3536155,-2.1463645,-2.149266,2.7317853
489,1747638684.253116,1.0260965,-0.616042,1.3174853,-1.714572,-1.8163543,2.9779568
490,1747638684.2541177,1.0260965,-0.616042,1.3174853,-1.714572,-1.8163543,2.9779568
491,1747638684.2683337,0.749373,-0.53673863,1.0693002,-1.205507,-1.0692881,4.1031375
492,1747638684.2841594,0.9589889,-0.6231156,0.9262736,-1.3737955,-0.83105767,4.80439
493,1747638684.2841594,0.9589889,-0.6231156,0.9262736,-1.3737955,-0.83105767,4.80439
494,1747638684.2997627,1.2672386,-0.7622396,0.8459944,-1.9420362,-0.42545512,4.929003
495,1747638684.3155975,1.0390545,-0.74537885,1.1407983,-2.2448637,0.08704574,4.5062966
496,1747638684.3166378,1.0390545,-0.74537885,1.1407983,-2.2448637,0.08704574,4.5062966
497,1747638684.3308227,0.8545315,-0.68680835,1.4138935,-1.922718,0.041843038,4.4904146
498,1747638684.331882,0.8545315,-0.68680835,1.4138935,-1.922718,0.041843038,4.4904146
499,1747638684.3459597,0.71202326,-0.52039623,1.5054232,-1.2366602,-0.1291942,4.6712255
500,1747638684.3617752,0.9489883,-0.5342995,1.3453225,0.9135984,-0.7583669,5.21801
501,1747638684.362864,1.4434378,-0.53527516,0.95801324,0.9135984,-0.7583669,5.21801
502,1747638684.3770175,1.4434378,-0.53527516,0.95801324,0.9135984,-0.7583669,5.21801
503,1747638684.391984,1.7536085,-0.40764573,0.5262807,1.0494356,-1.0442433,4.712152
504,1747638684.3929842,1.7292168,-0.30416408,0.27858332,1.0494356,-1.0442433,4.712152
505,1747638684.4073923,1.5944833,-0.04643564,0.099457026,0.11911522,-0.4266768,4.316934
506,1747638684.422674,1.5181068,0.25031948,0.20074342,-0.45095798,-0.011300675,4.5099616
507,1747638684.4240394,1.5181068,0.25031948,0.20074342,-0.45095798,-0.011300675,4.5099616
508,1747638684.438463,1.8007147,0.65470284,0.5277442,-1.2559783,0.060779303,5.3487315
509,1747638684.454003,2.8078773,0.9104495,0.5499711,-1.8217756,0.12621632,5.286425
510,1747638684.4550824,2.8078773,0.9104495,0.5499711,-1.8217756,0.12621632,5.286425
511,1747638684.4696727,3.0126455,0.9143826,0.5397266,-2.2890737,0.2813715,4.565549
512,1747638684.484432,2.8113225,1.0759164,0.65881896,-2.717125,0.59107107,3.6938698
513,1747638684.4854412,2.5018532,1.327547,0.86599565,-2.717125,0.59107107,3.6938698
514,1747638684.4996376,2.1489668,1.7700119,1.2250104,-2.6623015,0.77066016,2.888773
515,1747638684.514528,2.8976996,2.7242138,1.3421515,-1.3257676,-0.60321164,3.1141758
516,1747638684.5155985,2.8976996,2.7242138,1.3421515,-1.3257676,-0.60321164,3.1141758
517,1747638684.5300908,3.5707874,3.0710022,1.1747332,-1.12205,-0.8402204,2.7323961
518,1747638684.5455618,4.35001,4.4806275,1.4678296,-1.2746855,0.019852536,1.0115631
519,1747638684.546619,4.35001,4.4806275,1.4678296,-1.2746855,0.019852536,1.0115631
520,1747638684.5607946,4.4888897,5.0055666,1.9037087,-0.99491745,0.53609484,-0.3403183
521,1747638684.5617964,4.4888897,5.0055666,1.9037087,-0.99491745,0.53609484,-0.3403183
522,1747638684.576677,4.03862,5.3145175,2.1638458,0.29671904,1.3234769,-2.3744397
523,1747638684.5921829,4.181128,4.73052,1.6445167,2.3516092,0.39010233,-4.481328
524,1747638684.5932345,4.181128,4.73052,1.6445167,2.3516092,0.39010233,-4.481328
525,1747638684.607751,4.4088244,4.2670784,1.4256015,2.4101741,0.1958529,-5.433639
526,1747638684.6226158,4.331716,3.841718,1.3716655,2.2463145,0.23311459,-6.3542624
527,1747638684.6236863,4.331716,3.841718,1.3716655,2.2463145,0.23311459,-6.3542624
528,1747638684.6379693,4.0093193,3.0048707,1.1159188,1.5989691,0.20929155,-7.5576315
529,1747638684.6531525,3.5451458,1.9893844,1.0136567,0.023823043,1.335083,-8.208183
530,1747638684.6541543,3.5451458,1.9893844,1.0136567,0.023823043,1.335083,-8.208183
531,1747638684.6683016,3.5222175,1.7016541,1.2001005,-0.46157146,1.7052565,-8.246667
532,1747638684.6842852,3.136616,0.73571366,1.7025993,-0.33573693,2.2373044,-8.360971
533,1747638684.685358,3.136616,0.73571366,1.7025993,-0.33573693,2.2373044,-8.360971
534,1747638684.6995761,2.893553,0.3740462,1.8221796,0.30855423,2.2892265,-8.339516
535,1747638684.71447,2.6524413,0.051405437,1.7653164,1.1877161,2.1414015,-8.261328
536,1747638684.7155766,2.394469,-0.24315442,1.5315223,1.1877161,2.1414015,-8.261328
537,1747638684.7292182,2.2046103,-0.42179292,1.3033382,2.6619196,1.8940083,-8.026152
538,1747638684.7446487,2.1743343,-0.88913727,0.69540644,3.91492,1.1060153,-7.7604327
539,1747638684.745653,2.1743343,-0.88913727,0.69540644,3.91492,1.1060153,-7.7604327
540,1747638684.7597256,2.1138122,-1.0094491,0.32739717,3.9386668,0.5617504,-8.004771
541,1747638684.775774,1.6184176,-0.9316092,0.09970094,3.3236198,-0.29962057,-8.252775
542,1747638684.7768059,1.6184176,-0.9316092,0.09970094,3.3236198,-0.29962057,-8.252775
543,1747638684.7909162,1.258427,-0.77150846,0.065034285,2.6843684,-0.6087093,-7.9962196
544,1747638684.7919686,1.258427,-0.77150846,0.065034285,2.6843684,-0.6087093,-7.9962196
545,1747638684.8059647,1.072959,-0.6150664,-0.0594242,2.0257986,-0.23548162,-7.572292
546,1747638684.8208563,1.1434814,-0.3817601,0.005488125,0.603288,1.811544,-6.1087017
547,1747638684.8218572,1.1434814,-0.3817601,0.005488125,0.603288,1.811544,-6.1087017
548,1747638684.8355417,1.4524628,-0.0459478,0.55411774,-0.26464957,2.2000427,-4.897315
549,1747638684.8507552,1.5915563,-0.007165052,0.76449585,-0.32947573,2.0687106,-4.5564623
550,1747638684.8517814,1.5915563,-0.007165052,0.76449585,-0.32947573,2.0687106,-4.5564623
551,1747638684.8666487,1.4746592,-0.120891206,1.1713183,0.2562504,1.8475839,-3.9107969
552,1747638684.8816087,1.2223275,-0.3144086,1.5786287,1.3011047,1.7877209,-3.378749
553,1747638684.882609,1.2223275,-0.3144086,1.5786287,2.534176,1.9874679,-2.7397263
554,1747638684.8964539,1.2157416,-0.6140907,1.6430532,4.0501466,1.9184421,-2.329237
555,1747638684.911592,0.9599645,-0.7549221,1.552499,5.590398,1.1933665,-2.0873415
556,1747638684.9125922,0.9599645,-0.7549221,1.552499,5.590398,1.1933665,-2.0873415
557,1747638684.9267106,0.3857237,-1.1346394,0.83038384,8.2977495,-2.173089,-1.3469945
558,1747638684.9421473,0.08921252,-1.2144611,0.10384752,8.604929,-2.9556608,-0.957274
559,1747638684.9432175,0.08921252,-1.2144611,0.10384752,8.604929,-2.9556608,-0.957274
560,1747638684.957317,-0.11604336,-1.2002834,-0.5353056,8.417933,-3.1621273,-0.15210097
561,1747638684.9732785,-0.12067777,-1.2249495,-1.8494982,4.6309094,-0.18783553,1.5008518
562,1747638684.974282,-0.12067777,-1.2249495,-1.8494982,4.6309094,-0.18783553,1.5008518
563,1747638684.9880428,-0.39987087,-1.1319562,-1.9910613,2.8825119,1.3369156,1.207645
564,1747638685.0034359,-0.8894117,-0.9311214,-1.6457363,1.0836431,2.8182964,0.9113841
565,1747638685.0045087,-1.3484628,-0.9474638,-0.96630645,1.0836431,2.8182964,0.9113841
566,1747638685.018134,-1.5266135,-1.3064482,-1.0968628,-0.6765133,3.0742416,1.0726478
567,1747638685.0332627,-1.6808603,-1.4284675,0.55045897,1.716099,-0.32161108,0.6090147
568,1747638685.0342658,-1.6808603,-1.4284675,0.55045897,1.716099,-0.32161108,0.6090147
569,1747638685.048106,-2.0035012,-1.5973493,0.06991262,3.1049366,-1.69785,0.2895416
570,1747638685.0637145,-2.4732845,-1.3867577,-0.62366444,4.4065757,-3.3288884,0.012216945
571,1747638685.0647829,-2.808853,-1.2386088,-1.5461572,4.4065757,-3.3288884,0.012216945
572,1747638685.0793006,-3.0316708,-1.2725438,-2.9067245,2.256928,-1.5665178,-0.102011494
573,1747638685.0950131,-3.036793,-1.2759587,-2.9762712,-0.2890071,0.659486,-0.48447824
574,1747638685.0960972,-3.036793,-1.2759587,-2.9762712,-0.2890071,0.659486,-0.48447824
575,1747638685.1099038,-3.1593003,-1.7079045,-2.090366,-4.085423,3.5152733,-1.0660049
576,1747638685.1256573,-3.3960214,-2.0896037,-0.56021565,-5.224424,4.3417497,-0.31954947
577,1747638685.1267066,-3.3960214,-2.0896037,-0.56021565,-5.224424,4.3417497,-0.31954947
578,1747638685.1409473,-3.2190902,-1.9426744,-0.086498946,-4.7944636,3.6973057,0.4850127
579,1747638685.141948,-3.2190902,-1.9426744,-0.086498946,-4.7944636,3.6973057,0.4850127
580,1747638685.1565297,-1.6650057,-1.7799209,0.029910281,-3.3271322,1.8207066,2.3456535
581,1747638685.1723228,-0.7649532,-1.7225701,-0.16314976,-3.0081174,1.4603068,2.6438234
582,1747638685.1733239,-0.7649532,-1.7225701,-0.16314976,-3.0081174,1.4603068,2.6438234
583,1747638685.1875136,0.24858157,-1.5165824,-0.45502654,-3.836808,2.1890476,2.3444319
584,1747638685.2030354,0.17903483,-1.4650855,-0.33690992,-4.3153305,2.4926386,2.3090026
585,1747638685.2041473,-0.0769862,-1.2674216,0.0020732917,-4.8150797,2.667341,2.553418
586,1747638685.2183661,-0.09235295,-1.2356819,0.51262134,-4.960843,2.299,3.5539856
587,1747638685.2344732,0.21098791,-1.3637991,0.74422026,-4.740938,1.8109331,4.18438
588,1747638685.2355356,0.21098791,-1.3637991,0.74422026,-4.740938,1.8109331,4.18438
589,1747638685.2499118,0.86578226,-1.3679457,0.78400916,-4.1982007,1.0058364,4.6113625
590,1747638685.2655606,1.186929,-1.2432432,0.74665946,-4.130931,1.0382112,4.356028
591,1747638685.2665913,1.186929,-1.2432432,0.74665946,-4.130931,1.0382112,4.356028
592,1747638685.2807453,1.1725379,-1.2066557,0.96655035,-4.1932373,0.9985062,4.288224
593,1747638685.281746,1.1725379,-1.2066557,0.96655035,-4.1932373,0.9985062,4.288224
594,1747638685.2955532,1.1149431,-1.2064118,1.35825,-3.6885247,0.5367057,4.2821155
595,1747638685.3102238,1.040518,-1.1707696,1.4583168,-3.1731987,-0.046729814,4.2979975
596,1747638685.326164,0.8991988,-1.144152,1.2518413,-1.7644323,-1.1932901,4.6816096
597,1747638685.327221,0.8991988,-1.144152,1.2518413,-1.7644323,-1.1932901,4.6816096
598,1747638685.3417828,0.8342865,-1.0929296,1.0941796,-1.5126868,-1.2476555,4.8624206
599,1747638685.3429039,0.8342865,-1.0929296,1.0941796,-1.5126868,-1.2476555,4.8624206
600,1747638685.3573632,1.0004852,-1.1109794,0.7447081,-1.6709727,-1.0729532,5.401264
601,1747638685.3725517,1.0636901,-1.0802155,0.7534891,-1.9451667,-0.9972082,5.4880047
602,1747638685.3735554,1.0636901,-1.0802155,0.7534891,-1.9451667,-0.9972082,5.4880047
603,1747638685.3883185,1.3723972,-1.1031741,0.83721346,-2.4355245,-0.821895,5.418368
604,1747638685.4042122,1.30407,-0.9718555,1.1659522,-2.8629646,-0.39063683,5.4226437
605,1747638685.4052958,1.30407,-0.9718555,1.1659522,-2.8629646,-0.39063683,5.4226437
606,1747638685.419485,1.3001673,-0.9269748,1.3470298,-2.716514,-0.2959555,5.761053
607,1747638685.4343622,1.5476208,-0.8962108,1.381422,-2.2841105,-0.46760356,6.522169
608,1747638685.4354606,1.5476208,-0.8962108,1.381422,-2.2841105,-0.46760356,6.522169
609,1747638685.4494753,1.7648286,-0.8830393,1.2657446,-2.1065068,-0.5012002,6.73902
610,1747638685.4646044,2.2373257,-0.9166998,0.932402,-2.2062275,-0.48409647,6.55882
611,1747638685.4656053,2.2373257,-0.9166998,0.932402,-2.2062275,-0.48409647,6.55882
612,1747638685.479863,2.2978475,-0.5936017,0.8252616,-3.2168744,-0.2287623,6.2668347
613,1747638685.4951406,2.6263118,-0.47328982,1.1922952,-4.0361733,0.27648473,6.4641385
614,1747638685.4966972,2.6263118,-0.47328982,1.1922952,-4.0361733,0.27648473,6.4641385
615,1747638685.5107076,2.848398,-0.34441036,1.3885261,-4.046176,0.46279314,6.3193674
616,1747638685.5117445,2.848398,-0.34441036,1.3885261,-4.046176,0.46279314,6.3193674
617,1747638685.5265596,3.1803076,0.07314452,1.7389734,-3.539631,-0.23181653,5.837409
618,1747638685.541477,3.5114853,0.36746046,1.5859462,-3.6530194,-1.6489822,4.6266336
619,1747638685.5424778,3.8138506,0.813584,1.2298889,-3.6530194,-1.6489822,4.6266336
620,1747638685.5572224,3.8912027,1.093021,1.2201321,-4.4194036,-1.1603044,3.976692
621,1747638685.5727062,3.8045816,1.1999176,1.6096061,-5.2543554,-0.29045787,3.5338278
622,1747638685.5737085,3.5439262,1.4908187,2.5884743,-5.613839,0.2398339,3.4538069
623,1747638685.587848,3.4995334,1.7546146,3.5409994,-5.3845425,0.03451287,3.6101837
624,1747638685.6026158,3.677928,2.1385088,4.5796576,-3.503438,-0.4187358,3.8820107
625,1747638685.6037242,3.677928,2.1385088,4.5796576,-3.503438,-0.4187358,3.8820107
626,1747638685.618249,3.8494928,2.8240368,5.0543494,-0.6242095,-0.48653984,4.0622106
627,1747638685.6342282,5.224451,3.0741732,4.6221294,1.2793432,-0.12491827,3.6071293
628,1747638685.6353197,5.224451,3.0741732,4.6221294,1.2793432,-0.12491827,3.6071293
629,1747638685.6494715,6.1510906,3.1073763,4.5059643,1.8868308,0.2978644,2.6792524
630,1747638685.6645503,6.9415636,2.8079383,4.334887,2.5896869,1.2263522,0.891837
631,1747638685.6655533,7.097244,2.2790658,4.340009,3.6744754,2.0485528,-1.389143
632,1747638685.6795523,6.910556,1.730223,4.089873,4.6632843,1.8439188,-3.14174
633,1747638685.694804,5.257624,0.055582512,1.7206492,6.078312,0.37788537,-7.4788322
634,1747638685.6958563,5.257624,0.055582512,1.7206492,6.078312,0.37788537,-7.4788322
635,1747638685.7104733,4.5916395,-0.37371084,1.1139675,5.4452453,0.5617504,-8.084792
636,1747638685.7255054,3.6891482,-0.7649227,0.95581794,4.2395854,1.3601278,-8.206962
637,1747638685.7265058,3.6891482,-0.7649227,0.95581794,4.2395854,1.3601278,-8.206962
638,1747638685.740912,3.1002724,-1.1685743,1.0680805,4.3442693,1.2275739,-7.9424653
639,1747638685.741913,3.1002724,-1.1685743,1.0680805,4.3442693,1.2275739,-7.9424653
640,1747638685.7563894,2.9042852,-1.3596525,0.9938995,4.6015887,1.1451095,-8.079295
641,1747638685.7715685,2.6821992,-1.4252965,1.0180472,4.946183,0.7883747,-8.243613
642,1747638685.7725692,2.1108854,-1.4855745,0.90578455,4.946183,0.7883747,-8.243613
643,1747638685.7867224,1.7140634,-1.4594754,0.8125474,5.7443314,-0.41323817,-8.122665
644,1747638685.8022175,1.427065,-1.4265162,0.63878727,5.9842415,-0.8133431,-7.8160195
645,1747638685.8033204,1.427065,-1.4265162,0.63878727,5.9842415,-0.8133431,-7.8160195
646,1747638685.8177435,1.14153,-1.3140095,0.2705341,5.9256763,-1.2384928,-7.071397
647,1747638685.833298,1.5852145,-1.0792398,-0.19339544,4.652671,-1.2360494,-6.448333
648,1747638685.8338587,1.5852145,-1.0792398,-0.19339544,4.652671,-1.2360494,-6.448333
649,1747638685.8480983,1.857334,-1.1314684,-0.23050125,3.4825165,-0.9342909,-6.6615186
650,1747638685.863638,1.9485893,-1.1029302,0.059912033,2.2612803,-0.52685577,-7.187458
651,1747638685.8636994,1.9485893,-1.1029302,0.059912033,2.2612803,-0.52685577,-7.187458
652,1747638685.878954,1.7231189,-1.1846727,0.48896143,1.6214176,-0.29900974,-7.642539
653,1747638685.8937783,1.4541702,-1.1151261,0.77522814,1.6170654,-0.33138463,-7.7451615
654,1747638685.8952587,1.2489144,-1.0492381,0.91798043,1.9491372,-0.32100025,-7.566183
655,1747638685.9084501,1.1190897,-1.0443598,0.9360608,2.269374,-0.29290125,-7.280307
656,1747638685.9236033,1.0192667,-0.8732827,0.80742514,3.1896918,-0.59160554,-6.06411
657,1747638685.9246504,1.0192667,-0.8732827,0.80742514,3.1896918,-0.59160554,-6.06411
658,1747638685.9393613,1.2042471,-0.83056676,0.62049353,3.4644966,-0.7266028,-5.484339
659,1747638685.9550338,1.3963314,-0.8015102,0.46575886,3.6258366,-0.9165763,-5.0408645
660,1747638685.95613,1.3963314,-0.8015102,0.46575886,3.6258366,-0.9165763,-5.0408645
661,1747638685.9703844,1.5378641,-0.77882594,0.46380752,3.9286642,-1.7247273,-4.9162517
662,1747638685.9715595,1.2772391,-1.0118883,0.6680878,4.472624,-2.8658662,-5.182581
663,1747638685.9858298,1.0644218,-1.0548481,0.7369028,4.9330497,-3.4968715,-5.2192316
664,1747638686.0017319,0.4599049,-1.1112235,0.6561358,5.8471065,-4.333732,-5.0097113
665,1747638686.0027678,0.4599049,-1.1112235,0.6561358,5.8471065,-4.333732,-5.0097113
666,1747638686.0170534,-0.4730764,-1.3950509,-0.097231284,6.452761,-5.1565433,-4.166131
667,1747638686.0324705,-1.1847032,-1.0541164,-1.176654,5.014674,-4.5994506,-2.3481731
668,1747638686.0334744,-1.1847032,-1.0541164,-1.176654,5.014674,-4.5994506,-2.3481731
669,1747638686.0479293,-1.2794039,-0.9516104,-1.2322975,3.6127799,-3.4046335,-1.6469206
670,1747638686.0639832,-1.3404136,-1.0179863,-0.8520924,0.6662053,-0.77119464,-0.6597914
671,1747638686.0650322,-1.3404136,-1.0179863,-0.8520924,0.6662053,-0.77119464,-0.6597914
672,1747638686.0799468,-1.4670672,-1.1287854,-0.30248716,0.054365408,-0.01007898,-0.53151345
673,1747638686.0953612,-1.6437545,-1.3821232,0.947037,0.78768754,-0.90924615,-0.8900808
674,1747638686.09634,-1.6437545,-1.3821232,0.947037,0.78768754,-0.90924615,-0.8900808
675,1747638686.1105134,-1.9136788,-1.5321931,0.95289093,2.1709511,-2.6978834,-1.5320812
676,1747638686.1115794,-2.6502156,-1.6088438,0.22196417,2.1709511,-2.6978834,-1.5320812
677,1747638686.1257315,-2.997004,-1.6871717,-0.36008197,3.025221,-5.303223,-2.1789684
678,1747638686.1408997,-2.9589226,-1.8519069,-0.49771196,1.9933473,-4.9708457,-1.9889951
679,1747638686.1419003,-2.9589226,-1.8519069,-0.49771196,1.9933473,-4.9708457,-1.9889951
680,1747638686.1565917,-3.0189567,-1.9453574,0.17754084,-0.03229855,-2.5328782,-1.2242143
681,1747638686.1726966,-2.5987186,-1.7696459,0.66198987,-1.0167552,1.8408645,1.1905413
682,1747638686.1736965,-2.5987186,-1.7696459,0.66198987,-1.0167552,1.8408645,1.1905413
683,1747638686.187952,-2.2416859,-1.7337902,0.46966153,-1.0167552,1.8408645,1.1905413
684,1747638686.203197,-1.3209002,-1.55442,0.18583402,-1.9183658,4.779116,2.9388626
685,1747638686.2048275,-1.3209002,-1.55442,0.18583402,-1.9183658,4.779116,2.9388626
686,1747638686.2179222,-0.5570142,-1.421394,0.34203213,-2.0367174,4.5463834,3.0005581
687,1747638686.2325854,-0.119946025,-1.2886423,0.4718568,-1.7650431,3.4938936,2.8160822
688,1747638686.2335856,-0.119946025,-1.2886423,0.4718568,-1.7650431,3.4938936,2.8160822
689,1747638686.247847,0.17952266,-1.1819898,0.46575886,-1.2884296,2.1346822,2.49722
690,1747638686.263517,0.32715324,-0.6772956,0.15461268,-0.59924114,0.0009162709,2.1141424
691,1747638686.264558,0.32715324,-0.6772956,0.15461268,-0.59924114,0.0009162709,2.1141424
692,1747638686.2791255,0.50213295,-0.65266,-0.013781292,-0.5220453,0.31374642,2.8576198
693,1747638686.2948442,0.6832106,-0.5967726,-0.20656694,-1.416173,2.0852034,3.6883721
694,1747638686.2959225,0.6832106,-0.5967726,-0.20656694,-1.416173,2.0852034,3.6883721
695,1747638686.310084,0.7293414,-0.70122993,-0.11433593,-2.2703667,2.887933,4.156281
696,1747638686.325431,0.77449644,-0.8373964,0.14192902,-3.4249442,3.764499,4.704211
697,1747638686.326434,0.77449644,-0.8373964,0.14192902,-3.4249442,3.764499,4.704211
698,1747638686.3409164,0.82599336,-0.9372194,0.228306,-3.810618,3.9422555,4.9192295
699,1747638686.3419194,0.85331196,-0.9101141,0.3647469,-3.810618,3.9422555,4.9192295
700,1747638686.3561034,0.92630404,-0.90182096,0.55436164,-4.205683,3.2232883,5.293144
701,1747638686.3713334,0.94264644,-0.9442929,0.7774234,-4.026858,2.7693524,5.2827597
702,1747638686.3723338,0.94264644,-0.9442929,0.7774234,-4.026858,2.7693524,5.2827597
703,1747638686.386442,0.847458,-0.8981622,1.007071,-3.1078382,2.0632129,5.3206325
704,1747638686.4016507,0.84014046,-0.9486834,0.884076,-2.4099452,1.3607386,5.4544077
705,1747638686.4026508,0.82404196,-0.92624307,0.750806,-2.02053,0.70346695,5.5814643
706,1747638686.4171906,0.884076,-0.919139,0.62366444,-1.8149036,0.14393088,5.766551
707,1747638686.4324317,1.0312186,-0.961611,0.50871867,-1.7793981,-0.16340165,5.9797363
708,1747638686.4334319,1.1203092,-0.9760021,0.41599986,-1.8578919,-0.16095825,6.0927434
709,1747638686.4477353,1.1264071,-0.9838379,0.3957243,-2.1283445,0.28014982,6.2924905
710,1747638686.4630177,1.0849109,-1.0196936,0.5760702,-2.1950033,0.86839575,6.637008
711,1747638686.4640698,1.0849109,-1.0196936,0.5760702,-2.1950033,0.86839575,6.637008
712,1747638686.4783754,1.0646658,-0.9948142,0.84257966,-1.7974944,0.6350521,7.3248224
713,1747638686.4943185,1.7509253,-1.1156139,0.92529786,-0.88779014,-0.7901309,7.8575573
714,1747638686.4953816,1.7509253,-1.1156139,0.92529786,-0.88779014,-0.7901309,7.8575573
715,1747638686.5099776,2.1814382,-1.1080525,0.7676667,-0.48959407,-1.0955546,7.9803376
716,1747638686.5252182,2.520635,-1.0174984,0.5289638,-0.3101577,-0.8249492,8.053639
717,1747638686.526224,2.6519535,-0.8884055,0.34203213,-0.37124243,-0.30939415,8.117778
718,1747638686.5407972,2.7605574,-0.649733,0.15485659,-0.7176692,0.5305972,8.268658
719,1747638686.5417976,2.9243171,-0.17162587,0.28882784,-0.7176692,0.5305972,8.268658
720,1747638686.5560226,3.155672,0.004573438,0.52091455,-1.5233004,1.0418763,8.459853
721,1747638686.5718431,3.703783,0.20053,0.8996867,-1.2329189,0.16164546,8.034703
722,1747638686.5729878,3.703783,0.20053,0.8996867,-1.2329189,0.16164546,8.034703
723,1747638686.5876877,4.229454,0.81968194,0.52530503,-0.18371232,-1.4193037,6.35724
724,1747638686.602764,3.9756587,1.6906779,-0.23781876,-1.0597436,-0.28679278,5.5845184
725,1747638686.6038094,3.9756587,1.6906779,-0.23781876,-1.0597436,-0.28679278,5.5845184
726,1747638686.6179583,3.9895618,1.927399,-0.31931743,-2.079095,0.7926507,5.6040654
727,1747638686.6338665,4.287781,2.583901,0.43356186,-3.2161872,1.7235819,5.049416
728,1747638686.6349318,4.287781,2.583901,0.43356186,-3.2161872,1.7235819,5.049416
729,1747638686.6491327,4.701463,2.9380069,0.85526335,-3.056069,0.95086014,4.549667
730,1747638686.6642408,5.2446966,3.480264,0.9109068,-2.6286285,-0.15790401,3.1312795
731,1747638686.6653116,5.2446966,3.480264,0.9109068,-2.6286285,-0.15790401,3.1312795
732,1747638686.6796074,5.0565453,4.3886094,1.1940026,-2.0329762,0.64116055,0.8136485
733,1747638686.6946273,5.0609355,4.513312,1.637931,0.12720895,0.12438377,-1.2620867
734,1747638686.6960757,5.0609355,4.513312,1.637931,0.12720895,0.12438377,-1.2620867
735,1747638686.710091,5.288632,4.1746035,1.2325718,1.2519314,-0.5195256,-2.4391894
736,1747638686.725711,5.2381105,3.2696726,0.32617757,1.8300984,-1.4272447,-4.836841
737,1747638686.7267706,5.2381105,3.2696726,0.32617757,1.8300984,-1.4272447,-4.836841
738,1747638686.740881,4.6018844,2.6649115,-0.15067953,0.74034685,-0.945897,-6.422677
739,1747638686.7418823,4.6018844,2.6649115,-0.15067953,-0.042835664,-0.3851392,-6.7849097
740,1747638686.7560914,3.944895,2.276139,-0.09698737,-0.042835664,-0.3851392,-6.7849097
741,1747638686.771925,3.2979362,1.1383896,1.0812521,-1.7295376,1.1982533,-6.910744
742,1747638686.7729437,3.2979362,1.1383896,1.0812521,-1.7295376,1.1982533,-6.910744
743,1747638686.786702,3.101248,0.74452513,1.7284545,-1.1550359,1.4981793,-7.1538615
744,1747638686.8018084,3.0031326,0.5409767,2.0293868,-0.12636903,1.2489536,-7.3139033
745,1747638686.8028111,3.0031326,0.5409767,2.0293868,-0.12636903,1.2489536,-7.3139033
746,1747638686.816975,2.8876991,0.0875356,1.7597064,1.9298192,0.5177694,-7.7176733
747,1747638686.8322597,2.3219953,-0.31684774,0.75666,3.408375,0.23128204,-8.178863
748,1747638686.833327,2.3219953,-0.31684774,0.75666,3.408375,0.23128204,-8.178863
749,1747638686.8479342,2.040607,-0.41667065,0.43307403,3.4251733,0.13598987,-8.18375
750,1747638686.862978,1.8221796,-0.45740473,0.22245201,3.266964,0.11575556,-8.102507
751,1747638686.8640556,1.6162223,-0.5176826,0.0257637,2.8918273,0.22150849,-7.9161987
752,1747638686.8781772,1.4549019,-0.5809181,-0.052838445,2.3248847,0.43958095,-7.6785793
753,1747638686.8937888,1.3973072,-0.5836011,0.012805625,1.911112,0.55075514,-7.508153
754,1747638686.8948267,1.3973072,-0.5836011,0.012805625,1.911112,0.55075514,-7.508153
755,1747638686.909099,1.4656343,-0.66363627,0.19001108,1.487413,0.37483114,-7.343224
756,1747638686.922468,1.5051793,-0.72976816,0.29346225,1.3304254,0.114533864,-7.2729764
757,1747638686.9236193,1.5051793,-0.72976816,0.29346225,1.3304254,0.114533864,-7.2729764
758,1747638686.9378288,1.3941362,-0.71879196,0.3556915,1.326073,0.06994201,-7.2613707
759,1747638686.9533975,1.2860202,-0.70684004,0.44209895,1.3553174,-0.00335966,-7.21067
760,1747638686.9544039,1.2860202,-0.70684004,0.44209895,1.3553174,-0.00335966,-7.21067
761,1747638686.9694977,1.1434814,-0.71952367,0.5789972,1.7852775,-0.35704023,-6.95839
762,1747638686.9846725,1.0922589,-0.6592458,0.5111579,1.8724759,-0.34971005,-6.8850884
763,1747638686.9856732,0.99292374,-0.5733261,0.48091224,1.9628049,-0.31428093,-6.4691014
764,1747638686.9999177,0.98097193,-0.5306407,0.46356362,1.9753274,-0.39124766,-6.037843
765,1747638687.0151687,0.9548423,-0.28876686,0.35544756,1.9404327,-0.149963,-5.0439186
766,1747638687.0161998,0.9548423,-0.28876686,0.35544756,1.9404327,-0.149963,-5.0439186
767,1747638687.0312417,0.89041775,-0.19092578,0.34788615,1.8818676,0.1414875,-4.4123025
768,1747638687.0323503,0.89041775,-0.19092578,0.34788615,1.8818676,0.1414875,-4.4123025
769,1747638687.0471175,0.6566237,-0.15503953,0.5377753,2.0830655,0.021685077,-3.6450784
770,1747638687.0626943,0.46456978,-0.5042672,0.764008,3.4059317,-0.94834036,-2.7049081
771,1747638687.0637276,0.46456978,-0.5042672,0.764008,3.4059317,-0.94834036,-2.7049081
772,1747638687.078734,0.37108874,-0.6365615,0.5407023,4.113751,-1.4718364,-2.4911115
773,1747638687.0945542,0.26321658,-0.91352886,-0.17583343,4.475067,-1.6624209,-2.2797582
774,1747638687.0955732,0.26321658,-0.91352886,-0.17583343,4.475067,-1.6624209,-2.2797582
775,1747638687.1096694,0.08067544,-0.9989607,-0.5482332,3.9018633,-1.2702569,-1.8460568
776,1747638687.1257288,-0.31517082,-0.96746504,-0.9355424,1.9472283,0.1390441,-1.2816339
777,1747638687.1268337,-0.31517082,-0.96746504,-0.9355424,1.9472283,0.1390441,-1.2816339
778,1747638687.1405282,-0.38349798,-1.0985397,-0.93822545,1.2058125,0.7541673,-1.1545777
779,1747638687.1564558,-1.0158215,-1.3967583,-0.53457385,-0.2933594,2.415061,-1.2382637
780,1747638687.157458,-1.0158215,-1.3967583,-0.53457385,-0.2933594,2.415061,-1.2382637
781,1747638687.1716063,-1.372885,-1.6322598,-0.34154433,0.26556584,2.1517859,-1.4227396
782,1747638687.172689,-1.372885,-1.6322598,-0.34154433,0.26556584,2.1517859,-1.4227396
783,1747638687.1868088,-2.138448,-1.7462299,-0.041099958,1.1871053,1.107237,-1.4221288
784,1747638687.2016933,-2.3202572,-1.7654994,-0.20827435,1.8687345,0.07666133,-1.3934189
785,1747638687.2026937,-2.3202572,-1.7654994,-0.20827435,1.8687345,0.07666133,-1.3934189
786,1747638687.2170346,-2.5381968,-1.7293997,-0.9992351,2.4806507,-2.1767542,-1.2639194
787,1747638687.2331545,-2.4967005,-1.7584258,-1.4158448,1.6232502,-2.2867067,-1.1845092
788,1747638687.2341578,-2.4967005,-1.7584258,-1.4158448,1.6232502,-2.2867067,-1.1845092
789,1747638687.2483635,-2.4134946,-1.8028492,-1.3804464,-0.12140589,-1.1786298,-0.97071266
790,1747638687.2635415,-2.3849256,-1.7674507,-0.7918145,-2.2834997,1.0742513,0.18936265
791,1747638687.2645857,-2.3849256,-1.7674507,-0.7918145,-2.2834997,1.0742513,0.18936265
792,1747638687.2786696,-2.255833,-1.7052215,-0.62683535,-2.6342788,1.2294065,1.0085088
793,1747638687.2947712,-1.7677555,-1.5402423,-0.56850874,-3.002467,1.2458993,2.0463383
794,1747638687.2957716,-1.7677555,-1.5402423,-0.56850874,-3.002467,1.2458993,2.0463383
795,1747638687.3107927,-1.2859898,-1.4011488,-0.51506054,-3.2636042,1.8500273,2.588236
796,1747638687.3118026,-1.2859898,-1.4011488,-0.51506054,-3.2636042,1.8500273,2.588236
797,1747638687.326859,-0.89526564,-1.2195834,-0.35691106,-3.5414634,2.4205587,3.2736068
798,1747638687.3425293,-0.6568371,-1.1341516,-0.240014,-3.5507789,2.0418334,3.6517212
799,1747638687.3436692,-0.6568371,-1.1341516,-0.240014,-3.5507789,2.0418334,3.6517212
800,1747638687.3578787,0.11140894,-1.0577751,-0.36496034,-3.7664077,0.70346695,4.77568
801,1747638687.3738976,0.42014647,-0.97822785,-0.41109106,-4.0037985,0.67597884,5.14593
802,1747638687.374927,0.7115354,-0.86645305,-0.4320679,-4.0037985,0.67597884,5.14593
803,1747638687.3895023,0.9277676,-0.80910206,-0.4176768,-4.7116175,0.80547845,5.698136
804,1747638687.404888,1.4761227,-0.65387964,0.11897036,-5.6094866,0.63383037,6.0267715
805,1747638687.4058893,1.4761227,-0.65387964,0.11897036,-5.6094866,0.63383037,6.0267715
806,1747638687.4206994,1.5390837,-0.5662525,0.4748143,-5.648123,0.5965687,5.7915955
807,1747638687.4217002,1.5390837,-0.5662525,0.4748143,-5.648123,0.5965687,5.7915955
808,1747638687.4355636,1.4824646,-0.51914614,1.0095102,-4.960843,0.5458684,5.2522173
809,1747638687.4507103,1.3516642,-0.5284454,1.1608299,-4.071068,0.3729986,4.9076233
810,1747638687.4518065,1.3516642,-0.5284454,1.1608299,-4.071068,0.3729986,4.9076233
811,1747638687.4657688,1.2333037,-0.4984132,0.9709408,-3.3776035,0.17019732,4.7475815
812,1747638687.4815826,1.220376,-0.5023159,0.84038436,-2.411167,-0.6838435,4.7420835
813,1747638687.4826114,1.220376,-0.5023159,0.84038436,-2.411167,-0.6838435,4.7420835
814,1747638687.4969177,1.318949,-0.45959997,0.45209953,-1.9663173,-1.1187668,4.7506356
815,1747638687.5116925,1.3662992,-0.4791438,0.33642206,-2.0037317,-1.002095,4.6693926
816,1747638687.5126944,1.3662992,-0.4791438,0.33642206,-2.0037317,-1.002095,4.6693926
817,1747638687.527594,1.3584939,-0.5008524,0.300048,-2.1756852,-0.63253236,4.5264544
818,1747638687.5435374,1.2721169,-0.3422151,0.6375677,-2.0361066,-0.9929322,4.356639
819,1747638687.5447588,1.2721169,-0.3422151,0.6375677,-2.0361066,-0.9929322,4.356639
820,1747638687.5583138,1.2020519,-0.26291168,0.76498365,-1.6921233,-1.3869287,4.3230424
821,1747638687.5743794,1.0029244,-0.17113803,0.80327857,-0.90336674,-1.8090242,4.512405
822,1747638687.5754442,1.0029244,-0.17113803,0.80327857,-0.90336674,-1.8090242,4.512405
823,1747638687.5893667,0.9365486,-0.15211253,0.73202443,-0.30389652,-1.8640004,4.8654747
824,1747638687.6045825,1.2721169,-0.08183405,0.15949102,-0.09147438,-1.5671287,5.7360086
825,1747638687.6055822,1.2721169,-0.08183405,0.15949102,-0.09147438,-1.5671287,5.7360086
826,1747638687.6197295,1.4502676,0.031892106,0.08848077,-0.43729028,-1.470004,5.961411
827,1747638687.6353948,1.9329786,0.28376657,0.4127985,-1.7750458,-0.96055734,6.5276666
828,1747638687.6364284,1.9329786,0.28376657,0.4127985,-1.7750458,-0.96055734,6.5276666
829,1747638687.6508923,2.2009516,0.275199,0.8469702,-2.0037317,-0.7351547,6.4635277
830,1747638687.6519017,2.2009516,0.275199,0.8469702,-2.0037317,-0.7351547,6.4635277
831,1747638687.6665947,2.5413983,0.221019,1.384593,-1.1924502,-0.23853585,5.61445
832,1747638687.6813767,2.2983353,0.81577927,1.2020519,-0.34879377,-0.32161108,5.097673
833,1747638687.6823766,2.2983353,0.81577927,1.2020519,0.54342496,-1.1212101,4.85509
834,1747638687.6961634,2.2736692,1.0600618,0.64317775,0.83197397,-1.7638215,4.7995033
835,1747638687.7118862,2.3071163,1.2177235,0.24687417,0.7391252,-1.8969861,4.736586
836,1747638687.7128885,2.3071163,1.2177235,0.24687417,0.7391252,-1.8969861,4.736586
837,1747638687.7266304,2.5089269,1.5625607,-0.22976951,-0.83166856,-0.9318475,4.556997
838,1747638687.741894,2.605579,1.7129048,-0.12921485,-1.6074445,-0.27091077,4.385349
839,1747638687.742955,2.605579,1.7129048,-0.12921485,-1.6074445,-0.27091077,4.385349
840,1747638687.7570972,2.6751256,1.9049586,0.15290527,-2.1108592,0.14087665,4.2277503
841,1747638687.7731905,3.2837892,3.1161575,0.54460496,-1.9999902,-1.3124053,3.2497838
842,1747638687.7741914,3.2837892,3.1161575,0.54460496,-1.9999902,-1.3124053,3.2497838
843,1747638687.7889862,3.5119731,3.2574766,0.50847477,-2.1046743,-1.2763654,2.580295
844,1747638687.804702,3.729669,3.4717271,0.59171134,-2.2448637,-0.7241594,1.7122048
845,1747638687.8057003,3.729669,3.4717271,0.59171134,-2.2448637,-0.7241594,1.7122048
846,1747638687.8199034,3.7379622,3.5073693,0.9597206,-2.1756852,0.030236939,0.10323319
847,1747638687.8346052,3.664482,3.023896,1.0395119,-1.9457775,0.303362,-1.6585267
848,1747638687.8357005,3.664482,3.023896,1.0395119,-1.9457775,0.303362,-1.6585267
849,1747638687.8504755,3.5451458,2.732263,1.163757,-2.0516832,0.4530196,-2.292586
850,1747638687.8653417,3.3120832,2.13485,1.6996723,-1.833,0.647269,-3.1979382
851,1747638687.8663447,3.3120832,2.13485,1.6996723,-1.833,0.647269,-3.1979382
852,1747638687.8805726,3.085119,1.7040932,1.8795304,-0.12514733,0.61122906,-4.242487
853,1747638687.8815749,3.085119,1.7040932,1.8795304,-0.12514733,0.61122906,-4.242487
854,1747638687.8959572,2.9845948,1.5093564,1.8656272,-0.12514733,0.61122906,-4.242487
855,1747638687.911713,2.8149812,1.1332674,1.460756,0.96154994,0.6588751,-4.8563886
856,1747638687.9127128,2.6787844,1.0151507,1.1983931,1.1628242,0.7761578,-5.1563144
857,1747638687.926799,2.4549906,0.9599951,1.0910088,1.1877161,0.93436724,-5.43425
858,1747638687.9428067,2.2282703,0.92633456,1.0875939,1.1235771,1.1200649,-5.541148
859,1747638687.9439316,2.2282703,0.92633456,1.0875939,1.1235771,1.1200649,-5.541148
860,1747638687.957605,2.1238434,0.7415982,1.3238273,1.3179793,1.3491325,-5.5466456
861,1747638687.9727457,2.188268,0.4372511,1.2867519,2.2070675,1.2733874,-6.018907
862,1747638687.9737465,2.188268,0.4372511,1.2867519,2.2070675,1.2733874,-6.018907
863,1747638687.9880133,2.1538453,0.29205972,1.0336579,2.680016,1.3546301,-6.4080167
864,1747638688.0033815,2.0950308,0.20272525,0.8247738,2.8825119,1.7144192,-6.886921
865,1747638688.0045116,2.0950308,0.20272525,0.8247738,2.8825119,1.7144192,-6.886921
866,1747638688.0185218,1.8787986,-0.08012662,0.5170119,2.9036624,1.7571785,-7.1966205
867,1747638688.0345607,1.7731217,-0.19873111,0.45697787,2.9566534,1.5733135,-7.393924
868,1747638688.035612,1.7731217,-0.19873111,0.45697787,2.9566534,1.5733135,-7.393924
869,1747638688.0497105,1.6049716,-0.3863945,0.23635526,2.999031,1.1628242,-7.6339874
870,1747638688.0651567,1.4102347,-0.39054108,-0.08747462,2.6469538,0.6069531,-7.3841505
871,1747638688.0651567,1.4102347,-0.39054108,-0.08747462,2.6469538,0.6069531,-7.3841505
872,1747638688.0804782,1.4658782,-0.336605,-0.28760824,2.3304586,0.5031091,-7.219222
873,1747638688.0964353,1.7770244,-0.349807,-0.43475097,0.89489126,0.7877639,-6.9761047
874,1747638688.0974371,1.7770244,-0.349807,-0.43475097,0.89489126,0.7877639,-6.9761047
875,1747638688.112362,1.734095,-0.47133848,0.046252698,0.3067217,0.8097544,-7.0805597
876,1747638688.113362,1.734095,-0.47133848,0.046252698,-0.0023670332,0.8903862,-7.2601485
877,1747638688.1271608,1.5424986,-0.50036454,0.29199874,0.07177455,0.97773737,-7.273587
878,1747638688.1425455,1.3458103,-0.48987612,0.51213354,0.38956785,0.9013815,-7.186847
879,1747638688.1435995,1.3458103,-0.48987612,0.51213354,0.38956785,0.9013815,-7.186847
880,1747638688.1581438,1.0783252,-0.57677144,0.57972896,1.403956,0.45851722,-6.911966
881,1747638688.173722,0.88992995,-0.39273635,0.31812832,2.1921017,0.09804098,-6.2748523
882,1747638688.1747227,0.88992995,-0.39273635,0.31812832,2.1921017,0.09804098,-6.2748523
883,1747638688.1888173,0.96630645,-0.33806852,-0.0028050416,2.183397,-0.024739314,-6.067164
884,1747638688.204927,0.91846824,-0.32684833,-0.29395008,1.4226632,0.16714308,-5.6205583
885,1747638688.2059274,0.91846824,-0.32684833,-0.29395008,1.4226632,0.16714308,-5.6205583
886,1747638688.2206926,0.73226833,-0.29757833,-0.16217409,1.2549857,0.074217945,-5.37683
887,1747638688.2216918,0.73226833,-0.29757833,-0.16217409,1.2549857,0.074217945,-5.37683
888,1747638688.236509,0.50847477,-0.30660325,-0.022318374,1.3540957,-0.25014195,-5.070185
889,1747638688.2517273,-0.07601053,-0.56454515,-0.63293326,1.8980552,-1.0705098,-4.287079
890,1747638688.2528028,-0.07601053,-0.56454515,-0.63293326,1.8980552,-1.0705098,-4.287079
891,1747638688.2669504,-0.18046784,-0.8230053,-0.9753313,1.3403516,-0.5244124,-3.1899972
892,1747638688.2829344,-0.34666657,-0.95673263,-1.0375606,0.7496623,0.22211933,-2.9064877
893,1747638688.2839627,-0.34666657,-0.95673263,-1.0375606,0.7496623,0.22211933,-2.9064877
894,1747638688.2980533,-0.8259628,-1.2317792,-0.8896556,-0.6360447,1.7119758,-1.9951035
895,1747638688.313579,-1.1420178,-1.574909,-0.58289987,-1.0017895,2.3729126,-1.6475314
896,1747638688.3146472,-1.1420178,-1.574909,-0.58289987,-1.0017895,2.3729126,-1.6475314
897,1747638688.3296187,-1.7897081,-1.7530596,-0.06722953,-0.16065283,2.0632129,-1.7306067
898,1747638688.345621,-2.2487593,-1.8094349,-0.15680793,1.7784054,0.53914905,-1.3873105
899,1747638688.346671,-2.2487593,-1.8094349,-0.15680793,1.7784054,0.53914905,-1.3873105
900,1747638688.3617349,-2.3863893,-1.9290149,-0.5494528,2.6731439,-0.41751412,-0.75997037
901,1747638688.362735,-2.450082,-1.9549006,-0.72760344,2.6731439,-0.41751412,-0.75997037
902,1747638688.3776298,-2.5006032,-1.9126726,-0.9370059,2.7753081,-0.837777,-0.31771693
903,1747638688.392531,-2.369315,-1.8743471,-1.3074849,2.0264094,-0.69056284,0.8411367
904,1747638688.3935657,-2.369315,-1.8743471,-1.3074849,2.0264094,-0.69056284,0.8411367
905,1747638688.4076622,-2.3170865,-1.7715973,-1.267452,1.4002147,-0.19577655,1.4544274
906,1747638688.4227526,-2.193116,-1.7005872,-1.1896122,0.7933379,0.28259322,2.0744374
907,1747638688.4238627,-2.193116,-1.7005872,-1.1896122,0.7933379,0.28259322,2.0744374
908,1747638688.4387712,-1.7352841,-1.5185337,-1.1022289,-0.2267007,0.9404757,3.0860767
909,1747638688.4541166,-0.7134563,-1.315717,-1.0802765,-2.11147,1.5763677,3.6895938
910,1747638688.4552097,-0.7134563,-1.315717,-1.0802765,-2.11147,1.5763677,3.6895938
911,1747638688.4702148,-0.620463,-1.181014,-0.885509,-2.682841,1.831091,3.8667395
912,1747638688.4858003,-0.22611076,-0.92355996,-0.368863,-3.002467,1.2917129,4.5673814
913,1747638688.4868672,-0.22611076,-0.92355996,-0.368863,-3.002467,1.2917129,4.5673814
914,1747638688.5006044,0.11628727,-0.8339815,-0.3661799,-2.9594786,0.9447516,4.9167857
915,1747638688.5158083,0.76230055,-0.72976816,-0.47405204,-3.0081174,0.56602633,5.141043
916,1747638688.5168905,0.76230055,-0.72976816,-0.47405204,-3.0081174,0.56602633,5.141043
917,1747638688.5309048,0.93947554,-0.75248295,-0.4994194,-3.4093676,0.18607935,5.1318808
918,1747638688.531974,1.0204864,-0.76906925,-0.4867357,-3.4093676,0.18607935,5.1318808
919,1747638688.54629,1.0124371,-0.7053765,-0.27590024,-4.137116,0.67720056,4.5771546
920,1747638688.5623293,0.9389877,-0.7783381,-0.015488708,-4.2149987,0.4658474,4.4348273
921,1747638688.5634234,0.9389877,-0.7783381,-0.015488708,-4.2149987,0.4658474,4.4348273
922,1747638688.5780194,0.7998637,-0.80370545,0.29346225,-3.8661287,-0.5360185,4.623579
923,1747638688.5932624,0.91749257,-0.7829725,0.3720644,-3.2417665,-1.2745328,5.270543
924,1747638688.594273,0.91749257,-0.7829725,0.3720644,-3.2417665,-1.2745328,5.270543
925,1747638688.6088793,1.0458841,-0.7666301,0.36303946,-3.1059291,-1.2427688,5.5790205
926,1747638688.624748,1.2682142,-0.8015102,0.32007965,-3.1626618,-0.95689225,5.8954396
927,1747638688.6257515,1.2682142,-0.8015102,0.32007965,-3.1626618,-0.95689225,5.8954396
928,1747638688.6396868,1.3516642,-0.83203024,0.39499256,-3.3364477,-0.6398625,5.9052134
929,1747638688.654961,1.3873066,-0.87938064,0.5011573,-3.3912714,-0.61603945,5.885666
930,1747638688.656006,1.3873066,-0.87938064,0.5011573,-3.3912714,-0.61603945,5.885666
931,1747638688.670523,1.4981058,-0.9606353,0.8611173,-3.0467534,-1.1908467,5.7476144
932,1747638688.6715744,1.4981058,-0.9606353,0.8611173,-3.0467534,-1.1908467,5.7476144
933,1747638688.6852877,1.5532614,-0.82081,1.2303767,-1.4797012,-2.5353215,5.2766514
934,1747638688.7006059,1.5349371,-0.7217189,1.0929601,-0.63543385,-2.8200526,5.1495953
935,1747638688.7167046,1.4160888,-0.54234874,0.64735484,0.048104223,-2.4424727,5.230838
936,1747638688.7177687,1.4160888,-0.54234874,0.64735484,0.048104223,-2.4424727,5.230838
937,1747638688.732143,1.3577621,-0.5440562,0.5221341,0.026266431,-1.9708986,5.453186
938,1747638688.7331443,1.3858432,-0.59286994,0.53167737,0.026266431,-1.9708986,5.453186
939,1747638688.746944,1.4644147,-0.57015526,0.49774244,-0.40735877,-1.377766,6.246066
940,1747638688.7624497,1.5759456,-0.5008524,0.46697846,-0.60985464,-1.3576081,6.4079404
941,1747638688.763509,1.641102,-0.38566273,0.44624552,-0.8896227,-1.3405043,6.538662
942,1747638688.7776785,1.6491511,-0.10183521,0.41499373,-1.2155097,-1.1169342,6.7219157
943,1747638688.7928157,1.7355586,0.051405437,0.49164456,-1.4834425,-0.96483326,6.9088354
944,1747638688.7938688,1.7355586,0.051405437,0.49164456,-1.4834425,-0.96483326,6.9088354
945,1747638688.808835,2.3502896,0.16882083,0.5921992,-2.0167885,-0.8640435,6.921663
946,1747638688.8237789,2.8237622,0.47167388,1.0473478,-2.4666777,-0.31489176,5.659042
947,1747638688.8248572,2.8237622,0.47167388,1.0473478,-2.4666777,-0.31489176,5.659042
948,1747638688.8390315,2.728086,0.69693094,1.2637932,-2.451101,-0.10292777,5.1276045
949,1747638688.8547447,2.485267,0.95243365,1.484172,-2.2691448,-0.065055236,4.533785
950,1747638688.8558903,2.485267,0.95243365,1.484172,-2.2691448,-0.065055236,4.533785
951,1747638688.870213,2.257083,1.318766,1.7111365,-1.9164569,-0.70155805,4.3065495
952,1747638688.8856158,2.847666,1.6499133,1.5644815,-1.2535349,-1.0027058,4.0176187
953,1747638688.8866456,2.847666,1.6499133,1.5644815,-1.2535349,-1.0027058,4.0176187
954,1747638688.9007638,3.101492,1.8802925,1.4556336,-1.1619078,-1.1089932,3.7201362
955,1747638688.9017653,3.101492,1.8802925,1.4556336,-1.1619078,-1.1089932,3.7201362
956,1747638688.916216,3.7062225,2.4113603,1.1317734,-1.7812306,-0.7748597,2.988341
957,1747638688.9314964,4.003953,3.719455,2.1099098,-2.4304848,1.1402228,1.7549642
958,1747638688.932562,4.003953,3.719455,2.1099098,-2.4304848,1.1402228,1.7549642
959,1747638688.9469125,4.245339,3.8717196,2.6382637,-1.9295901,1.6771575,0.863738
960,1747638688.9629102,4.33879,4.02182,2.8781862,-0.8373189,1.5891955,-0.3873535
961,1747638688.9639826,4.33879,4.02182,2.8781862,0.42194274,1.0883007,-1.7721442
962,1747638688.9781842,4.0991416,3.8795252,2.2038786,1.5048985,0.6558209,-3.241919
963,1747638688.9938853,3.9976113,3.583502,1.7443397,1.9123337,0.5446467,-4.226605
964,1747638688.9950347,3.9976113,3.583502,1.7443397,1.88622,0.53548396,-5.0836234
965,1747638689.0097566,3.6330168,2.9084623,1.024877,1.606452,0.5977904,-5.577799
966,1747638689.0250137,3.13686,1.9725542,1.1281146,-0.027946262,1.0919658,-6.090987
967,1747638689.0260172,3.13686,1.9725542,1.1281146,-0.027946262,1.0919658,-6.090987
968,1747638689.040787,3.068045,1.6940928,1.4316994,-0.30023143,1.2813284,-6.104426
969,1747638689.0417879,3.068045,1.6940928,1.4316994,-0.30023143,1.2813284,-6.104426
970,1747638689.0561118,2.890626,1.0756725,2.091128,0.27556846,1.2770525,-6.227817
971,1747638689.0716274,2.767875,0.6949796,2.2011955,1.3945643,1.063256,-6.426342
972,1747638689.0726285,2.767875,0.6949796,2.2011955,1.3945643,1.063256,-6.426342
973,1747638689.0867798,2.6036277,0.36428955,1.6132649,2.9822326,1.1835929,-6.8069
974,1747638689.1025605,2.2443993,0.18565106,0.9724043,3.356682,1.1671001,-6.9284587
975,1747638689.1035898,2.2443993,0.18565106,0.9724043,3.676308,0.8812235,-7.0274158
976,1747638689.1176732,2.0415826,0.14220342,0.6749174,3.6463764,0.5226562,-7.013366
977,1747638689.1328678,1.9542298,0.11122601,0.4115789,3.4856472,0.37360945,-6.971218
978,1747638689.1338708,1.9542298,0.11122601,0.4115789,3.1647997,0.23922306,-6.959612
979,1747638689.1476884,1.9190754,0.020184105,0.14583169,2.7934046,0.10353861,-7.047574
980,1747638689.163299,1.8522118,-0.0415573,-0.06576603,1.6705909,0.3070271,-7.4660044
981,1747638689.164374,1.7597064,-0.06183288,-0.15409435,1.6705909,0.3070271,-7.4660044
982,1747638689.178606,1.6120757,-0.05350922,-0.1372641,1.2207782,0.70407784,-7.579011
983,1747638689.1944351,1.4363643,-0.031800635,0.0028050416,0.7291226,0.7309551,-7.451344
984,1747638689.1954925,1.4363643,-0.031800635,0.0028050416,0.7291226,0.7309551,-7.451344
985,1747638689.209567,1.475147,-0.065491624,-0.0032928751,0.5976377,0.4658474,-7.349943
986,1747638689.2249105,1.5068867,-0.13259919,0.00060979166,0.43942824,0.29419932,-7.270533
987,1747638689.225912,1.5424986,-0.16211312,0.019665781,0.43942824,0.29419932,-7.270533
988,1747638689.2395842,1.5625302,-0.25974077,0.013293459,0.330392,0.06810947,-7.1703544
989,1747638689.254852,1.3770316,-0.37980875,-0.03866079,0.1253764,0.32596338,-7.007869
990,1747638689.255973,1.3770316,-0.37980875,-0.03866079,0.1253764,0.32596338,-7.007869
991,1747638689.2779984,1.1049424,-0.27291226,0.07969977,0.10544751,0.6350521,-6.4776535
992,1747638689.2796307,1.1049424,-0.27291226,0.07969977,0.10544751,0.6350521,-6.4776535
993,1747638689.293274,0.9636233,-0.32392135,0.29614532,0.22815146,0.32596338,-5.545424
994,1747638689.2942853,0.9636233,-0.32392135,0.29614532,0.22815146,0.32596338,-5.545424
995,1747638689.3086329,0.92630404,-0.34001982,0.36255166,0.4892123,0.1427092,-5.141043
996,1747638689.3238115,0.9465491,-0.415695,0.4071884,0.8699229,0.07727218,-4.7843084
997,1747638689.3248608,0.9465491,-0.415695,0.4071884,0.8699229,0.07727218,-4.7843084
998,1747638689.3394752,0.9345972,-0.5321042,0.39962697,1.6182871,-0.088878274,-4.46789
999,1747638689.3555214,0.7813261,-0.70586437,0.063326865,2.7192628,-0.5012002,-4.242487
