id,timestamp,acc_x,acc_y,acc_z,gyro_x,gyro_y,gyro_z
0,1747638637.2077665,0.09482261,0.84431756,0.44502598,0.1577513,-1.5689611,-0.74225575
1,1747638637.2238166,0.08555377,0.70449233,0.10604277,-0.60985464,-1.0350807,-0.82594186
2,1747638637.2395394,-0.03378246,0.5936932,0.0594242,-1.448548,-0.7754706,-0.8632035
3,1747638637.2395394,-0.03378246,0.5936932,0.0594242,-2.008695,-1.0143119,-0.75202936
4,1747638637.2547069,-0.0769862,0.6039377,0.14070943,-2.008695,-1.0143119,-0.75202936
5,1747638637.2704768,0.09238344,0.7340062,0.4642954,-2.553265,-1.5463598,-0.2327328
6,1747638637.2715852,0.09238344,0.7340062,0.4642954,-2.553265,-1.5463598,-0.2327328
7,1747638637.2861266,0.36084422,0.4413977,0.6226888,-2.0199192,-1.0564604,0.34879377
8,1747638637.3013632,0.30568856,0.17906532,0.46673456,-1.7445034,-0.5427378,0.21929416
9,1747638637.3023634,0.30568856,0.17906532,0.46673456,-1.7445034,-0.5427378,0.21929416
10,1747638637.3166394,0.07335794,0.10973201,0.3312998,-1.6323366,0.5305972,-0.3482593
11,1747638637.3323112,-0.20949392,0.3416053,0.38304064,-1.5986637,0.47684264,-0.070858285
12,1747638637.3333125,-0.20949392,0.3416053,0.38304064,-1.5986637,0.47684264,-0.070858285
13,1747638637.3475146,-0.14189851,0.3401418,0.34105647,-1.558195,0.30275118,0.2131857
14,1747638637.3485816,-0.14189851,0.3401418,0.34105647,-1.558195,0.30275118,0.2131857
15,1747638637.3635862,-0.028660208,0.27178416,0.4269761,-1.5102435,0.0027488125,0.47462833
16,1747638637.3788934,0.036496032,0.035550855,0.7637641,-1.5830871,0.3290176,0.40804598
17,1747638637.3794463,0.036496032,0.035550855,0.7637641,-1.5830871,0.3290176,0.40804598
18,1747638637.3942149,0.09140777,0.18345582,0.6705269,-1.4012072,-0.45599747,0.28098974
19,1747638637.4101295,0.15802751,0.4282262,0.89139354,-0.7911999,-2.1315515,-0.061695572
20,1747638637.4111972,0.15802751,0.4282262,0.89139354,-0.7911999,-2.1315515,-0.061695572
21,1747638637.4250963,0.44648945,0.41822565,0.838677,-0.2902288,-3.6624112,-0.69583136
22,1747638637.4407516,0.52582335,0.48728454,0.83940876,-0.25098187,-3.747319,-1.1747357
23,1747638637.4417517,0.52582335,0.48728454,0.83940876,-0.25098187,-3.747319,-1.1747357
24,1747638637.4559252,0.42429304,0.66665477,0.9363047,-0.5587725,-3.3178933,-1.7037294
25,1747638637.471232,0.37621096,0.7691607,1.0534456,-0.8279271,-3.1938913,-1.8320073
26,1747638637.4723215,0.37621096,0.7691607,1.0534456,-0.8279271,-3.1938913,-1.8320073
27,1747638637.486558,0.37401572,0.9097177,1.3826417,-1.5962203,-2.9935334,-1.8539978
28,1747638637.5025566,0.4511239,1.0676233,2.2961094,-2.3488605,-2.488897,-1.5870576
29,1747638637.503672,0.56143516,1.1982101,2.7683628,-2.3488605,-2.488897,-1.5870576
30,1747638637.5178492,0.80279076,1.282148,3.409223,-1.3775369,-2.1126153,-1.3408861
31,1747638637.5188806,0.80279076,1.282148,3.409223,-1.3775369,-2.1126153,-1.3408861
32,1747638637.5334287,1.0841792,1.4688357,3.844584,0.66559446,-2.5677729,-1.7923023
33,1747638637.5485775,1.2508656,1.6609201,3.4258096,2.7640839,-2.409487,-2.6126702
34,1747638637.549578,1.2508656,1.6609201,3.4258096,2.7640839,-2.409487,-2.6126702
35,1747638637.5644748,1.3795012,1.702386,2.9128225,3.3155262,-0.88114715,-3.5198545
36,1747638637.579406,1.4338946,1.6711645,2.9643192,3.200916,-0.3063399,-3.850323
37,1747638637.5804348,1.4338946,1.6711645,2.9643192,3.200916,-0.3063399,-3.850323
38,1747638637.5946515,1.3450785,1.5771956,3.0163043,3.1074564,0.17141901,-4.200949
39,1747638637.6099865,1.2403772,1.3587682,3.0641422,2.9740627,0.58801687,-4.3335032
40,1747638637.6110544,1.3628844,1.1889108,3.0245972,2.9740627,0.58801687,-4.3335032
41,1747638637.6254706,1.5639937,0.94194525,2.9877353,3.149223,0.40598437,-4.4287953
42,1747638637.6415148,1.7411687,0.7313232,2.8408365,3.3286595,0.39010233,-4.614493
43,1747638637.6426048,1.7411687,0.7313232,2.8408365,3.3286595,0.39010233,-4.614493
44,1747638637.657063,1.8783108,0.26202747,2.4083722,4.0351806,1.2404017,-5.4800634
45,1747638637.6722984,1.7445835,0.08948693,2.220465,4.4022236,1.603245,-5.803278
46,1747638637.6732986,1.7445835,0.08948693,2.220465,4.4022236,1.603245,-5.803278
47,1747638637.68798,1.3350779,-0.012531219,1.7565354,5.0128417,1.5934714,-6.0018034
48,1747638637.6889825,1.3350779,-0.012531219,1.7565354,5.0128417,1.5934714,-6.0018034
49,1747638637.7029288,1.1632692,-0.056436222,1.4260893,4.9574075,0.7718819,-5.76846
50,1747638637.718309,0.9841428,-0.102810875,0.70568144,4.7336845,0.21662171,-5.691493
51,1747638637.719394,0.9841428,-0.102810875,0.70568144,4.7336845,0.21662171,-5.691493
52,1747638637.7340014,1.0256087,-0.13333096,0.41328633,4.3685503,-0.29167956,-5.637662
53,1747638637.7499743,1.0766177,-0.19556019,0.013293459,3.3472903,-0.2751867,-5.605898
54,1747638637.7510254,1.0766177,-0.19556019,0.013293459,3.3472903,-0.2751867,-5.605898
55,1747638637.7647676,0.85233635,-0.3405077,0.06649778,2.9236677,0.02351762,-5.5686364
56,1747638637.7806242,0.7725451,-0.4022491,0.14924651,2.6401582,0.4243098,-5.5044975
57,1747638637.7816262,0.7725451,-0.4022491,0.14924651,2.6401582,0.4243098,-5.5044975
58,1747638637.798183,0.42478088,-0.5494223,0.38157713,3.3934093,-0.30389652,-5.436693
59,1747638637.7992983,0.42478088,-0.5494223,0.38157713,3.3934093,-0.30389652,-5.436693
60,1747638637.8133466,0.2710219,-0.616042,0.21050009,3.9423318,-1.1694671,-5.3847713
61,1747638637.8282409,0.14802693,-0.63387847,-0.30175543,4.152998,-1.7528262,-5.261991
62,1747638637.829246,0.14802693,-0.63387847,-0.30175543,4.152998,-1.7528262,-5.261991
63,1747638637.843464,-0.013293459,-0.6148225,-0.630738,3.9467604,-1.6465387,-5.1654773
64,1747638637.8586645,-0.36544815,-0.5611303,-0.9450551,2.288692,-1.1480874,-4.3133454
65,1747638637.8592627,-0.36544815,-0.5611303,-0.9450551,2.288692,-1.1480874,-4.3133454
66,1747638637.8739126,-0.40987146,-0.57478964,-0.9619159,1.5023788,-0.8206733,-3.8717027
67,1747638637.889457,-0.48868704,-0.627994,-0.6817471,0.282975,0.067498624,-3.2559686
68,1747638637.889457,-0.48868704,-0.627994,-0.6817471,0.282975,0.067498624,-3.2559686
69,1747638637.9054239,-0.6331772,-0.75272685,-0.12628786,0.070552856,0.9105442,-2.528984
70,1747638637.9205654,-0.6375677,-0.8193466,-0.12384869,0.53785104,0.87206084,-2.2858667
71,1747638637.9205654,-0.6375677,-0.8193466,-0.12384869,0.53785104,0.87206084,-2.2858667
72,1747638637.935844,-0.620707,-0.8230053,-0.44746515,0.8718318,0.51593685,-2.0183158
73,1747638637.951111,-0.6019254,-0.799071,-0.6661059,0.7715001,0.3601708,-1.857052
74,1747638637.9522688,-0.5755824,-0.7309878,-0.7851982,0.7715001,0.3601708,-1.857052
75,1747638637.9671738,-0.4764912,-0.70415694,-0.68857676,-0.26655847,0.28076068,-0.9566632
76,1747638637.9827976,-0.41377413,-0.7092792,-0.53164685,-0.4708869,0.45912808,-0.70804834
77,1747638637.9838254,-0.34203213,-0.744891,-0.21708584,-0.50830126,0.68025476,-0.4478274
78,1747638637.9981363,-0.29638925,-0.74806195,-0.0843037,-0.2267007,0.8280798,-0.28648737
79,1747638637.9998298,-0.29638925,-0.74806195,-0.0843037,-0.2267007,0.8280798,-0.28648737
80,1747638638.01388,-0.2602591,-0.77248406,-0.11409202,0.37208232,1.1145672,-0.20402299
81,1747638638.0288074,-0.42889696,-0.7783381,-0.5057917,0.9522345,0.78959644,-0.19241689
82,1747638638.0298314,-0.42889696,-0.7783381,-0.5057917,0.9522345,0.78959644,-0.19241689
83,1747638638.043978,-0.5892417,-0.75980043,-0.8896556,0.58396995,0.55564195,-0.20707722
84,1747638638.0595312,-0.76690453,-0.7995589,-1.0890574,0.21074231,0.55503106,-0.2907633
85,1747638638.0596223,-0.76690453,-0.7995589,-1.0890574,0.21074231,0.55503106,-0.2907633
86,1747638638.0749016,-1.6796407,-0.87816095,-0.970209,-0.14255647,0.10903624,-0.3830776
87,1747638638.0905066,-2.2089703,-0.8740144,-0.6317137,0.06620057,-1.0564604,-0.4142308
88,1747638638.0915906,-2.4332519,-0.862032,-0.5423792,0.3839175,-1.8212411,-0.24250636
89,1747638638.1065722,-2.5965233,-0.8425186,-0.56826484,0.9578085,-2.6209166,0.23578705
90,1747638638.121823,-2.6358244,-0.7858995,-0.76788014,1.5565915,-2.9006846,2.0017464
91,1747638638.1228263,-2.501091,-0.71976763,-1.182508,1.5565915,-2.9006846,2.0017464
92,1747638638.1369996,-2.2755902,-0.67290515,-1.4863672,1.0979979,-2.3398504,2.888773
93,1747638638.1521754,-1.9151422,-0.62116426,-1.7038189,0.2150946,-1.44557,3.6957023
94,1747638638.1531785,-1.9151422,-0.62116426,-1.7038189,0.2150946,-1.44557,3.6957023
95,1747638638.168006,-1.4487735,-0.5543006,-1.405082,-1.7831395,0.0827698,4.68894
96,1747638638.1690345,-1.4487735,-0.5543006,-1.405082,-1.7831395,0.0827698,4.68894
97,1747638638.183727,-1.0368288,-0.587016,-0.61683476,-2.9862795,0.4970006,5.1202745
98,1747638638.1988544,-0.86404437,-0.55869114,-0.2917548,-2.9420695,0.18913358,4.90518
99,1747638638.1999037,-0.86404437,-0.55869114,-0.2917548,-2.9420695,0.18913358,4.90518
100,1747638638.214046,-0.80401033,-0.52942115,-0.16119842,-2.5370777,-0.34848836,4.4305515
101,1747638638.2295744,-0.6734234,-0.4847539,-0.052350618,-2.001212,-0.8194516,4.00418
102,1747638638.230578,-0.6734234,-0.4847539,-0.052350618,-2.001212,-0.8194516,4.00418
103,1747638638.244887,-0.5921687,-0.49865714,-0.18802926,-1.7744349,-0.9422319,3.8111525
104,1747638638.2600408,-0.59997404,-0.4806073,-0.33934906,-1.9600562,-0.70216894,3.7079191
105,1747638638.2611103,-0.59997404,-0.4806073,-0.33934906,-1.9600562,-0.70216894,3.7079191
106,1747638638.275969,-0.5726553,-0.5403974,-0.15409435,-2.3600848,-0.60687673,4.3737426
107,1747638638.2907846,-0.40694448,-0.62092036,-0.10262794,-2.39811,-0.5347968,4.7298665
108,1747638638.2918797,-0.40694448,-0.62092036,-0.10262794,-2.39811,-0.5347968,4.7298665
109,1747638638.3061242,0.20367043,-0.7695571,-0.08747462,-2.5838075,-0.0015271181,5.4452453
110,1747638638.3215017,0.5621669,-0.8359329,-0.011098208,-2.7675962,0.3149681,5.548478
111,1747638638.3215017,0.5621669,-0.8359329,-0.011098208,-2.7675962,0.3149681,5.548478
112,1747638638.3369408,0.98780155,-0.81666344,0.13900201,-2.9389389,0.5147152,5.097062
113,1747638638.3517783,1.0317065,-0.7959001,0.26760706,-2.9233623,0.24166645,4.600367
114,1747638638.3517783,1.0317065,-0.7959001,0.26760706,-2.9233623,0.24166645,4.600367
115,1747638638.3667078,0.96484286,-0.8556901,0.45161173,-2.5015721,-0.8670977,3.912553
116,1747638638.3822386,0.961428,-0.9142607,0.513841,-2.227989,-1.4993246,3.921105
117,1747638638.3832939,0.961428,-0.9142607,0.513841,-2.227989,-1.4993246,3.921105
118,1747638638.3976233,1.0807643,-0.89328384,0.4794487,-1.7594692,-2.1407142,4.248519
119,1747638638.3986757,1.0807643,-0.89328384,0.4794487,-1.7594692,-2.1407142,4.248519
120,1747638638.412913,1.3160219,-0.8215419,0.24931332,-1.6952538,-2.0484762,4.403674
121,1747638638.4283607,1.4051125,-0.8469091,0.26199698,-2.39811,-0.4755446,4.7640743
122,1747638638.4288876,1.4051125,-0.8469091,0.26199698,-2.39811,-0.4755446,4.7640743
123,1747638638.4437256,1.4268211,-0.8740144,0.43429363,-2.7352214,0.17019732,4.776291
124,1747638638.459036,1.4668539,-0.9848135,0.8479458,-2.762633,-0.64780354,4.3798513
125,1747638638.4596393,1.4668539,-0.9848135,0.8479458,-2.762633,-0.64780354,4.3798513
126,1747638638.47437,1.4383156,-0.98261833,0.9860636,-2.5327253,-1.4987137,4.1342907
127,1747638638.4895096,1.2784587,-0.8813319,1.1312855,-1.5594167,-3.638588,3.6138487
128,1747638638.4905097,1.2784587,-0.8813319,1.1312855,-1.5594167,-3.638588,3.6138487
129,1747638638.5051165,1.1312855,-0.80861425,0.91456556,-0.5438068,-3.5817792,3.7952704
130,1747638638.5208843,1.2113512,-0.8032176,0.721536,-0.2858765,-2.7363667,4.149562
131,1747638638.5218844,1.2113512,-0.8032176,0.721536,-0.2858765,-2.7363667,4.149562
132,1747638638.5364902,1.490026,-0.83446944,0.2841934,-0.35749835,-2.0527523,4.4274974
133,1747638638.5520673,1.5078623,-0.7373296,0.26053348,-1.0485194,-1.1065499,4.715817
134,1747638638.5530772,1.6115879,-0.712694,0.34056866,-1.0485194,-1.1065499,4.715817
135,1747638638.5673585,1.6101245,-0.52990896,0.4982303,-2.4006298,-1.665475,4.8153853
136,1747638638.5825567,1.6835738,-0.5037794,0.5789972,-2.7888231,-1.7015151,4.921673
137,1747638638.5836384,1.6835738,-0.5037794,0.5789972,-2.7888231,-1.7015151,4.921673
138,1747638638.5973492,1.980085,-0.32904357,0.78327745,-3.1962583,-1.2745328,5.029182
139,1747638638.5984166,1.980085,-0.32904357,0.78327745,-3.1962583,-1.2745328,5.029182
140,1747638638.6131272,2.3873954,0.015061854,1.2533048,-3.498475,-0.58122116,4.7640743
141,1747638638.628764,2.45182,0.2976698,1.4448708,-3.792598,-0.6612422,4.051215
142,1747638638.629767,2.45182,0.2976698,1.4448708,-3.792598,-0.6612422,4.051215
143,1747638638.64406,2.7554352,0.8338291,1.9007512,-3.9994462,-0.7931852,3.8630743
144,1747638638.6590092,2.8867233,0.93706685,2.1375027,-4.87983,-0.21349111,3.3395784
145,1747638638.6600413,2.8867233,0.93706685,2.1375027,-4.87983,-0.21349111,3.3395784
146,1747638638.6744187,3.1590867,1.014419,2.893797,-5.177083,0.6014555,2.8118062
147,1747638638.690042,3.378947,1.3016613,4.397604,-4.5564623,0.7950941,1.8282659
148,1747638638.6911063,3.378947,1.3016613,4.397604,-4.5564623,0.7950941,1.8282659
149,1747638638.7056594,3.2225356,1.3888005,6.15914,-2.469121,0.7798229,0.60779303
150,1747638638.7205882,2.9858143,1.4542007,6.764602,-0.8123505,0.7370636,0.30664533
151,1747638638.7215884,2.9858143,1.4542007,6.764602,-0.8123505,0.7370636,0.30664533
152,1747638638.7357655,3.0277681,1.4432244,6.787561,3.0089571,1.4303752,-0.08246438
153,1747638638.7510698,3.3997107,1.0778677,6.1459684,5.7512035,1.7626761,-0.87358797
154,1747638638.7521446,3.3997107,1.0778677,6.1459684,5.7512035,1.7626761,-0.87358797
155,1747638638.7663374,3.6159427,0.55683124,4.96404,7.960027,1.2489536,-2.193018
156,1747638638.7817047,2.9945955,0.23397705,3.2486348,9.008623,0.10292777,-4.041518
157,1747638638.7827072,2.9945955,0.23397705,3.2486348,9.008623,0.10292777,-4.041518
158,1747638638.7969344,2.094787,0.37965629,1.8719689,7.7076707,-0.26907822,-4.546689
159,1747638638.8122067,2.0789323,0.554636,1.4187717,6.4976587,-0.08582404,-4.3689322
160,1747638638.8132355,2.0789323,0.554636,1.4187717,6.4976587,-0.08582404,-4.3689322
161,1747638638.827887,2.40325,0.6005229,0.856239,3.7579324,1.6777683,-4.309069
162,1747638638.8288882,2.40325,0.6005229,0.856239,3.7579324,1.6777683,-4.309069
163,1747638638.843517,2.3778827,0.47923526,1.1891243,1.4207543,3.8109233,-4.8606644
164,1747638638.8590655,2.2016833,0.3711192,1.4595363,1.3304254,4.0778637,-4.99444
165,1747638638.8596888,2.2016833,0.3711192,1.4595363,1.3304254,4.0778637,-4.99444
166,1747638638.874064,1.8046175,-0.0074089686,1.883433,1.6967809,4.0473213,-5.0347557
167,1747638638.889667,1.5974102,-0.402493,1.65842,3.0850077,2.8372328,-5.214956
168,1747638638.8907,1.5974102,-0.402493,1.65842,3.0850077,2.8372328,-5.214956
169,1747638638.904764,1.5171312,-0.56478906,1.5210339,3.4464002,2.0644348,-5.4238653
170,1747638638.9205763,1.5303026,-0.7798016,1.2061985,3.8856757,1.6417284,-5.6621723
171,1747638638.9215775,1.5303026,-0.7798016,1.2061985,3.8856757,1.6417284,-5.6621723
172,1747638638.9361253,1.2084242,-0.9071871,0.95533013,4.0913024,2.7993603,-5.644458
173,1747638638.9514499,1.0710076,-0.91352886,0.8855395,4.1885033,2.70277,-5.5081625
174,1747638638.95254,1.0710076,-0.91352886,0.8855395,4.1885033,2.70277,-5.5081625
175,1747638638.9667873,1.0068271,-0.90596753,0.8149866,4.313727,2.1395688,-5.1654773
176,1747638638.9822369,0.832579,-0.8500801,0.6463792,4.299983,1.4621392,-4.9070888
177,1747638638.9832659,0.85965383,-0.81788313,0.4928641,4.299983,1.4621392,-4.9070888
178,1747638638.9970133,0.85965383,-0.81788313,0.4928641,4.256384,0.9838459,-4.7598743
179,1747638639.0123146,0.8948083,-0.7566295,0.30349332,3.8663578,0.28259322,-4.613271
180,1747638639.0133157,0.8948083,-0.7566295,0.30349332,3.8663578,0.28259322,-4.613271
181,1747638639.0275507,0.9067602,-0.6816861,0.23342825,3.2289386,0.44568944,-4.5210333
182,1747638639.0285628,0.9067602,-0.6816861,0.23342825,3.2289386,0.44568944,-4.5210333
183,1747638639.0427287,0.82892036,-0.6568066,0.30227375,2.8850317,1.0095015,-4.3133454
184,1747638639.0581393,0.79108274,-0.65729445,0.34252,2.8432648,1.0021713,-4.1966734
185,1747638639.0581393,0.79108274,-0.65729445,0.34252,2.8432648,1.0021713,-4.1966734
186,1747638639.073942,0.6558919,-0.6284818,0.41843903,2.880603,0.80242425,-4.102603
187,1747638639.0890794,0.62439615,-0.5996996,0.3559354,3.2881145,-0.3582619,-3.789849
188,1747638639.0890794,0.62439615,-0.5996996,0.3559354,3.2881145,-0.3582619,-3.789849
189,1747638639.1044548,0.6466231,-0.59213823,0.23489174,3.3971508,-0.64291674,-3.670734
190,1747638639.1196187,0.66955125,-0.553325,-0.057716787,3.2626116,-0.5531222,-3.5088594
191,1747638639.1206186,0.66955125,-0.553325,-0.057716787,3.2626116,-0.5531222,-3.5088594
192,1747638639.1355796,0.5265551,-0.48768088,-0.19851768,2.8893838,-0.018019995,-3.2443626
193,1747638639.1506658,0.45649004,-0.4703628,-0.248795,2.626414,0.092543356,-3.0250683
194,1747638639.1517003,0.45649004,-0.4703628,-0.248795,2.626414,0.092543356,-3.0250683
195,1747638639.1656501,0.32886064,-0.47353375,-0.31736606,2.1796558,-0.23975755,-2.6224437
196,1747638639.1808503,0.26858276,-0.52307934,-0.41231063,1.8002433,-0.28801447,-2.3677204
197,1747638639.181851,0.26858276,-0.52307934,-0.41231063,1.8002433,-0.28801447,-2.3677204
198,1747638639.1960893,0.099457026,-0.5733261,-0.44307464,1.6020997,-0.14629792,-2.2119544
199,1747638639.2113297,-0.44645897,-0.6318966,-0.3971878,1.62577,-0.044286426,-1.6548616
200,1747638639.2124088,-0.5860708,-0.66680723,-0.55286765,1.62577,-0.044286426,-1.6548616
201,1747638639.2267256,-0.69272333,-0.73367083,-0.8725814,1.6681476,0.1750841,-1.2077214
202,1747638639.2420897,-0.78251517,-0.7502877,-1.053659,1.4151804,0.5495335,-1.2407072
203,1747638639.2432146,-0.78251517,-0.7502877,-1.053659,1.4151804,0.5495335,-1.2407072
204,1747638639.257528,-1.2755013,-0.8017541,-1.0944235,0.562743,1.187258,-1.3842562
205,1747638639.2585564,-1.2755013,-0.8017541,-1.0944235,0.562743,1.187258,-1.3842562
206,1747638639.2734616,-1.7093984,-0.8310546,-0.95776933,0.3148154,1.0974635,-1.345162
207,1747638639.2895799,-2.1650348,-0.8205661,-1.0038695,0.8101362,0.5263213,-1.1496909
208,1747638639.2905803,-2.1650348,-0.8205661,-1.0038695,0.8101362,0.5263213,-1.1496909
209,1747638639.3047388,-2.4776752,-0.81154126,-1.306753,1.1515998,-0.23609246,-0.8509866
210,1747638639.3208048,-2.652655,-0.799315,-1.4792937,1.110444,-0.46332765,-0.38491014
211,1747638639.321805,-2.6875653,-0.79833925,-1.5461572,1.110444,-0.46332765,-0.38491014
212,1747638639.3358047,-2.6875653,-0.79833925,-1.5461572,0.9509365,-0.5012002,-0.028709821
213,1747638639.351065,-2.623598,-0.7966318,-1.6183871,0.348412,-0.6184828,0.6542174
214,1747638639.3520947,-2.623598,-0.7966318,-1.6183871,0.348412,-0.6184828,0.6542174
215,1747638639.366914,-2.380779,-0.7778503,-1.4143509,-0.39239302,-0.4315636,1.4116681
216,1747638639.3817801,-2.2553449,-0.7676058,-1.2501339,-0.5880932,-0.37964156,1.6993771
217,1747638639.3827817,-2.2553449,-0.7676058,-1.2501339,-0.5880932,-0.37964156,1.6993771
218,1747638639.3972194,-1.9617609,-0.7180602,-1.104912,-0.7046123,-0.25686127,2.0964277
219,1747638639.4129374,-1.6196066,-0.6721733,-1.0663427,-0.8136485,-0.22937314,2.3151112
220,1747638639.4139402,-1.6196066,-0.6721733,-1.0663427,-0.9375742,-0.27579755,2.5277624
221,1747638639.4276636,-1.6196066,-0.6721733,-1.0663427,-0.9375742,-0.27579755,2.5277624
222,1747638639.428724,-1.3963009,-0.64997697,-1.0663427,-1.2423106,-0.2959555,2.8399053
223,1747638639.443069,-1.159336,-0.64826953,-1.0663427,-1.4977975,-0.21288027,3.0323222
224,1747638639.4589367,-0.6102185,-0.63851285,-0.87941104,-2.4336154,0.036956258,3.6242332
225,1747638639.460009,-0.6102185,-0.63851285,-0.87941104,-2.4336154,0.036956258,3.6242332
226,1747638639.4745212,-0.42279905,-0.6067732,-0.693699,-2.8423486,0.16958646,3.8221476
227,1747638639.490606,-0.16604628,-0.6316527,-0.3046824,-3.1053183,0.52326703,4.0347223
228,1747638639.4916399,-0.16604628,-0.6316527,-0.3046824,-3.1053183,0.52326703,4.0347223
229,1747638639.5057702,0.096042186,-0.6243352,-0.019635292,-2.652986,0.38399386,4.3951225
230,1747638639.5215476,0.29641974,-0.6365615,-0.058936365,-2.4460616,0.30580541,4.5032425
231,1747638639.5225503,0.29641974,-0.6365615,-0.058936365,-2.4460616,0.30580541,4.5032425
232,1747638639.53693,0.44551378,-0.59165037,-0.11799469,-2.410556,0.21540001,4.549667
233,1747638639.5528696,0.6217131,-0.6214082,-0.14067894,-2.644816,-0.033902023,4.644959
234,1747638639.55387,0.6217131,-0.6214082,-0.14067894,-2.8760216,-0.37170056,4.736586
235,1747638639.5680943,0.7083645,-0.6243352,-0.06357078,-2.8760216,-0.37170056,4.736586
236,1747638639.5691533,0.7083645,-0.6243352,-0.06357078,-3.0903525,-0.5115846,4.797671
237,1747638639.5835338,0.85599506,-0.627994,0.09726177,-3.1925168,-0.2367033,4.809277
238,1747638639.5987864,0.8979792,-0.60140705,0.19440159,-3.165716,0.0051922016,4.7225366
239,1747638639.5997927,0.8979792,-0.60140705,0.19440159,-3.165716,0.0051922016,4.7225366
240,1747638639.614158,0.97877663,-0.66168493,0.23440392,-3.1289887,-0.006413896,4.543558
241,1747638639.6299572,0.9677699,-0.6570505,0.42722008,-3.0062084,-0.4639385,4.1391773
242,1747638639.6310215,0.9677699,-0.6570505,0.42722008,-3.0062084,-0.4639385,4.1391773
243,1747638639.6450384,0.9109068,-0.64119595,0.55558115,-2.3744397,-1.7558805,3.8270345
244,1747638639.66064,0.96703815,-0.63534194,0.4674663,-2.1171203,-2.3239684,3.808709
245,1747638639.6616406,0.96703815,-0.63534194,0.4674663,-2.1171203,-2.3239684,3.808709
246,1747638639.6757877,1.0324383,-0.5716187,0.31422567,-1.9949508,-2.4498029,3.8496358
247,1747638639.6909583,1.030487,-0.5394217,0.3139817,-2.1165094,-1.8859909,3.9259918
248,1747638639.6920104,1.030487,-0.5394217,0.3139817,-2.1165094,-1.8859909,3.9259918
249,1747638639.7061563,1.0199986,-0.5374704,0.34544697,-2.1800375,-1.6001143,3.9760811
250,1747638639.7214515,0.983411,-0.5218597,0.5758263,-2.247307,-1.5280344,4.040831
251,1747638639.7224524,0.983411,-0.5218597,0.5758263,-2.247307,-1.5280344,4.040831
252,1747638639.7366462,1.1232363,-0.573814,0.7488547,-2.0423677,-2.3203032,4.200873
253,1747638639.752078,1.2391577,-0.57552135,0.72226775,-1.9395164,-2.7919538,4.2240853
254,1747638639.7530785,1.3023626,-0.5179266,0.70934016,-1.9395164,-2.7919538,4.2240853
255,1747638639.7675762,1.3360535,-0.4610635,0.7234873,-1.7719152,-2.9483306,4.254017
256,1747638639.7687137,1.3360535,-0.4610635,0.7234873,-1.7719152,-2.9483306,4.254017
257,1747638639.783365,1.4146252,-0.34123942,0.6451596,-1.8791189,-2.1669807,4.524622
258,1747638639.7985415,1.4959104,-0.30538365,0.6571115,-2.0647402,-1.9324152,4.665117
259,1747638639.7995443,1.4959104,-0.30538365,0.6571115,-2.0647402,-1.9324152,4.665117
260,1747638639.8139536,1.592288,-0.25071585,0.6932112,-2.3345819,-1.5329212,4.812942
261,1747638639.8289285,1.8897749,-0.16821103,0.8611173,-2.796917,-1.2727003,4.8300457
262,1747638639.8299315,1.8897749,-0.16821103,0.8611173,-2.796917,-1.2727003,4.8300457
263,1747638639.8443825,2.305165,0.17955315,1.3682506,-2.6635232,-1.9721204,4.225918
264,1747638639.8604147,2.451576,0.36111864,1.511765,-2.2709775,-2.2928152,3.7873294
265,1747638639.8614376,2.451576,0.36111864,1.511765,-2.2709775,-2.2928152,3.7873294
266,1747638639.8757343,2.5069757,0.84114665,1.301143,-1.8497982,-2.1242213,3.1062346
267,1747638639.8908706,2.5401785,1.0307918,1.1373835,-2.0591662,-1.6367652,3.0164402
268,1747638639.8920126,2.5401785,1.0307918,1.1373835,-2.0591662,-1.6367652,3.0164402
269,1747638639.9065807,2.6631737,1.2360172,1.2899228,-3.0174327,-0.99109966,2.8276882
270,1747638639.9214804,3.0209386,1.3970938,1.8051053,-3.2230592,-1.0527953,2.6352715
271,1747638639.9224806,3.5402675,1.5571946,2.4911208,-3.3788252,-1.5854541,2.1214726
272,1747638639.9367993,3.8167775,1.6865313,2.8181522,-3.4773245,-1.7442744,1.8246008
273,1747638639.9519928,4.0127645,1.8129412,3.1959183,-3.5645227,-1.1902359,1.4147222
274,1747638639.9529953,4.0127645,1.8129412,3.1959183,-3.5645227,-1.1902359,1.4147222
275,1747638639.9671896,3.6654577,1.9762127,4.184787,-3.001856,1.2886586,0.34879377
276,1747638639.9824908,3.3133032,1.9788959,4.952088,0.7951704,1.7168626,-0.99392486
277,1747638639.9835324,3.3133032,1.9788959,4.952088,0.7951704,1.7168626,-0.99392486
278,1747638639.997653,3.2674468,1.9088614,4.941355,0.7951704,1.7168626,-0.99392486
279,1747638639.9987125,3.3596776,1.7363209,4.3439116,0.7951704,1.7168626,-0.99392486
280,1747638640.0125556,3.4399872,1.564512,3.4741356,4.1828527,0.38826978,-2.7281203
281,1747638640.027854,3.1812832,1.2408956,1.7133317,4.9411435,-0.27335414,-4.562571
282,1747638640.028855,3.1812832,1.2408956,1.7133317,4.9411435,-0.27335414,-4.562571
283,1747638640.043552,2.9374886,1.1227789,1.2611102,4.53241,-0.23120569,-4.986499
284,1747638640.0591629,2.5257876,1.0022231,0.8540437,3.3485882,0.24899662,-5.130048
285,1747638640.060268,2.5257876,1.0022231,0.8540437,3.3485882,0.24899662,-5.130048
286,1747638640.0741947,2.2409844,0.7452569,0.89871097,1.9572309,1.5543772,-4.9712276
287,1747638640.0898693,2.1462836,0.6381165,0.98679537,1.8494164,1.8188741,-4.9443502
288,1747638640.0898693,2.1462836,0.6381165,0.98679537,1.8494164,1.8188741,-4.9443502
289,1747638640.1057298,2.0923479,0.48021096,0.99048465,2.0693977,1.815209,-5.0793476
290,1747638640.1204906,2.019386,0.3225493,0.8799294,2.327328,1.615462,-5.3310165
291,1747638640.121092,2.019386,0.3225493,0.8799294,2.327328,1.615462,-5.3310165
292,1747638640.1363006,1.9393204,0.23056222,0.7603492,2.4750004,1.3436348,-5.561917
293,1747638640.151438,1.790958,0.140496,0.44575772,2.5260825,0.91909605,-5.9095654
294,1747638640.1518328,1.790958,0.140496,0.44575772,2.5260825,0.91909605,-5.9095654
295,1747638640.166635,1.5046915,0.052381106,0.010854292,1.8444533,1.1200649,-6.083046
296,1747638640.1818,1.3958436,0.01603752,0.022348866,1.3521868,1.3558519,-6.0048575
297,1747638640.1823697,1.3958436,0.01603752,0.022348866,1.3521868,1.3558519,-6.0048575
298,1747638640.1970093,1.2335476,-0.10183521,0.19196242,0.59145284,1.8573575,-5.615061
299,1747638640.212675,1.1932709,-0.18092519,0.3925534,0.7808155,2.0173993,-5.2412224
300,1747638640.2136755,1.20132,-0.25047192,0.53240913,0.7808155,2.0173993,-5.2412224
301,1747638640.2278771,1.195466,-0.29928577,0.56363046,1.1216683,1.8872889,-5.1893
302,1747638640.2290306,1.195466,-0.29928577,0.56363046,1.1216683,1.8872889,-5.1893
303,1747638640.2433035,1.1974174,-0.3422151,0.5204267,1.4980265,1.7119758,-5.182581
304,1747638640.258608,1.1866851,-0.46402097,0.23781876,1.949748,1.1377794,-5.4128704
305,1747638640.2596695,1.1866851,-0.46402097,0.23781876,1.949748,1.1377794,-5.4128704
306,1747638640.2738025,1.1078695,-0.50597465,0.13339193,1.9584527,0.9368106,-5.4721227
307,1747638640.2889843,0.95776933,-0.5282015,0.04454528,1.7460306,0.60267717,-5.3493423
308,1747638640.289988,0.95776933,-0.5282015,0.04454528,1.7460306,0.60267717,-5.3493423
309,1747638640.3048592,0.6976322,-0.47255805,0.17119902,1.5198643,0.7407287,-4.8918176
310,1747638640.3205323,0.60780984,-0.42398816,0.34861788,1.6039321,0.69186085,-4.618158
311,1747638640.3215325,0.60780984,-0.42398816,0.34861788,1.6039321,0.69186085,-4.618158
312,1747638640.3356824,0.516524,-0.3353854,0.60756594,2.2638,0.12682717,-4.169796
313,1747638640.350838,0.6317137,-0.36956424,0.598785,2.862583,-0.56533915,-4.065341
314,1747638640.3518655,0.6317137,-0.36956424,0.598785,2.862583,-0.56533915,-4.065341
315,1747638640.3665726,0.82672507,-0.58823556,0.23220867,4.1909466,-3.3820322,-4.8203483
316,1747638640.381448,0.82892036,-0.6231156,0.04235003,4.309375,-4.2042327,-5.234503
317,1747638640.382448,0.82892036,-0.6231156,0.04235003,4.309375,-4.2042327,-5.234503
318,1747638640.396745,0.52850646,-0.6450986,-0.5099383,3.6788275,-4.4363546,-6.060445
319,1747638640.4122233,0.25858217,-0.6031144,-0.5621669,3.0594285,-3.8450544,-5.9101763
320,1747638640.4132237,0.25858217,-0.6031144,-0.5621669,3.0594285,-3.8450544,-5.9101763
321,1747638640.4277127,0.005518615,-0.5416169,-0.5838755,2.222644,-2.3325202,-4.7757564
322,1747638640.428749,-0.15799703,-0.5164631,-0.5892417,2.222644,-2.3325202,-4.7757564
323,1747638640.4424436,-0.335172,-0.44398934,-0.63025016,1.2549857,-0.6203154,-2.6426015
324,1747638640.457838,-0.2060791,-0.48402217,-0.70809007,0.7659261,-0.111479625,-1.8808751
325,1747638640.458898,-0.2060791,-0.48402217,-0.70809007,0.7659261,-0.111479625,-1.8808751
326,1747638640.4731748,-0.0769862,-0.5040233,-0.65220267,0.10544751,0.41514707,-1.3225607
327,1747638640.488485,0.06823569,-0.58994293,-0.49771196,-0.503949,0.97346145,-1.2871315
328,1747638640.489488,0.06823569,-0.58994293,-0.49771196,-0.503949,0.97346145,-1.2871315
329,1747638640.5044184,-0.67074037,-0.9601475,-0.19388327,-0.98995435,1.5427711,-2.545477
330,1747638640.5196664,-1.3345596,-1.1558907,0.024056282,-1.0073634,1.291102,-3.162509
331,1747638640.5206692,-1.3345596,-1.1558907,0.024056282,-1.0073634,1.291102,-3.162509
332,1747638640.5348454,-2.281688,-1.4004171,0.47014937,-0.33138463,-0.114533864,-3.518633
333,1747638640.5504458,-3.0606968,-1.5753968,0.3825528,0.5471664,-1.2824738,-3.198549
334,1747638640.5519843,-3.2886372,-1.5971054,0.21269535,0.80387497,-1.594006,-2.6340497
335,1747638640.5651617,-3.2886372,-1.5971054,0.21269535,0.80387497,-1.594006,-2.6340497
336,1747638640.5806477,-3.5500245,-1.5768603,-0.1501917,0.49486265,-0.8292252,-1.0745567
337,1747638640.5816476,-3.5500245,-1.5768603,-0.1501917,0.49486265,-0.8292252,-1.0745567
338,1747638640.5954657,-3.4326394,-1.5941783,-0.095523864,-0.09025268,0.7724927,0.9113841
339,1747638640.6106062,-3.1963756,-1.5846657,-0.124580435,-0.14568707,1.0821923,1.6407357
340,1747638640.611616,-3.1963756,-1.5846657,-0.124580435,-0.14568707,1.0821923,1.6407357
341,1747638640.6257997,-2.7615025,-1.4704516,-0.29907233,-0.19363858,1.4297644,2.4959981
342,1747638640.6416283,-2.4754798,-1.397734,-0.4557583,-0.3008423,1.3356938,2.9052658
343,1747638640.642793,-2.4754798,-1.397734,-0.4557583,-0.49585527,0.98506755,3.1899207
344,1747638640.6565058,-2.2050679,-1.3250164,-0.5033525,-0.49585527,0.98506755,3.1899207
345,1747638640.6717584,-1.672811,-1.1656473,-0.5792411,-0.7612684,0.38826978,3.560094
346,1747638640.6728625,-1.672811,-1.1656473,-0.5792411,-0.95757943,0.383383,3.805044
347,1747638640.6874175,-1.0697576,-1.021889,-0.65220267,-1.3413442,0.6515449,4.1061916
348,1747638640.6884763,-1.0697576,-1.021889,-0.65220267,-1.3413442,0.6515449,4.1061916
349,1747638640.7027895,-0.8469397,-0.9708798,-0.5333543,-1.6155382,0.84884864,4.3835163
350,1747638640.7184741,-0.46210015,-0.901577,-0.34764224,-1.772526,1.0504283,4.839208
351,1747638640.719453,-0.46210015,-0.901577,-0.34764224,-1.772526,1.0504283,4.839208
352,1747638640.7340498,-0.028172374,-0.8337376,-0.22293983,-1.728316,1.163435,5.2436657
353,1747638640.7492905,0.07774844,-0.7968757,-0.16851594,-1.6641006,1.0980743,5.2522173
354,1747638640.7502954,0.07774844,-0.7968757,-0.16851594,-1.6641006,1.0980743,5.2522173
355,1747638640.764545,0.3237384,-0.7768746,-0.2148906,-1.6447825,0.8543463,5.093397
356,1747638640.7797313,0.44063547,-0.7810212,-0.23440392,-1.7357988,0.56724805,4.8538685
357,1747638640.7807896,0.44063547,-0.7810212,-0.23440392,-1.7357988,0.56724805,4.8538685
358,1747638640.7950177,0.48579055,-0.806419,-0.21635409,-1.7825286,0.35833827,4.8141637
359,1747638640.810203,0.47286296,-0.81154126,-0.045764867,-1.7787873,-0.024128467,4.9949746
360,1747638640.8112333,0.47286296,-0.81154126,-0.045764867,-1.7787873,-0.024128467,4.9949746
361,1747638640.825443,0.6776005,-0.8769414,-0.09210903,-1.5451381,0.1830251,5.478231
362,1747638640.8406196,0.82013935,-0.89986956,-0.18802926,-1.650433,0.5141043,5.5784097
363,1747638640.8416228,0.82013935,-0.89986956,-0.18802926,-1.650433,0.5141043,5.5784097
364,1747638640.855768,1.115431,-0.98993576,-0.41938424,-2.157589,0.9416974,5.4959455
365,1747638640.8710184,1.1610738,-1.0731418,-0.363009,-3.00995,0.88000184,5.2797055
366,1747638640.8720932,1.1610738,-1.0731418,-0.363009,-3.00995,0.88000184,5.2797055
367,1747638640.8869278,1.0961615,-1.1017106,-0.09869478,-3.4635804,0.37849623,5.2357244
368,1747638640.9016635,1.0575922,-1.0367984,0.649794,-3.1171536,-1.2653701,5.3688893
369,1747638640.9026656,1.0575922,-1.0367984,0.649794,-3.1171536,-1.2653701,5.3688893
370,1747638640.9168937,1.4082835,-1.0465549,0.52408546,-1.9806722,-1.7845902,5.4202003
371,1747638640.932491,1.6079291,-1.1095159,0.23562351,-1.4466391,-1.6068337,5.042697
372,1747638640.9334939,1.6079291,-1.1095159,0.23562351,-1.4466391,-1.6068337,5.042697
373,1747638640.9481335,1.5368885,-1.1480547,0.14217293,-1.7033476,-1.8084133,4.539893
374,1747638640.9491336,1.5368885,-1.1480547,0.14217293,-1.7033476,-1.8084133,4.539893
375,1747638640.9635015,1.3926727,-1.147323,0.28882784,-1.9463885,-2.647183,4.66756
376,1747638640.9787734,1.3558108,-1.0643609,0.50920653,-1.8485765,-3.0637808,4.968708
377,1747638640.9797487,1.3558108,-1.0643609,0.50920653,-1.8485765,-3.0637808,4.968708
378,1747638640.993957,1.4697809,-1.0907038,0.58704644,-1.5021498,-2.9636018,5.2442765
379,1747638641.0095701,1.6818665,-1.1426886,0.7347075,-0.8198334,-2.6923857,5.2992525
380,1747638641.0106444,1.6818665,-1.1426886,0.7347075,-0.8198334,-2.6923857,5.2992525
381,1747638641.0248635,1.8212038,-1.1585736,0.7330001,-0.38865158,-2.8121116,5.3407903
382,1747638641.0405505,1.7721461,-1.0809472,0.72885346,-0.30519456,-2.7479727,5.503276
383,1747638641.041557,1.7721461,-1.0809472,0.72885346,-0.30519456,-2.7479727,5.503276
384,1747638641.0563378,1.9368813,-0.9357558,0.6007363,-0.07711947,-2.1865277,6.4116054
385,1747638641.0718918,2.2880604,-0.9618549,0.39621213,-0.08582404,-1.9898349,6.6589985
386,1747638641.0729854,2.2880604,-0.9618549,0.39621213,-0.08582404,-1.9898349,6.6589985
387,1747638641.0871387,2.6734183,-0.98896015,0.2917548,-0.3736858,-1.9556274,6.666329
388,1747638641.1027105,3.1029556,-0.7239142,0.69247943,-1.0560021,-2.290372,6.333417
389,1747638641.1038542,3.1861615,-0.16504012,1.1025034,-0.9507074,-2.5922067,6.2509527
390,1747638641.118076,3.4270294,0.2549539,1.14714,-0.4010976,-2.46935,6.0872455
391,1747638641.1193252,3.4270294,0.2549539,1.14714,-0.4010976,-2.46935,6.0872455
392,1747638641.1335738,3.7081738,0.65055627,0.8755389,-0.16065283,-2.1559854,5.8917747
393,1747638641.1491306,4.1323447,1.2626346,0.09311519,-0.8485432,-1.1596935,5.1996846
394,1747638641.1501312,4.1323447,1.2626346,0.09311519,-0.8485432,-1.1596935,5.1996846
395,1747638641.1643858,4.67509,2.0670109,0.10555494,-4.01067,0.3418454,4.101916
396,1747638641.1798706,4.753174,2.1797612,0.9001745,-4.9945164,0.859233,3.2846022
397,1747638641.1799564,4.753174,2.1797612,0.9001745,-4.9945164,0.859233,3.2846022
398,1747638641.1946647,4.6521616,2.3640099,2.5331051,-5.2057166,0.959412,2.6951344
399,1747638641.2103496,4.9528193,2.4931028,3.115883,-3.4224246,0.4065952,1.271784
400,1747638641.2114432,4.9528193,2.4931028,3.115883,-3.4224246,0.4065952,1.271784
401,1747638641.2260811,5.4274817,2.5050547,3.1776245,-2.2448637,0.60206634,0.27732465
402,1747638641.240921,6.153774,2.1734195,2.953587,-0.7444701,1.1359469,-1.6163782
403,1747638641.2419226,6.153774,2.1734195,2.953587,-0.7444701,1.1359469,-1.6163782
404,1747638641.2564416,5.420408,1.2328464,2.7475994,0.9254336,1.8567466,-5.1483736
405,1747638641.2720785,4.732441,0.8077301,2.337606,1.9802904,1.7981052,-6.4727664
406,1747638641.2730787,4.732441,0.8077301,2.337606,1.9802904,1.7981052,-6.4727664
407,1747638641.2872498,3.8914464,0.5153654,1.5183507,2.600224,1.5348301,-7.270533
408,1747638641.3025482,3.2972045,0.3064508,1.055153,2.300527,1.8341453,-7.2412124
409,1747638641.3036456,3.2972045,0.3064508,1.055153,2.300527,1.8341453,-7.2412124
410,1747638641.3177195,3.2322922,0.24227023,1.0029244,2.300527,1.8341453,-7.2412124
411,1747638641.318802,3.2322922,0.24227023,1.0029244,2.300527,1.8341453,-7.2412124
412,1747638641.3327756,3.3289442,0.16464376,0.8196514,2.276857,1.9196639,-6.9541144
413,1747638641.348078,3.2798867,-0.048874803,0.57680196,1.8781263,2.123076,-7.403087
414,1747638641.3490796,3.2798867,-0.048874803,0.57680196,1.8781263,2.123076,-7.403087
415,1747638641.3633578,3.0878022,-0.11967161,0.5660696,1.7914623,2.0155668,-7.6181054
416,1747638641.378972,2.659515,-0.29343176,0.49042496,1.7248036,1.9184421,-7.8526707
417,1747638641.3795388,2.659515,-0.29343176,0.49042496,1.7248036,1.9184421,-7.8526707
418,1747638641.3938937,2.0381677,-0.35224617,0.5143288,1.7385477,1.703424,-7.4892163
419,1747638641.4090803,1.8329118,-0.34294683,0.4484408,1.6942612,1.6905961,-7.206394
420,1747638641.410081,1.8329118,-0.34294683,0.4484408,1.6942612,1.6905961,-7.206394
421,1747638641.4249861,1.817545,-0.330751,0.3310559,1.5784293,1.7987161,-6.755589
422,1747638641.4402196,2.1267705,-0.46938714,0.17900434,1.0518789,2.3497005,-6.295621
423,1747638641.4412851,2.1267705,-0.46938714,0.17900434,1.0518789,2.3497005,-6.295621
424,1747638641.4549675,2.2429357,-0.63509804,0.3442274,1.0537878,2.230585,-6.600434
425,1747638641.4705715,2.220465,-0.70147383,0.38011363,1.2581162,2.1206326,-6.815452
426,1747638641.4716368,2.220465,-0.70147383,0.38011363,1.2581162,2.1206326,-6.815452
427,1747638641.485825,1.9207828,-0.82544446,0.12238518,1.9684553,1.7596219,-7.258316
428,1747638641.5016072,1.7851043,-0.8339815,-0.08674286,2.0861962,1.5018443,-7.163024
429,1747638641.5026305,1.7851043,-0.8339815,-0.08674286,2.0861962,1.5018443,-7.163024
430,1747638641.5161626,1.7106487,-0.83227414,-0.51847535,1.6550143,1.283161,-6.899138
431,1747638641.5320535,1.7045507,-0.8222736,-0.6119259,1.2643775,1.2642248,-6.786742
432,1747638641.533055,1.6760124,-0.8420308,-0.5914369,0.39017868,1.4334295,-6.618759
433,1747638641.5474076,1.5669206,-0.8742583,-0.39816347,-0.0017561859,1.6197379,-6.5326295
434,1747638641.5484817,1.5669206,-0.8742583,-0.39816347,-0.0017561859,1.6197379,-6.5326295
435,1747638641.5627525,1.4226744,-0.86425775,-0.16680852,-0.0820826,1.7254144,-6.4306183
436,1747638641.5777216,1.1215289,-0.8835272,0.11799469,0.27923355,1.6124077,-6.003636
437,1747638641.57875,1.1215289,-0.8835272,0.11799469,0.27923355,1.6124077,-6.003636
438,1747638641.5928743,0.8128218,-0.8332498,0.18976717,0.96468055,0.9948411,-5.4006534
439,1747638641.6078086,1.0114615,-0.81715137,-0.19778593,2.0051825,0.12499462,-4.502097
440,1747638641.608881,1.0114615,-0.81715137,-0.19778593,2.0051825,0.12499462,-4.502097
441,1747638641.623044,1.1971735,-0.884015,-0.90602845,1.2774343,0.16103461,-4.4886584
442,1747638641.6383367,0.96533066,-0.89108855,-0.87794757,0.6649836,0.5257104,-4.517979
443,1747638641.6394072,0.96533066,-0.89108855,-0.87794757,0.6649836,0.5257104,-4.517979
444,1747638641.6540112,0.625128,-0.89962566,-0.6949186,0.24998924,0.93558896,-4.38176
445,1747638641.6693144,0.08945644,-0.907431,-0.4337753,0.16645588,1.4279318,-3.6493542
446,1747638641.6703172,0.08945644,-0.907431,-0.4337753,0.16645588,1.4279318,-3.6493542
447,1747638641.6850076,-0.43426317,-1.1273218,-0.4499043,0.7172874,0.8549571,-2.480727
448,1747638641.700324,-0.50332206,-1.1880876,-0.74129325,0.76775867,0.4670691,-2.1569781
449,1747638641.7014441,-0.50332206,-1.1880876,-0.74129325,0.76775867,0.4670691,-2.1569781
450,1747638641.7155404,-0.7586113,-1.3455054,-1.1359199,-0.20547375,0.6698704,-2.1191056
451,1747638641.730809,-1.2657446,-1.3737997,-0.89526564,-0.81800085,0.98873264,-2.1319332
452,1747638641.7318447,-1.2657446,-1.3737997,-0.89526564,-0.81800085,0.98873264,-2.1319332
453,1747638641.7462308,-1.7572367,-1.5397545,-0.59314436,-0.8634326,1.0333245,-2.017094
454,1747638641.7610006,-2.038381,-1.6776589,-0.5572886,-0.34192175,0.48111856,-1.9749455
455,1747638641.7620018,-2.4315443,-1.7918729,-0.639519,0.008857286,-0.2855711,-1.9902167
456,1747638641.7768252,-2.6450932,-1.8889822,-0.7295853,0.06620057,-0.83044684,-1.8552195
457,1747638641.7920413,-2.8042185,-1.9517297,-0.802059,-0.074676074,-1.1841274,-1.5717864
458,1747638641.7931466,-2.8042185,-1.9517297,-0.802059,-0.074676074,-1.1841274,-1.5717864
459,1747638641.80789,-3.020664,-1.9153557,-0.70711446,-0.5519005,-1.0075926,-0.6946097
460,1747638641.8089325,-3.020664,-1.9153557,-0.70711446,-0.5519005,-1.0075926,-0.6946097
461,1747638641.8228607,-3.071185,-1.854346,-0.47527164,-0.76187927,-0.4511107,0.30053684
462,1747638641.838153,-2.8325129,-1.7442787,-0.2712658,-0.50142926,-0.3051182,1.6944903
463,1747638641.8391862,-2.8325129,-1.7442787,-0.2712658,-0.50142926,-0.3051182,1.6944903
464,1747638641.8537874,-2.6555817,-1.6813177,-0.29760882,-0.34818295,-0.30817243,2.1562908
465,1747638641.8690605,-2.1240568,-1.4384986,-0.3632529,-0.09521582,-0.31122667,3.1746495
466,1747638641.870062,-2.1240568,-1.4384986,-0.3632529,-0.09521582,-0.31122667,3.1746495
467,1747638641.8843112,-1.7023249,-1.2771782,-0.56363046,0.0019852535,-0.17134266,3.6107945
468,1747638641.8996434,-1.1712879,-1.0811912,-0.7530012,-0.3600181,0.19035527,3.9791355
469,1747638641.900627,-1.1712879,-1.0811912,-0.7530012,-0.3600181,0.19035527,3.9791355
470,1747638641.9153352,-0.6665938,-0.85642195,-0.69833344,-0.8515974,0.25693762,4.4494877
471,1747638641.9305005,-0.47844255,-0.7488242,-0.6114381,-1.0279796,0.040621344,4.781178
472,1747638641.9315789,-0.47844255,-0.7488242,-0.6114381,-1.0279796,0.040621344,4.781178
473,1747638641.9457502,-0.08479153,-0.6902232,-0.5357935,-1.2952253,0.024739314,5.261991
474,1747638641.9609966,0.13339193,-0.6770517,-0.47063723,-1.4946669,0.15798037,5.5002213
475,1747638641.9619982,0.13339193,-0.6770517,-0.47063723,-1.6186689,0.27648473,5.646214
476,1747638641.9766824,0.4223417,-0.67924696,-0.38203448,-1.6996062,0.29419932,5.7311215
477,1747638641.991755,0.51140183,-0.70976704,-0.35227665,-1.740762,0.19768545,5.7628856
478,1747638641.9928336,0.51140183,-0.70976704,-0.35227665,-1.740762,0.19768545,5.7628856
479,1747638642.0072882,0.7598614,-0.72952425,-0.3442274,-1.7625997,-0.22021043,5.757388
480,1747638642.0225432,0.7954732,-0.7283047,-0.3732535,-1.7831395,-0.25747213,5.729289
481,1747638642.0237288,0.7954732,-0.7283047,-0.3732535,-1.7831395,-0.25747213,5.729289
482,1747638642.0378578,0.84233576,-0.74245185,-0.41450587,-2.0217516,-0.29778802,5.7396736
483,1747638642.038861,0.84233576,-0.74245185,-0.41450587,-2.0217516,-0.29778802,5.7396736
484,1747638642.053302,0.97703874,-0.80910206,-0.3210248,-2.5501347,-0.39735615,5.798926
485,1747638642.0689096,1.0073149,-0.8610564,-0.099457026,-2.7918775,-0.44683477,5.7628856
486,1747638642.0698926,1.0073149,-0.8610564,-0.099457026,-2.7918775,-0.44683477,5.7628856
487,1747638642.084106,1.0241451,-0.90450394,0.21952501,-2.89282,-0.5775561,5.7091312
488,1747638642.099529,1.1603421,-0.94624424,0.33032414,-2.605569,-0.9856021,5.6963034
489,1747638642.100643,1.1603421,-0.94624424,0.33032414,-2.605569,-0.9856021,5.6963034
490,1747638642.114872,1.3223943,-0.9647819,0.32739717,-2.1930943,-1.3557755,5.5710797
491,1747638642.1308615,1.460756,-1.0138396,0.1255561,-1.9170678,-1.5866758,5.262602
492,1747638642.1318893,1.460756,-1.0138396,0.1255561,-1.9170678,-1.5866758,5.262602
493,1747638642.146049,1.4407548,-1.0624095,0.055033702,-2.0890977,-1.6911306,4.94122
494,1747638642.1616387,1.2611102,-0.97453856,0.40913972,-2.1433103,-1.8652221,4.8825784
495,1747638642.1627061,1.2611102,-0.97453856,0.40913972,-2.066649,-2.2048533,4.867918
496,1747638642.1768467,1.2506217,-0.94575644,0.52506113,-1.7968072,-2.5237155,4.9015145
497,1747638642.1922615,1.3079727,-0.94380504,0.52140236,-1.4292299,-2.631301,4.9540477
498,1747638642.1933124,1.46661,-1.0065222,0.40816402,-1.0721897,-2.6532915,4.96321
499,1747638642.2079868,1.5390837,-1.0121323,0.31959182,-0.8921424,-2.7094893,4.9424415
500,1747638642.208987,1.5390837,-1.0121323,0.31959182,-0.8921424,-2.7094893,4.9424415
501,1747638642.2231727,1.5820435,-1.0228646,0.2705341,-0.83044684,-2.8927436,4.952826
502,1747638642.2384949,1.7423881,-1.0094491,0.22976951,-1.1494619,-3.0723326,5.1489844
503,1747638642.2390392,1.7423881,-1.0094491,0.22976951,-1.1494619,-3.0723326,5.1489844
504,1747638642.2543542,1.7970562,-0.97822785,0.5626548,-1.6828078,-2.3123622,5.858789
505,1747638642.2695477,1.8609928,-0.98896015,0.88066113,-1.6192797,-1.9373021,6.1367245
506,1747638642.2695477,1.8609928,-0.98896015,0.88066113,-1.6192797,-1.9373021,6.1367245
507,1747638642.2849498,2.1138122,-1.0133518,1.1347003,-0.63665557,-1.401589,6.60952
508,1747638642.3001935,2.4928284,-1.0309138,0.9006623,-0.13881505,-1.5145957,6.445813
509,1747638642.300833,2.4928284,-1.0309138,0.9006623,-0.13881505,-1.5145957,6.445813
510,1747638642.3160346,2.695889,-0.9848135,0.57972896,-0.11079242,-1.9342479,6.040821
511,1747638642.3309078,2.6067984,-0.55527633,0.8152305,-0.7831062,-2.9367247,5.373776
512,1747638642.3319435,2.6067984,-0.55527633,0.8152305,-1.1282349,-2.786456,5.5087733
513,1747638642.3462727,2.6670763,-0.4159389,1.0426828,-1.1949699,-2.1193345,5.973017
514,1747638642.361472,2.8293724,-0.24925235,1.2965086,-1.0379058,-1.4687822,6.450089
515,1747638642.3641498,2.8293724,-0.24925235,1.2965086,-1.0379058,-1.4687822,6.450089
516,1747638642.3773878,3.7633293,-0.07378479,1.0480795,-0.73759806,-0.7229377,6.6351757
517,1747638642.3783908,3.7633293,-0.07378479,1.0480795,-0.73759806,-0.7229377,6.6351757
518,1747638642.3935177,4.6279836,0.20053,0.74178106,-1.7425945,-0.909857,4.3450327
519,1747638642.4083335,4.728538,1.0241756,1.2828492,-2.0186212,-1.2690352,3.3847811
520,1747638642.4093337,4.728538,1.0241756,1.2828492,-2.0186212,-1.2690352,3.3847811
521,1747638642.4242506,4.586518,1.7138804,1.8680663,-1.9681499,-1.4443483,2.8185256
522,1747638642.4394662,4.8500695,2.2736998,2.0245085,-0.913293,-0.7174401,2.1501822
523,1747638642.4405212,4.8500695,2.2736998,2.0245085,-0.913293,-0.7174401,2.1501822
524,1747638642.455061,5.233964,2.460418,1.8312043,-0.53258246,-0.09071082,1.8490347
525,1747638642.4706414,6.280671,2.1480217,1.4722201,-0.69835114,0.8347991,0.48379102
526,1747638642.4716733,6.280671,2.1480217,1.4722201,-0.69835114,0.8347991,0.48379102
527,1747638642.4858205,5.948274,1.2365052,2.451576,-0.76623154,1.9850246,-3.4398336
528,1747638642.5012162,5.341592,0.8399271,2.9894428,0.37643462,2.103529,-4.770259
529,1747638642.5022204,5.341592,0.8399271,2.9894428,0.37643462,2.103529,-4.770259
530,1747638642.516366,4.846167,0.22592781,2.577254,3.2413845,1.4047196,-6.802624
531,1747638642.5320194,4.2665596,-0.1252817,1.2496461,4.1417737,1.0736405,-7.906425
532,1747638642.5331068,3.6708543,-0.14479503,0.43600106,4.1417737,1.0736405,-7.906425
533,1747638642.5472188,3.4595006,-0.10061563,0.17436993,3.9349253,1.343024,-8.209405
534,1747638642.5631192,3.4070282,0.006768687,0.22147635,1.1958098,2.618473,-7.2369366
535,1747638642.5641665,3.4070282,0.006768687,0.22147635,1.1958098,2.618473,-7.2369366
536,1747638642.578449,3.482185,-0.06744295,0.7242191,0.08926006,3.1255527,-6.95106
537,1747638642.5794895,3.482185,-0.06744295,0.7242191,0.08926006,3.1255527,-6.95106
538,1747638642.5937047,3.433615,-0.21873227,1.1588482,0.013820419,3.2373378,-6.999928
539,1747638642.6089225,3.29257,-0.5152435,1.6169541,1.1628242,3.0039942,-7.2894692
540,1747638642.609923,3.29257,-0.5152435,1.6169541,1.1628242,3.0039942,-7.2894692
541,1747638642.6249466,3.0990527,-1.0294503,1.340688,3.1541862,2.3063302,-8.123887
542,1747638642.6398127,2.9028218,-1.2041861,1.007071,3.7529693,1.9300482,-8.52529
543,1747638642.6407874,2.9028218,-1.2041861,1.007071,3.7529693,1.9300482,-8.52529
544,1747638642.655013,2.4088907,-1.340627,0.40523705,4.0370893,1.6001908,-8.783678
545,1747638642.6698272,2.0899084,-1.3367243,0.07628494,3.6644728,1.3900594,-8.694494
546,1747638642.6708288,2.0899084,-1.3367243,0.07628494,3.6644728,1.3900594,-8.694494
547,1747638642.6859498,1.6393945,-1.2278765,-0.1253122,2.843876,1.586752,-8.005383
548,1747638642.7018967,1.6208568,-1.2071435,-0.13702019,2.5964825,1.6148511,-7.699959
549,1747638642.7029014,1.6208568,-1.2071435,-0.13702019,2.3136604,1.6362307,-7.397589
550,1747638642.7166593,1.7755609,-1.1741843,-0.27882725,1.8581973,1.6062993,-7.263814
551,1747638642.7321687,1.7579988,-1.1429325,-0.23318435,1.4868022,1.4578633,-7.257705
552,1747638642.7331717,1.7579988,-1.1429325,-0.23318435,1.4868022,1.4578633,-7.257705
553,1747638642.7480097,1.6132954,-1.0577751,-0.13945936,1.1073134,1.1402228,-7.273587
554,1747638642.7490137,1.6132954,-1.0577751,-0.13945936,1.1073134,1.1402228,-7.273587
555,1747638642.7637765,1.2457434,-0.9096263,0.028202865,0.9820897,0.59962296,-6.850881
556,1747638642.779268,1.2201321,-0.82081,-0.050155364,1.0063709,0.5666372,-6.41046
557,1747638642.779268,1.2201321,-0.82081,-0.050155364,1.0063709,0.5666372,-6.41046
558,1747638642.7953193,1.3458103,-0.7002543,-0.3603259,0.6294781,1.0461522,-5.672557
559,1747638642.8105996,1.4414866,-0.6448547,-0.47746688,0.013209572,1.603245,-5.218621
560,1747638642.8106394,1.4414866,-0.6448547,-0.47746688,0.013209572,1.603245,-5.218621
561,1747638642.8257637,1.3875505,-0.6026266,-0.22903776,-0.8515974,2.2055404,-4.6853514
562,1747638642.841006,1.2552562,-0.57799107,0.059912033,-0.89588386,2.2263093,-4.461781
563,1747638642.841006,1.2552562,-0.57799107,0.059912033,-0.89588386,2.2263093,-4.461781
564,1747638642.8565326,0.9941434,-0.56186205,0.48164394,0.22318831,1.7565676,-3.8906388
565,1747638642.8717053,0.793278,-0.64558643,0.5494833,1.0238564,1.38334,-3.6194227
566,1747638642.8717713,0.793278,-0.64558643,0.5494833,1.0238564,1.38334,-3.6194227
567,1747638642.8869069,0.6319576,-0.68924755,0.4926202,1.9734185,0.9105442,-3.2883434
568,1747638642.9027584,0.3984074,-0.80370545,-0.20363994,2.7890522,0.17630579,-2.4153664
569,1747638642.9027584,0.31422567,-0.8876737,-1.1315295,2.7890522,0.17630579,-2.4153664
570,1747638642.918106,0.19269417,-0.83886,-1.5537187,1.7254144,0.7059104,-2.2541027
571,1747638642.9191637,0.19269417,-0.83886,-1.5537187,1.7254144,0.7059104,-2.2541027
572,1747638642.9338272,-0.00085370836,-0.9220965,-1.7194296,0.211964,1.6796008,-2.1349876
573,1747638642.9486377,-0.7068705,-1.2056496,-1.0256087,-1.6317258,3.4914503,-1.8619388
574,1747638642.9496415,-0.7068705,-1.2056496,-1.0256087,-1.6317258,3.4914503,-1.8619388
575,1747638642.9637823,-1.5983859,-1.4887455,-0.017927876,-0.19180603,2.1078048,-1.5045931
576,1747638642.9789422,-1.838278,-1.4809401,-0.13970327,0.82136047,1.1945882,-1.5644562
577,1747638642.9795723,-1.838278,-1.4809401,-0.13970327,0.82136047,1.1945882,-1.5644562
578,1747638642.993782,-2.6743634,-1.4389864,-1.2120525,2.5678492,-1.2446012,-1.5766732
579,1747638643.0095196,-2.8818145,-1.4563044,-1.687202,2.3460352,-1.7955855,-1.2315444
580,1747638643.0105262,-2.8818145,-1.4563044,-1.687202,2.3460352,-1.7955855,-1.2315444
581,1747638643.0246358,-3.0306952,-1.4267601,-1.9146544,1.6674603,-1.729614,-0.70743746
582,1747638643.0398932,-2.9896867,-1.3252603,-1.8655967,0.3016822,-0.43706122,0.47646087
583,1747638643.0408971,-2.9896867,-1.3252603,-1.8655967,0.3016822,-0.43706122,0.47646087
584,1747638643.0553818,-2.651923,-1.3071799,-1.3152902,-0.796163,0.26915458,1.7665703
585,1747638643.0713177,-2.4049573,-1.2581222,-1.186929,-0.8659524,0.074217945,2.034732
586,1747638643.0724063,-2.4049573,-1.2581222,-1.186929,-0.8659524,0.074217945,2.034732
587,1747638643.0873823,-2.0676818,-1.1456157,-1.1114978,-0.9307785,-0.19333316,2.203326
588,1747638643.088481,-2.0676818,-1.1456157,-1.1114978,-0.9307785,-0.19333316,2.203326
589,1747638643.1027253,-1.4790192,-1.0326211,-0.98679537,-1.3145432,-0.5158605,2.437357
590,1747638643.118171,-1.2567197,-1.015547,-0.862093,-1.5002409,-0.5873296,2.5833495
591,1747638643.1196032,-1.2567197,-1.015547,-0.862093,-1.5002409,-0.5873296,2.5833495
592,1747638643.132843,-0.8271825,-0.91304106,-0.5496967,-1.708998,-0.5183039,3.208857
593,1747638643.148129,-0.6758626,-0.8969426,-0.44307464,-1.7251854,-0.4187358,3.4348705
594,1747638643.1491327,-0.6758626,-0.8969426,-0.44307464,-1.7251854,-0.4187358,3.4348705
595,1747638643.163604,-0.44158065,-0.88035625,-0.30492634,-1.7077762,-0.25319618,3.757398
596,1747638643.17897,-0.14555727,-0.8854785,-0.16436934,-1.6491349,-0.054059982,4.1098566
597,1747638643.1800003,-0.14555727,-0.8854785,-0.16436934,-1.6491349,-0.054059982,4.1098566
598,1747638643.1941519,0.09799352,-0.85690975,-0.06625386,-1.5887374,0.05650337,4.2815046
599,1747638643.21022,0.18952326,-0.8459335,-0.055033702,-1.5532318,0.03268033,4.316934
600,1747638643.2112865,0.18952326,-0.8459335,-0.055033702,-1.5532318,0.03268033,4.316934
601,1747638643.226002,0.25297207,-0.86450166,-0.046496615,-1.565067,-0.22204298,4.486139
602,1747638643.241089,0.33910516,-0.91548026,-0.015244792,-1.657305,-0.5958815,4.749414
603,1747638643.2421243,0.33910516,-0.91548026,-0.015244792,-1.6958647,-0.7510367,4.952215
604,1747638643.2562606,0.43161055,-0.94087803,0.06625386,-1.6958647,-0.7510367,4.952215
605,1747638643.2712224,0.5931749,-0.9948142,0.19659685,-1.6024051,-0.7962394,5.255272
606,1747638643.2722971,0.5931749,-0.9948142,0.19659685,-1.6024051,-0.7962394,5.255272
607,1747638643.2871788,0.8047421,-1.0909477,0.21415883,-1.3762388,-0.8029587,5.5551977
608,1747638643.3028204,0.86748964,-1.100735,0.21342708,-1.3544774,-0.99904066,5.5521436
609,1747638643.3039193,0.86748964,-1.100735,0.21342708,-1.3544774,-0.99904066,5.5521436
610,1747638643.3186417,0.9599645,-1.1414691,0.20586567,-1.3282874,-1.4076976,5.550311
611,1747638643.3196263,0.9599645,-1.1414691,0.20586567,-1.3282874,-1.4076976,5.550311
612,1747638643.3339708,1.1996127,-1.2327548,0.21171968,-1.3301198,-1.7754276,5.7360086
613,1747638643.3491564,1.2721169,-1.2566587,0.28029075,-1.3588297,-1.7021259,5.8807793
614,1747638643.3501644,1.2721169,-1.2566587,0.28029075,-1.3588297,-1.7021259,5.8807793
615,1747638643.3649087,1.3201685,-1.2471459,0.35178882,-1.3513469,-1.5720154,6.0029488
616,1747638643.3796043,1.5198143,-1.2844957,0.49310803,-1.3220261,-1.3967023,6.437872
617,1747638643.3805876,1.674305,-1.3091313,0.50652343,-1.3220261,-1.3967023,6.437872
618,1747638643.394828,1.674305,-1.3091313,0.50652343,-1.3905938,-1.4229687,6.6241803
619,1747638643.4096587,1.9983789,-1.2537317,0.53289694,-1.5725499,-1.3820419,6.8587456
620,1747638643.4106896,1.9983789,-1.2537317,0.53289694,-1.5725499,-1.3820419,6.8587456
621,1747638643.4256232,2.3173609,-1.0531408,0.5958579,-1.6155382,-1.1871816,6.6748805
622,1747638643.4408455,2.3873954,-0.9987168,0.74690336,-1.5021498,-1.4547328,6.337693
623,1747638643.4418497,2.3873954,-0.9987168,0.74690336,-1.5021498,-1.4547328,6.337693
624,1747638643.45673,2.367638,-0.8508118,0.9345972,-0.93383276,-2.4931731,5.7561665
625,1747638643.4727223,2.3207755,-0.68607664,0.870874,-0.3955236,-2.9929225,5.558252
626,1747638643.4737244,2.3068724,-0.5572277,0.6746735,-0.09086353,-2.9281726,5.608341
627,1747638643.488034,2.3715408,-0.47694856,0.4071884,-0.1182753,-2.4760695,5.814808
628,1747638643.4890368,2.3715408,-0.47694856,0.4071884,-0.1182753,-2.4760695,5.814808
629,1747638643.5035136,2.511366,-0.40444434,0.16217409,-0.516395,-1.6960174,6.0224957
630,1747638643.5188155,2.835714,-0.39224848,0.201963,-2.037939,-0.25258535,6.081748
631,1747638643.5198162,2.835714,-0.39224848,0.201963,-2.037939,-0.25258535,6.081748
632,1747638643.5347352,2.92014,-0.24876453,0.5426536,-2.5283732,-0.40896225,5.9052134
633,1747638643.5497453,3.1446652,-0.030824969,1.0773494,-2.4710298,-1.3392826,5.42692
634,1747638643.5509174,3.1446652,-0.030824969,1.0773494,-2.4710298,-1.3392826,5.42692
635,1747638643.5656705,3.5170956,0.47289345,1.2115647,-1.3550882,-1.7711517,4.8917413
636,1747638643.580758,3.764793,0.67738706,0.8748072,-0.9613209,-1.1767973,4.750025
637,1747638643.5817587,3.764793,0.67738706,0.8748072,-0.9613209,-1.1767973,4.750025
638,1747638643.5962899,4.287293,0.9727092,0.22879384,-1.0516499,-0.4162924,4.552721
639,1747638643.6113095,5.3435435,1.8852016,0.7664472,-2.5276859,0.49883315,4.13368
640,1747638643.6123507,5.3435435,1.8852016,0.7664472,-2.5276859,0.49883315,4.13368
641,1747638643.626629,5.5482807,2.426971,1.5613106,-3.269789,-0.12736166,2.429416
642,1747638643.6425953,5.620541,2.7290924,2.091128,-2.3688657,-0.3478775,1.3004938
643,1747638643.6437101,5.620541,2.7290924,2.091128,-2.3688657,-0.3478775,1.3004938
644,1747638643.6582162,5.5280356,3.1700935,2.1823833,0.6543701,-0.005803049,-1.0733349
645,1747638643.6592903,5.5280356,3.1700935,2.1823833,0.6543701,-0.005803049,-1.0733349
646,1747638643.6737933,5.4211397,2.9746249,1.7221128,1.6892982,-0.35642937,-2.4306376
647,1747638643.6885784,4.8918095,2.1687546,0.29077914,2.1104772,-0.9226848,-4.73483
648,1747638643.6895785,4.8918095,2.1687546,0.29077914,2.1104772,-0.9226848,-4.73483
649,1747638643.7038932,4.2109165,1.4290773,-0.13897152,-0.14194563,-0.37780902,-6.3933563
650,1747638643.7195354,3.5249007,0.8628858,0.25443557,-1.4529002,0.5104392,-6.4581065
651,1747638643.722021,3.2259505,0.5180485,0.7166577,-2.006175,1.2544512,-6.2424774
652,1747638643.7342095,3.2259505,0.5180485,0.7166577,-2.006175,1.2544512,-6.2424774
653,1747638643.75001,2.9916685,0.21882375,1.2720864,-1.8317019,2.0412226,-5.7886176
654,1747638643.751076,2.9916685,0.21882375,1.2720864,-1.8317019,2.0412226,-5.7886176
655,1747638643.7648358,3.3028145,0.035794772,1.552743,-0.3425326,1.8799587,-5.897959
656,1747638643.7805212,3.4126382,-0.015214303,1.424138,0.5154024,1.5763677,-6.2803497
657,1747638643.7815216,3.4126382,-0.015214303,1.424138,0.5154024,1.5763677,-6.2803497
658,1747638643.7961376,3.3560188,-0.14820987,1.0595435,1.6376052,0.94230825,-7.0695643
659,1747638643.8110178,3.036793,-0.29023036,0.550215,1.9759382,0.41392538,-7.5496902
660,1747638643.812064,3.036793,-0.29023036,0.550215,1.9759382,0.41392538,-7.5496902
661,1747638643.8260334,2.8269331,-0.34294683,0.26150915,1.8026866,0.30091864,-7.635209
662,1747638643.8417776,2.4686806,-0.36980817,0.047960117,1.0033166,0.7737144,-7.4128604
663,1747638643.8429112,2.3298006,-0.3817601,0.07823627,0.5702259,1.1695434,-7.1227083
664,1747638643.857204,2.184853,-0.4364279,0.20415826,0.26495498,1.5421603,-6.6963367
665,1747638643.876088,2.211684,-0.51377994,0.2151345,0.16775393,1.7565676,-6.411682
666,1747638643.8770883,2.211684,-0.51377994,0.2151345,0.1390441,1.9098903,-6.2406445
667,1747638643.8791175,2.211684,-0.51377994,0.2151345,0.1390441,1.9098903,-6.2406445
668,1747638643.8915238,2.3520274,-0.6216521,0.11604336,0.15904936,2.0485528,-6.195442
669,1747638643.9066966,2.3495579,-0.8952351,-0.030367626,0.1982963,2.178663,-6.552788
670,1747638643.9225514,2.2219284,-0.99237496,-0.0725957,0.24128467,2.0357249,-6.679233
671,1747638643.923632,2.1001532,-1.0426522,-0.11457986,0.24128467,2.0357249,-6.679233
672,1747638643.9381375,1.9661818,-1.0995153,-0.15604569,0.32413083,1.7425182,-6.7897964
673,1747638643.9391406,1.9661818,-1.0995153,-0.15604569,0.32413083,1.7425182,-6.7897964
674,1747638643.9536188,1.466366,-1.1968687,-0.19534676,0.31977853,1.6960938,-6.6657944
675,1747638643.9684021,1.3221503,-1.1856484,-0.21732976,0.4381302,1.7919968,-5.987754
676,1747638643.9695082,1.3221503,-1.1856484,-0.21732976,0.4381302,1.7919968,-5.987754
677,1747638643.9838603,1.2398894,-1.1334198,-0.29956016,0.6294781,1.6008016,-5.3517857
678,1747638643.9992301,1.3660553,-1.0599704,-0.42694563,0.54281414,1.451144,-5.0805693
679,1747638643.9998355,1.3660553,-1.0599704,-0.42694563,0.54281414,1.451144,-5.0805693
680,1747638644.0147157,1.4082835,-1.0572873,-0.40913972,0.3378749,1.4236559,-5.1208854
681,1747638644.0298913,1.2179369,-1.0814351,-0.073327444,0.3004605,1.3760098,-5.105614
682,1747638644.0309176,1.2179369,-1.0814351,-0.073327444,0.3004605,1.3760098,-5.105614
683,1747638644.044671,0.9216696,-0.9699041,0.22879384,1.3166813,0.8818344,-4.659085
684,1747638644.060049,0.88334423,-0.8852346,0.2031826,1.9441742,0.7749361,-4.3237295
685,1747638644.061127,0.88334423,-0.8852346,0.2031826,1.9441742,0.7749361,-4.3237295
686,1747638644.075926,1.2154977,-0.9110898,-0.41353023,2.6768854,0.85190284,-3.9077427
687,1747638644.0911252,1.4097469,-1.0006682,-1.0470732,2.2114198,0.6826982,-4.2198853
688,1747638644.0922477,1.4097469,-1.0006682,-1.0470732,2.2114198,0.6826982,-4.2198853
689,1747638644.106587,1.2345233,-1.1468352,-1.3321204,1.4911546,0.84884864,-4.6731343
690,1747638644.1216273,0.168272,-1.195649,-1.1249131,0.28740364,1.2605597,-4.9083104
691,1747638644.1226292,-0.24781933,-1.3079116,-0.9313958,0.28740364,1.2605597,-4.9083104
692,1747638644.1369178,-0.8830698,-1.4004171,-0.6683012,0.25686127,0.8586222,-3.8484905
693,1747638644.152327,-1.1629947,-1.4289553,-0.8252311,0.4201102,0.79020727,-3.2755158
694,1747638644.1533284,-1.1629947,-1.4289553,-0.8252311,0.4201102,0.79020727,-3.2755158
695,1747638644.1680543,-1.6708597,-1.358189,-1.1896122,-0.15752223,0.8806127,-2.856398
696,1747638644.169158,-1.6708597,-1.358189,-1.1896122,-0.15752223,0.8806127,-2.856398
697,1747638644.183346,-2.260955,-1.4148082,-0.7686119,-1.1133455,1.3821182,-2.2357774
698,1747638644.1987035,-2.537709,-1.3706287,-0.5570447,-1.1133455,1.3821182,-2.2357774
699,1747638644.1997442,-2.537709,-1.3706287,-0.5570447,-0.9226848,1.0797489,-1.9871625
700,1747638644.214192,-2.660216,-1.3464811,-0.5394522,-0.68216366,0.6778114,-1.7910805
701,1747638644.2300217,-2.9586787,-1.3181561,-0.6351285,-0.31886226,-0.105982,-1.3396643
702,1747638644.2310886,-2.9586787,-1.3181561,-0.6351285,-0.31886226,-0.105982,-1.3396643
703,1747638644.2453923,-3.0328903,-1.2905936,-0.6675694,-0.2247918,-0.59221643,-0.6048151
704,1747638644.260639,-2.8857172,-1.3191319,-0.72077376,-0.33260635,-0.4987568,0.49845135
705,1747638644.261639,-2.8857172,-1.3191319,-0.72077376,-0.33260635,-0.4987568,0.49845135
706,1747638644.2763946,-2.5867667,-1.3330655,-0.71711504,-0.8067765,-0.14263284,1.3744063
707,1747638644.2924237,-2.520391,-1.2996185,-0.59582746,-0.9849912,-0.14507623,1.6309621
708,1747638644.2935348,-2.520391,-1.2996185,-0.59582746,-0.9849912,-0.14507623,1.6309621
709,1747638644.30761,-2.3585827,-1.1856484,-0.3430078,-0.96437514,-0.41140562,2.1037579
710,1747638644.3086357,-2.3585827,-1.1856484,-0.3430078,-0.96437514,-0.41140562,2.1037579
711,1747638644.3225546,-1.9678588,-1.0687513,-0.2751685,-0.7650098,-0.6227588,2.4538498
712,1747638644.3380032,-1.7635787,-1.027255,-0.31858566,-0.52135813,-0.72538114,2.9987257
713,1747638644.3390036,-1.7635787,-1.027255,-0.31858566,-0.52135813,-0.72538114,2.9987257
714,1747638644.3534505,-1.5234425,-1.0153031,-0.35739893,-0.54197425,-0.74126315,3.256503
715,1747638644.3689954,-1.1071073,-1.0084735,-0.31078032,-0.606724,-0.7266028,3.8539116
716,1747638644.3696032,-1.1071073,-1.0084735,-0.31078032,-0.606724,-0.7266028,3.8539116
717,1747638644.3849046,-0.5838755,-0.99847287,-0.2780955,-0.61985725,-0.95628136,4.376186
718,1747638644.4001532,-0.4257261,-0.976246,-0.27711985,-0.6291727,-0.91291124,4.5295086
719,1747638644.400704,-0.4257261,-0.976246,-0.27711985,-0.6291727,-0.91291124,4.5295086
720,1747638644.4154782,0.043081783,-0.86401385,-0.33032414,-0.8030351,-0.31061584,4.9961963
721,1747638644.4311836,0.231233,-0.83007896,-0.33227548,-0.9606337,-0.07605048,5.147152
722,1747638644.4312143,0.231233,-0.83007896,-0.33227548,-0.9606337,-0.07605048,5.147152
723,1747638644.446089,0.4355132,-0.8698678,-0.22562292,-1.0927294,-0.07116371,5.3236866
724,1747638644.4615738,0.60780984,-0.9211208,-0.23928225,-1.0061418,-0.4614951,5.498389
725,1747638644.4615738,0.60780984,-0.9211208,-0.23928225,-1.0061418,-0.4614951,5.498389
726,1747638644.4768388,0.9995096,-0.9845696,-0.3073655,-1.0167552,-0.8359445,5.7207375
727,1747638644.492476,1.1015277,-0.9874967,-0.32468358,-0.98743457,-0.8719845,5.808699
728,1747638644.493585,1.1015277,-0.9874967,-0.32468358,-0.98743457,-0.8719845,5.808699
729,1747638644.5072236,1.3341023,-0.9965216,-0.45941702,-1.3650146,-0.8414421,5.9565244
730,1747638644.5225012,1.3353218,-1.0072539,-0.3778879,-2.0809276,-0.76875126,6.20575
731,1747638644.523579,1.3353218,-1.0072539,-0.3778879,-2.0809276,-0.76875126,6.20575
732,1747638644.5380347,1.3201685,-0.9943263,-0.2470876,-2.4261327,-0.7534801,6.4012213
733,1747638644.5396686,1.3201685,-0.9943263,-0.2470876,-2.4261327,-0.7534801,6.4012213
734,1747638644.5533268,1.490026,-1.0472867,-0.100432694,-2.6348896,-0.70522314,6.5838647
735,1747638644.5680366,1.6628106,-1.1207361,0.10653061,-3.1644943,-0.47798797,6.8269815
736,1747638644.5691044,1.6628106,-1.1207361,0.10653061,-3.1644943,-0.47798797,6.8269815
737,1747638644.5833745,1.9334664,-1.195649,0.39304122,-3.1295996,-0.7266028,6.673659
738,1747638644.5986223,2.1238434,-1.1056132,0.7264143,-2.287852,-2.473015,5.6028438
739,1747638644.5996027,2.1238434,-1.1056132,0.7264143,-2.287852,-2.473015,5.6028438
740,1747638644.6138897,1.8485531,-0.9188951,0.48725405,-0.7008709,-4.6489296,4.4500985
741,1747638644.6292014,1.7111365,-0.87962455,0.27638808,-0.51578414,-4.494996,4.6119733
742,1747638644.6302102,1.7111365,-0.87962455,0.27638808,-0.51578414,-4.494996,4.6119733
743,1747638644.644454,1.535181,-0.92380387,0.11140894,-0.9213867,-2.9410005,5.5399265
744,1747638644.6593912,1.5647255,-0.97453856,0.25614297,-1.2815576,-1.6868547,6.478188
745,1747638644.6604228,1.5647255,-0.97453856,0.25614297,-1.2815576,-1.6868547,6.478188
746,1747638644.6749532,1.6723536,-1.0160348,0.3032494,-1.4005964,-1.2727003,6.8831797
747,1747638644.6902184,2.0662487,-1.2783978,0.46966153,-1.6784556,-1.4180819,6.928993
748,1747638644.691296,2.0662487,-1.2783978,0.46966153,-1.6784556,-1.4180819,6.928993
749,1747638644.7053308,2.177261,-1.3952948,0.9091994,-1.3862416,-2.7320907,6.3034854
750,1747638644.7205453,2.0274353,-1.418223,1.0775934,-0.8690829,-2.8640337,6.225297
751,1747638644.7215462,2.0274353,-1.418223,1.0775934,-0.8690829,-2.8640337,6.225297
752,1747638644.7359233,1.7809577,-1.2718121,0.77425253,-0.19302773,-2.730869,6.434207
753,1747638644.7514613,2.545301,-1.2247056,-0.01695221,0.35963634,-1.7632107,7.6528473
754,1747638644.7525225,2.545301,-1.2247056,-0.01695221,-0.075897776,-1.057682,8.03226
755,1747638644.7666812,2.545301,-1.2247056,-0.01695221,-0.075897776,-1.057682,8.03226
756,1747638644.7819204,3.0202067,-1.310107,0.23855051,-1.3482163,-0.07666133,7.879548
757,1747638644.7829864,3.0202067,-1.310107,0.23855051,-1.3482163,-0.07666133,7.879548
758,1747638644.7978346,3.1332011,-1.5399984,0.9706969,-1.3444748,-1.2971342,6.8269815
759,1747638644.7988644,3.1332011,-1.5399984,0.9706969,-1.3444748,-1.2971342,6.8269815
760,1747638644.8130896,3.0729232,-1.3511155,0.9990217,-0.8852704,-1.9886132,6.4403152
761,1747638644.8280528,3.4019058,-0.766874,0.4223417,-0.35070267,-1.5707937,6.528888
762,1747638644.8291314,3.4019058,-0.766874,0.4223417,-0.35070267,-1.5707937,6.528888
763,1747638644.843186,3.8006792,-0.6106759,0.025275866,-2.0504615,0.84151846,5.323076
764,1747638644.858423,3.5895693,-0.44642848,0.7344636,-2.451101,0.995452,4.6596193
765,1747638644.8595026,3.5895693,-0.44642848,0.7344636,-2.451101,0.995452,4.6596193
766,1747638644.8737762,3.1378355,-0.43862313,1.4497797,-2.2448637,0.62283516,3.9455388
767,1747638644.8890514,3.3562632,-0.0576558,1.2020519,-0.18241426,-1.6141639,4.040831
768,1747638644.8900516,3.3562632,-0.0576558,1.2020519,-0.18241426,-1.6141639,4.040831
769,1747638644.905035,5.31717,1.0847279,0.08994427,-0.7787539,-0.05833591,4.057324
770,1747638644.9207833,7.296645,2.3098297,0.26126525,-1.0429454,0.80670017,4.024949
771,1747638644.921785,7.296645,2.3098297,0.26126525,-1.0429454,0.80670017,4.024949
772,1747638644.9357476,4.6331058,0.79257673,0.91188246,-2.6997159,2.3851295,-1.4667206
773,1747638644.9516997,4.3932137,0.09460918,1.2042471,-2.1433103,3.592851,-1.885151
774,1747638644.9527009,4.3932137,0.09460918,1.2042471,-2.1433103,3.592851,-1.885151
775,1747638644.96663,4.091824,-0.07036996,1.3299252,-1.7806197,3.5048888,-1.8087951
776,1747638644.9817846,4.0000505,-0.81861484,1.0775934,-0.59427804,3.4835093,-2.5173779
777,1747638644.982785,4.0000505,-0.81861484,1.0775934,-0.59427804,3.4835093,-2.5173779
778,1747638644.9967952,3.5846908,-1.1353711,1.1137235,0.054976255,2.6367986,-5.010933
779,1747638645.0122206,3.0807285,-1.3962705,1.0778373,0.44996536,2.2806747,-5.6321645
780,1747638645.0132208,3.0807285,-1.3962705,1.0778373,0.44996536,2.2806747,-5.6321645
781,1747638645.0276046,2.4833157,-1.7459861,0.84648234,1.1029611,1.9263831,-5.770903
782,1747638645.0286372,2.4833157,-1.7459861,0.84648234,1.1029611,1.9263831,-5.770903
783,1747638645.0434012,2.470876,-1.8375157,0.68003964,1.1796224,1.8860673,-5.659118
784,1747638645.0586743,2.5038047,-1.8223624,0.72519475,0.9453625,2.0119019,-5.4702897
785,1747638645.0597193,2.5038047,-1.8223624,0.72519475,0.9453625,2.0119019,-5.4702897
786,1747638645.0745082,2.5509112,-1.7823601,0.93801206,1.1764919,2.759579,-5.422033
787,1747638645.089337,2.4613326,-1.7572062,1.012681,1.4855806,2.892209,-5.4721227
788,1747638645.0913754,2.4613326,-1.7572062,1.012681,1.4855806,2.892209,-5.4721227
789,1747638645.1044629,2.4266965,-1.7411077,1.0085344,1.9073706,2.7669091,-5.5497003
790,1747638645.119294,2.3551984,-1.6181128,0.7818139,2.5398266,2.2140923,-5.875358
791,1747638645.12038,2.3551984,-1.6181128,0.7818139,2.5398266,2.2140923,-5.875358
792,1747638645.1346235,2.2512288,-1.520729,0.5728993,2.7092602,1.7565676,-6.4251204
793,1747638645.1504247,2.2046103,-1.5017034,0.5558251,2.6476412,1.7901642,-6.5289645
794,1747638645.1504247,2.2046103,-1.5017034,0.5558251,2.6476412,1.7901642,-6.5289645
795,1747638645.166536,2.0660048,-1.5065818,0.55216634,2.426438,2.394903,-6.5772214
796,1747638645.1817074,1.9844756,-1.4919468,0.6051268,2.4033785,2.8036363,-6.4526086
797,1747638645.18271,1.9844756,-1.4919468,0.6051268,2.4033785,2.8036363,-6.4526086
798,1747638645.1965575,2.013776,-1.5046304,0.6973577,2.4992816,2.956348,-6.3298283
799,1747638645.2120292,2.1357954,-1.4828913,0.6654047,2.869455,2.651459,-6.2815714
800,1747638645.2130296,2.1357954,-1.4828913,0.6654047,2.869455,2.651459,-6.2815714
801,1747638645.2276287,2.3095555,-1.5880805,0.43624496,3.18847,2.3637497,-6.73482
802,1747638645.228672,2.3095555,-1.5880805,0.43624496,3.18847,2.3637497,-6.73482
803,1747638645.2429152,2.310775,-1.6586028,0.37304008,3.284373,2.2318068,-6.966331
804,1747638645.257914,2.214123,-1.7462299,0.23050125,3.480684,1.9636449,-7.387205
805,1747638645.2589784,2.214123,-1.7462299,0.23050125,3.480684,1.9636449,-7.387205
806,1747638645.2733357,1.9141971,-1.7955316,-0.1355567,3.5112264,1.6319548,-7.769595
807,1747638645.2887301,1.7721461,-1.7662311,-0.28882784,3.5112264,1.6319548,-7.769595
808,1747638645.2897334,1.7721461,-1.7662311,-0.28882784,3.3753893,1.5439928,-7.814798
809,1747638645.3045342,1.6123196,-1.6825373,-0.44429418,2.9292417,1.3228661,-7.7451615
810,1747638645.3203957,1.4319433,-1.6217715,-0.46941763,2.54227,1.0412655,-7.6895742
811,1747638645.3213968,1.4319433,-1.6217715,-0.46941763,2.54227,1.0412655,-7.6895742
812,1747638645.3357952,1.2994355,-1.5775921,-0.44697732,2.3391633,0.8189171,-7.6248245
813,1747638645.350691,1.0880818,-1.4980447,-0.52432936,2.0874178,0.5257104,-7.431797
814,1747638645.351702,1.0880818,-1.4980447,-0.52432936,2.0874178,0.5257104,-7.431797
815,1747638645.3661435,0.86627007,-1.4365473,-0.58704644,1.585225,0.38093963,-7.1410336
816,1747638645.3817801,0.71446246,-1.3689214,-0.58119243,1.3540957,0.28442577,-6.922961
817,1747638645.3827808,0.71446246,-1.3689214,-0.58119243,1.3540957,0.28442577,-6.922961
818,1747638645.3969438,0.4367328,-1.2512925,-0.5950957,1.0344698,0.3406237,-6.304173
819,1747638645.4124262,0.29983455,-1.1597934,-0.6685451,0.7066739,0.7401178,-5.545424
820,1747638645.413429,0.24175191,-1.1453718,-0.75007427,0.5160132,0.9923977,-5.2119017
821,1747638645.4276214,0.24175191,-1.1453718,-0.75007427,0.5160132,0.9923977,-5.2119017
822,1747638645.4286647,0.072870106,-1.1561346,-0.74714726,0.16340165,1.3601278,-4.798358
823,1747638645.4427524,-0.047929626,-1.149061,-0.6656181,0.030695075,1.4731345,-4.622434
824,1747638645.4586215,-0.43572664,-1.2100706,-0.5296955,0.16088189,1.1005177,-4.5002646
825,1747638645.4597325,-0.43572664,-1.2100706,-0.5296955,0.16088189,1.1005177,-4.5002646
826,1747638645.4739907,-0.7022361,-1.229096,-0.58021677,0.20509197,0.80547845,-4.502097
827,1747638645.4898455,-1.1134491,-1.3179122,-0.5904613,0.13843326,0.5678589,-4.1832347
828,1747638645.4908755,-1.1134491,-1.3179122,-0.5904613,0.13843326,0.5678589,-4.1832347
829,1747638645.5050864,-1.4148387,-1.3911483,-0.519695,0.016951011,0.59840125,-3.4288385
830,1747638645.5200884,-1.5027096,-1.3826112,-0.48844314,0.012598725,0.65276664,-3.2248154
831,1747638645.5210898,-1.5027096,-1.3826112,-0.48844314,0.012598725,0.65276664,-3.2248154
832,1747638645.5356658,-1.8729142,-1.3572134,-0.44307464,0.12476555,0.7724927,-2.7775989
833,1747638645.5504718,-2.0610957,-1.3804159,-0.48258913,0.20012884,0.8909971,-2.3793263
834,1747638645.5515978,-2.0610957,-1.3804159,-0.48258913,0.20012884,0.8909971,-2.3793263
835,1747638645.5659485,-2.528928,-1.4792327,-0.4545387,0.3639886,0.7596649,-1.9046981
836,1747638645.5815637,-2.6807053,-1.4806962,-0.40938362,0.54785365,0.105371155,-1.6560832
837,1747638645.5826194,-2.6807053,-1.4806962,-0.40938362,0.54785365,0.105371155,-1.6560832
838,1747638645.5971613,-2.9420924,-1.5219486,-0.42523822,0.9952229,-1.4315206,-1.0550096
839,1747638645.6118324,-3.0856068,-1.5226803,-0.45331916,1.0967762,-1.5903409,-0.7685222
840,1747638645.612835,-3.0856068,-1.5226803,-0.45331916,1.0967762,-1.5903409,-0.7685222
841,1747638645.6277163,-3.3274503,-1.4226135,-0.42548215,1.0382112,-1.5579659,0.5515951
842,1747638645.6287756,-3.3274503,-1.4226135,-0.42548215,1.0382112,-1.5579659,0.5515951
843,1747638645.643021,-3.240067,-1.3645308,-0.44380638,0.8961129,-1.0301939,1.7708462
844,1747638645.6586921,-2.678266,-1.2913253,-0.42011598,0.4743229,-0.25502872,3.5264976
845,1747638645.6596708,-2.678266,-1.2913253,-0.42011598,0.4743229,-0.25502872,3.5264976
846,1747638645.6744561,-2.2694921,-1.244219,-0.41084716,0.2985516,-0.108425386,4.0658755
847,1747638645.6899388,-1.6305829,-1.1107355,-0.3202931,0.047493376,-0.1847813,4.3022738
848,1747638645.6909711,-1.6305829,-1.1107355,-0.3202931,0.047493376,-0.1847813,4.3022738
849,1747638645.7057738,-1.3936179,-1.0038391,-0.27468067,0.076126836,-0.55373305,4.3541956
850,1747638645.720566,-1.2608663,-0.970392,-0.27590024,0.13598987,-0.7437065,4.536839
851,1747638645.7215686,-1.2608663,-0.970392,-0.27590024,0.13598987,-0.7437065,4.536839
852,1747638645.7358625,-0.86184907,-0.89865,-0.44502598,0.09048175,-0.7718055,5.252828
853,1747638645.7517066,-0.6597641,-0.8745022,-0.5135971,-0.13629529,-0.53357506,5.618726
854,1747638645.75271,-0.6597641,-0.8745022,-0.5135971,-0.13629529,-0.53357506,5.618726
855,1747638645.767126,-0.2734306,-0.8681604,-0.62903064,-0.7170583,0.21662171,6.284549
856,1747638645.7823877,-0.031831127,-0.89986956,-0.67906404,-1.9071414,1.0999068,7.046887
857,1747638645.7833881,0.26833883,-0.9625866,-0.6126577,-1.9071414,1.0999068,7.046887
858,1747638645.7978415,0.5309456,-0.99213105,-0.44624552,-2.157589,1.0974635,7.104306
859,1747638645.7989056,0.5309456,-0.99213105,-0.44624552,-2.157589,1.0974635,7.104306
860,1747638645.813884,0.7083645,-0.9596597,-0.2754124,-2.3028178,0.97468317,7.034059
861,1747638645.829605,0.9201756,-0.9664893,-0.0059759584,-2.1993556,0.49150297,6.644338
862,1747638645.8306317,0.9201756,-0.9664893,-0.0059759584,-2.1993556,0.49150297,6.644338
863,1747638645.8448226,0.9306945,-0.92355996,0.13168451,-1.5313941,-0.30817243,5.9675198
864,1747638645.8606894,0.89261305,-0.92795044,0.055277612,-1.3612732,-0.39491275,5.942475
865,1747638645.8616896,0.89261305,-0.92795044,0.055277612,-1.3612732,-0.39491275,5.942475
866,1747638645.8761475,1.0209743,-0.9562448,-0.22269592,-1.4716074,-0.22021043,6.19842
867,1747638645.891314,1.2084242,-0.9933506,-0.30931684,-2.0716121,-0.11575556,6.353575
868,1747638645.8924034,1.2084242,-0.9933506,-0.30931684,-2.0716121,-0.11575556,6.353575
869,1747638645.9065979,1.5444498,-0.99115545,0.057960697,-2.5376885,-0.37841988,6.043265
870,1747638645.9217384,1.6301256,-0.9818866,0.23757485,-2.4267435,-0.7046123,5.698136
871,1747638645.9227383,1.6601274,-0.92941403,0.40621272,-2.4267435,-0.7046123,5.698136
872,1747638645.937344,1.5849705,-0.8659651,0.43429363,-1.589959,-1.5420839,4.8954062
873,1747638645.9383445,1.5849705,-0.8659651,0.43429363,-1.589959,-1.5420839,4.8954062
874,1747638645.9526784,1.4749031,-0.77492326,0.35105708,-1.3064495,-1.8181869,4.69627
875,1747638645.9678836,1.340688,-0.7680936,0.14973435,-1.251626,-1.6221049,4.7872863
876,1747638645.96891,1.340688,-0.7680936,0.14973435,-1.251626,-1.6221049,4.7872863
877,1747638645.9836009,1.5015206,-0.8066629,0.244435,-1.6971627,-0.7406523,5.177083
878,1747638645.9983,1.5635059,-0.78467995,0.23537959,-1.6971627,-0.7406523,5.177083
879,1747638645.9993496,1.5635059,-0.78467995,0.23537959,-1.6928104,-0.52624494,5.153871
880,1747638646.013814,1.4961543,-0.67949086,0.24784984,-1.7768784,-0.3582619,4.9381657
881,1747638646.0290077,1.4502676,-0.64436686,0.270778,-1.9258487,-0.6795676,4.7347536
882,1747638646.0300143,1.4502676,-0.64436686,0.270778,-1.9258487,-0.6795676,4.7347536
883,1747638646.0448284,1.4453893,-0.67656386,0.35715497,-2.006175,-0.8787038,4.6052537
884,1747638646.0599341,1.3123631,-0.744891,0.50945044,-1.948221,-1.2733111,4.336481
885,1747638646.0609875,1.3123631,-0.744891,0.50945044,-1.948221,-1.2733111,4.336481
886,1747638646.0753632,1.1893682,-0.7871191,0.48359528,-1.6323366,-1.3172921,4.5160704
887,1747638646.0907197,1.172294,-0.8078825,0.41377413,-1.636078,-1.1334271,4.6437373
888,1747638646.0918174,1.172294,-0.8078825,0.41377413,-1.636078,-1.1334271,4.6437373
889,1747638646.1057522,1.192783,-0.95917183,0.55192244,-1.9532604,-1.0839485,4.888687
890,1747638646.1217244,1.1666839,-1.0567994,0.77839905,-1.9700588,-1.1370921,5.3169675
891,1747638646.1227257,1.2157416,-1.1597934,0.8745633,-1.8217756,-1.1627477,5.6993575
892,1747638646.1369984,1.2157416,-1.1597934,0.8745633,-1.8217756,-1.1627477,5.6993575
893,1747638646.151903,1.5095698,-1.1932099,0.84428704,-1.4404542,-1.4028107,6.30654
894,1747638646.1529055,1.5095698,-1.1932099,0.84428704,-1.4404542,-1.4028107,6.30654
895,1747638646.1677651,2.3295565,-1.0172545,0.5001817,-1.4348038,-1.0369133,6.4360394
896,1747638646.1688426,2.3295565,-1.0172545,0.5001817,-1.4348038,-1.0369133,6.4360394
897,1747638646.1825087,2.553838,-0.8715753,0.4979864,-1.8429261,-0.85426986,5.942475
898,1747638646.1983774,2.4855108,-0.4408184,0.84014046,-2.1488843,-1.0979979,5.1960196
899,1747638646.1994212,2.4855108,-0.4408184,0.84014046,-2.1488843,-1.0979979,5.1960196
900,1747638646.2131958,2.8828206,-0.24876453,0.6182983,-1.8572811,-1.8963753,4.9986396
901,1747638646.2279482,2.8828206,-0.24876453,0.6182983,-1.8572811,-1.8963753,4.9986396
902,1747638646.22903,2.8828206,-0.24876453,0.6182983,-1.8572811,-1.8963753,4.9986396
903,1747638646.243359,3.713052,-0.14820987,0.45600224,-2.8111954,-1.1169342,4.6700034
904,1747638646.2592857,4.132101,0.049210187,1.2369624,-3.623088,-0.22815146,3.4360921
905,1747638646.2598326,4.132101,0.049210187,1.2369624,-3.623088,-0.22815146,3.4360921
906,1747638646.274494,4.3341556,0.17247957,1.9315151,-3.5657444,-0.60687673,2.235701
907,1747638646.29034,4.6043234,0.33791605,2.5606678,-2.5276859,-0.78280073,1.0353861
908,1747638646.291341,4.6043234,0.33791605,2.5606678,-2.5276859,-0.78280073,1.0353861
909,1747638646.3057,4.743173,0.2183359,2.5245376,-1.0952492,-0.13469182,-0.57488364
910,1747638646.3204968,4.63335,0.10826851,2.403494,-0.56373566,0.16408885,-1.3207282
911,1747638646.3215003,4.63335,0.10826851,2.403494,-0.56373566,0.16408885,-1.3207282
912,1747638646.3363914,4.235796,-0.21678093,2.1021044,0.005726693,0.7333985,-2.4825597
913,1747638646.3524075,3.6139915,-0.5010963,1.8995315,0.25686127,0.9221503,-2.965129
914,1747638646.3534098,3.6139915,-0.5010963,1.8995315,0.64131325,1.1958098,-3.401961
915,1747638646.36805,3.4834044,-0.62775004,1.7499497,0.97712654,1.3863943,-3.6756206
916,1747638646.3690503,3.4834044,-0.62775004,1.7499497,0.97712654,1.3863943,-3.6756206
917,1747638646.3831701,3.361385,-0.66436803,1.5456694,1.278656,1.4364837,-3.9352307
918,1747638646.3986092,3.3513844,-0.77638674,1.0629584,1.5702592,1.3894484,-4.6688585
919,1747638646.3995905,3.3513844,-0.77638674,1.0629584,1.5702592,1.3894484,-4.6688585
920,1747638646.414525,3.1241763,-0.9935945,0.57655805,1.392121,1.7412964,-5.468457
921,1747638646.4302099,2.9306588,-0.99139935,0.42770788,1.1995513,1.9532604,-5.6364403
922,1747638646.4312391,2.9306588,-0.99139935,0.42770788,1.1995513,1.9532604,-5.6364403
923,1747638646.4461083,2.4955115,-1.0575312,0.54875153,0.63444126,2.879992,-5.3444552
924,1747638646.4618618,2.5128295,-1.1021985,0.7208043,0.6979694,2.9416876,-5.194187
925,1747638646.4628706,2.5128295,-1.1021985,0.7208043,0.6979694,2.9416876,-5.194187
926,1747638646.476744,2.7300375,-1.2129976,1.1051865,1.2774343,2.451712,-5.422033
927,1747638646.4923756,2.7266223,-1.2276326,1.2213517,1.6637952,2.2238657,-5.6859956
928,1747638646.493469,2.6158233,-1.2954719,1.2952889,1.6637952,2.2238657,-5.6859956
929,1747638646.5077639,2.5123417,-1.3691653,1.2057105,3.2457368,1.8573575,-6.6535773
930,1747638646.5087974,2.5123417,-1.3691653,1.2057105,3.2457368,1.8573575,-6.6535773
931,1747638646.5236125,2.3866637,-1.4209061,1.0387801,3.7672477,1.7266362,-6.919296
932,1747638646.5384452,2.106495,-1.4038318,0.60049236,4.1542196,1.6368415,-7.1330924
933,1747638646.5388722,2.106495,-1.4038318,0.60049236,4.1542196,1.6368415,-7.1330924
934,1747638646.5538433,1.788763,-1.3191319,0.1651011,3.6931062,2.2098162,-6.8081217
935,1747638646.5690086,1.7436079,-1.298399,0.10482319,3.3324008,2.482865,-6.594325
936,1747638646.5705147,1.7436079,-1.298399,0.10482319,3.3324008,2.482865,-6.594325
937,1747638646.583693,1.6332966,-1.2036983,0.21635409,2.7329307,2.7162087,-6.288902
938,1747638646.5988522,1.6755246,-1.2100706,0.18315093,2.7285783,2.6923857,-6.203994
939,1747638646.5994337,1.6755246,-1.2100706,0.18315093,2.7285783,2.6923857,-6.203994
940,1747638646.6142795,1.7536085,-1.2635188,0.10287185,2.7130017,2.635577,-6.2779064
941,1747638646.6296744,1.7531207,-1.3247725,0.10482319,2.658178,2.2018752,-6.6841197
942,1747638646.6296744,1.7531207,-1.3247725,0.10482319,2.658178,2.2018752,-6.6841197
943,1747638646.6449215,1.5163995,-1.3498958,0.044057447,2.8195946,1.7107542,-7.031692
944,1747638646.6600914,1.4358765,-1.3352609,-0.031343292,2.8837335,1.4529766,-7.054904
945,1747638646.6606805,1.4358765,-1.3352609,-0.031343292,2.8837335,1.4529766,-7.054904
946,1747638646.6759439,1.340444,-1.3083994,-0.25903952,2.7236152,1.1426661,-6.8887534
947,1747638646.6914952,1.2474508,-1.2361697,-0.33471465,2.3142712,1.1249516,-6.588217
948,1747638646.6926477,1.1779041,-1.1775992,-0.33593425,2.0469491,1.2068051,-6.340213
949,1747638646.7067857,1.1779041,-1.1775992,-0.33593425,2.0469491,1.2068051,-6.340213
950,1747638646.7219625,1.1429935,-1.144152,-0.24245316,1.7584765,1.4187691,-5.8997917
951,1747638646.7235072,1.1429935,-1.144152,-0.24245316,1.7584765,1.4187691,-5.8997917
952,1747638646.7373683,1.0004852,-1.0755811,-0.24611193,1.866902,1.1738194,-5.618726
953,1747638646.738369,1.0004852,-1.0755811,-0.24611193,1.866902,1.1738194,-5.618726
954,1747638646.7525086,0.9363047,-1.0309138,-0.36959475,1.8637713,0.96246624,-5.5148816
955,1747638646.7676418,0.7447081,-1.0363104,-0.56826484,1.4656516,1.0211076,-5.3108587
956,1747638646.7686985,0.7447081,-1.0363104,-0.56826484,1.4656516,1.0211076,-5.3108587
957,1747638646.783678,0.43965977,-1.0689952,-0.4679541,1.2381874,1.3540193,-4.866162
958,1747638646.7995872,0.24492283,-1.0804594,-0.43133613,1.293011,1.2135245,-4.7274995
959,1747638646.8007169,0.24492283,-1.0804594,-0.43133613,1.293011,1.2135245,-4.7274995
960,1747638646.815274,-0.059912033,-1.0502137,-0.3942608,1.5042877,0.6515449,-4.509427
961,1747638646.8308961,-0.28638867,-1.043384,-0.5028647,1.6512729,0.36933354,-4.38176
962,1747638646.831928,-0.28638867,-1.043384,-0.5028647,1.6512729,0.36933354,-4.38176
963,1747638646.8460987,-0.46990547,-1.0575312,-0.7300731,1.6444771,0.3870481,-4.1429186
964,1747638646.8613126,-0.9362742,-1.1805261,-1.093204,1.1135745,0.9520818,-3.8118396
965,1747638646.862316,-0.9362742,-1.1805261,-1.093204,1.1135745,0.9520818,-3.8118396
966,1747638646.8767207,-1.8251065,-1.2876666,-1.125401,0.20577917,1.6001908,-3.4563265
967,1747638646.8919375,-2.1965306,-1.3325777,-0.93017626,-0.056579728,1.2226871,-3.378138
968,1747638646.8929787,-2.1965306,-1.3325777,-0.93017626,-0.056579728,1.2226871,-3.378138
969,1747638646.9078867,-2.7334216,-1.3789524,-0.5699723,0.3558949,-0.04123219,-2.949247
970,1747638646.9088874,-2.7334216,-1.3789524,-0.5699723,0.3558949,-0.04123219,-2.949247
971,1747638646.9235618,-3.1192672,-1.3442857,-0.8366952,1.2176477,-1.2287192,-1.7715334
972,1747638646.939403,-3.1617393,-1.3118143,-1.0958872,1.0780691,-1.2268867,-1.0910496
973,1747638646.939973,-3.1617393,-1.3118143,-1.0958872,1.0780691,-1.2268867,-1.0910496
974,1747638646.9547205,-3.1527143,-1.2559268,-1.2533048,0.61573404,-0.9746068,-0.30916506
975,1747638646.9697688,-2.7475994,-1.1866242,-1.0939357,-0.8267054,-0.05955761,1.4171656
976,1747638646.9707716,-2.7475994,-1.1866242,-1.0939357,-0.8267054,-0.05955761,1.4171656
977,1747638646.9850204,-2.5286841,-1.1654034,-0.8486776,-1.2061943,0.11392301,1.9357749
978,1747638647.0006132,-2.2082386,-1.1019546,-0.5162801,-1.1993222,-0.049784053,2.4184206
979,1747638647.0016139,-2.2082386,-1.1019546,-0.5162801,-1.1993222,-0.049784053,2.4184206
980,1747638647.0165224,-1.9456624,-0.99408233,-0.46649066,-0.77623415,-0.7082774,2.6627595
981,1747638647.0315278,-1.8704749,-0.9481956,-0.49039447,-0.69644225,-0.9239065,2.797757
982,1747638647.0325887,-1.8704749,-0.9481956,-0.49039447,-0.69644225,-0.9239065,2.797757
983,1747638647.0472069,-1.6891536,-0.85471445,-0.55359936,-0.76875126,-1.0815051,3.0799682
984,1747638647.0627863,-1.6081426,-0.81593174,-0.5333543,-0.95819026,-1.0527953,3.3017058
985,1747638647.0638628,-1.4849037,-0.7507755,-0.44283074,-1.1656493,-0.8029587,3.7030325
986,1747638647.0776548,-1.3738606,-0.75833696,-0.38621157,-1.2752963,-0.5714476,4.07626
987,1747638647.0787177,-1.3738606,-0.75833696,-0.38621157,-1.2752963,-0.5714476,4.07626
988,1747638647.0929089,-1.2664763,-0.7512633,-0.33349505,-1.3351594,-0.42973104,4.3822947
989,1747638647.1086528,-0.7425129,-0.7802894,-0.30712157,-1.5139849,-0.073607095,5.134935
990,1747638647.109653,-0.7425129,-0.7802894,-0.30712157,-1.5139849,-0.073607095,5.134935
991,1747638647.1237755,-0.5523798,-0.78541166,-0.2751685,-1.5968311,0.09804098,5.3523965
992,1747638647.1390698,-0.24367274,-0.74269575,-0.19827376,-1.694643,0.02107423,5.6077304
993,1747638647.1401362,-0.24367274,-0.74269575,-0.19827376,-1.694643,0.02107423,5.6077304
994,1747638647.1544046,0.066772185,-0.74172014,-0.2151345,-1.6940322,-0.22631891,5.822138
995,1747638647.1702003,0.20952442,-0.7646788,-0.25245374,-1.746336,-0.19883078,5.9559135
996,1747638647.1712337,0.20952442,-0.7646788,-0.25245374,-1.746336,-0.19883078,5.9559135
997,1747638647.1853056,0.39206555,-0.8198344,-0.31761,-2.0491636,0.042453885,6.158104
998,1747638647.2006936,0.6583311,-0.91304106,-0.34008083,-2.3289316,0.19096613,6.2155237
999,1747638647.201694,0.6583311,-0.91304106,-0.34008083,-2.3289316,0.19096613,6.2155237
