id,timestamp,acc_x,acc_y,acc_z,gyro_x,gyro_y,gyro_z
0,1747638652.4928393,-0.14531335,0.6459218,0.5699723,-0.14507623,-1.1438115,0.029320668
1,1747638652.514658,-0.14897211,0.6195483,0.45941702,-0.07773031,-1.5701829,0.25105822
2,1747638652.5146697,-0.14897211,0.6195483,0.45941702,-0.07773031,-1.5701829,0.25105822
3,1747638652.5293665,-0.17266251,0.51975596,0.19245026,-0.26655847,-2.1248322,0.57602894
4,1747638652.5445278,-0.053814117,0.27763817,0.03356903,-1.0148463,-2.7766826,1.199704
5,1747638652.5445468,-0.053814117,0.27763817,0.03356903,-1.0148463,-2.7766826,1.199704
6,1747638652.5596747,-0.053814117,0.27763817,0.03356903,-1.4448065,-2.3667276,1.267508
7,1747638652.5748038,-0.043539125,0.3606308,-0.4877114,-1.9040109,0.2917559,1.1887088
8,1747638652.5758133,-0.043539125,0.3606308,-0.4877114,-1.9040109,0.2917559,1.1887088
9,1747638652.589678,0.24150799,-0.12040337,0.07482144,-1.9912094,0.34917557,1.163664
10,1747638652.6051257,0.4018222,-0.2426666,0.14290467,-1.7787873,-2.064969,0.37139514
11,1747638652.6061258,0.4018222,-0.2426666,0.14290467,-1.7787873,-2.064969,0.37139514
12,1747638652.620912,0.27224147,-0.20507295,-0.1326297,-1.7445034,-2.794397,0.1227803
13,1747638652.6360059,-0.23391607,-0.061070636,-0.25708818,-2.508368,-3.347214,0.11667182
14,1747638652.6370645,-0.23391607,-0.061070636,-0.25708818,-2.508368,-3.347214,0.11667182
15,1747638652.6516278,-0.38203448,-0.11695804,-0.34032473,-3.0012453,-2.8652554,0.7751652
16,1747638652.6668553,-0.28590083,-0.21458568,-0.22928166,-3.1788492,-0.4303419,2.1593451
17,1747638652.667872,-0.28590083,-0.21458568,-0.22928166,-3.1788492,-0.4303419,2.1593451
18,1747638652.681725,-0.043783043,-0.60457796,0.090919934,-3.235505,-0.0503949,2.4935548
19,1747638652.6969469,0.37011307,-0.5777471,0.36816174,-2.912138,-0.43706122,2.0579443
20,1747638652.6979513,0.37011307,-0.5777471,0.36816174,-2.912138,-0.43706122,2.0579443
21,1747638652.7118468,0.37743056,-0.64583033,0.52408546,-2.5644896,-1.1193776,1.6871601
22,1747638652.7128499,0.37743056,-0.64583033,0.52408546,-2.5644896,-1.1193776,1.6871601
23,1747638652.7270021,0.19415767,-0.49426663,0.48408312,-2.040459,-3.2079408,1.3414205
24,1747638652.7427278,0.25687474,-0.63067704,0.34081256,-1.8784317,-4.047245,1.5472761
25,1747638652.7437022,0.25687474,-0.63067704,0.34081256,-2.0130472,-4.307466,1.867971
26,1747638652.7584944,0.41429248,-0.63851285,0.35691106,-2.1887422,-4.226834,2.1489606
27,1747638652.7737498,0.7957171,-0.71952367,0.5895161,-3.0529382,-3.4803786,2.4477413
28,1747638652.7748203,0.7957171,-0.71952367,0.5895161,-3.0529382,-3.4803786,2.4477413
29,1747638652.7893493,0.9602085,-0.7475741,0.8843199,-3.4959552,-3.2464242,2.4318593
30,1747638652.8048644,1.118358,-0.7485803,1.2740682,-3.70036,-3.090658,2.392765
31,1747638652.8058648,1.118358,-0.7485803,1.2740682,-3.70036,-3.090658,2.392765
32,1747638652.8209844,1.3238578,-0.67973477,1.7265031,-3.2293203,-2.7614114,2.2882338
33,1747638652.8364108,1.5427425,-0.34931916,1.8212038,-1.8236082,-1.8847692,2.0811565
34,1747638652.8374114,1.5427425,-0.34931916,1.8212038,-1.8236082,-1.8847692,2.0811565
35,1747638652.8520448,1.6274425,-0.11991554,1.7230884,-1.3214153,-1.9556274,1.9858644
36,1747638652.8530455,1.6274425,-0.11991554,1.7230884,-1.3214153,-1.9556274,1.9858644
37,1747638652.867641,1.9681331,0.22934265,1.4766105,-1.1238827,-2.3502347,1.8661383
38,1747638652.88298,2.3893468,0.5178046,1.4080395,-1.49963,-2.0350378,1.6920469
39,1747638652.8840737,2.712963,0.71693206,1.3882822,-1.49963,-2.0350378,1.6920469
40,1747638652.8984573,2.712963,0.71693206,1.3882822,-2.2772386,-0.3943019,1.2229162
41,1747638652.9131114,3.1502752,1.0005157,1.492709,-2.8124936,0.8574005,0.74523365
42,1747638652.914112,3.1502752,1.0005157,1.492709,-2.8124936,0.8574005,0.74523365
43,1747638652.9283552,3.4209313,1.339255,2.409348,-2.8622775,2.1175783,-0.73064965
44,1747638652.9436908,3.3801973,1.471031,2.6897607,-2.0809276,1.6398958,-1.5229186
45,1747638652.9447935,3.3801973,1.471031,2.6897607,-2.0809276,1.6398958,-1.5229186
46,1747638652.9590914,3.0546293,1.5681708,2.4181595,-0.10766183,0.29358846,-2.6267195
47,1747638652.9747248,2.9828875,1.5061854,1.8075445,0.8612183,0.041843038,-3.14174
48,1747638652.9758499,2.9828875,1.5061854,1.8075445,0.8612183,0.041843038,-3.14174
49,1747638652.9900088,3.0353296,1.3138876,1.5947273,0.7627955,0.09926268,-3.5791068
50,1747638653.005777,3.0063035,0.94170123,1.8609928,0.22379917,-0.111479625,-4.420854
51,1747638653.006838,3.0063035,0.94170123,1.8609928,0.22379917,-0.111479625,-4.420854
52,1747638653.0215604,3.0011814,0.72254217,2.2587903,0.054976255,-0.5158605,-4.9443502
53,1747638653.036955,3.0653617,0.52414644,2.4632838,0.41201648,-0.37292224,-5.666448
54,1747638653.0379539,3.016792,0.31157306,2.51722,0.41201648,-0.37292224,-5.666448
55,1747638653.0526345,2.6385381,-0.055216637,2.6868336,1.0382112,0.5147152,-6.0555577
56,1747638653.0536351,2.6385381,-0.055216637,2.6868336,1.0382112,0.5147152,-6.0555577
57,1747638653.0677297,2.371297,-0.16430837,2.904773,1.6687584,0.23677967,-6.079381
58,1747638653.0837114,2.3310204,-0.2734001,3.0089867,2.385893,-0.34360158,-6.0421195
59,1747638653.084714,2.3310204,-0.2734001,3.0089867,2.385893,-0.34360158,-6.0421195
60,1747638653.0984192,2.3834927,-0.5257624,2.7149146,3.6395807,-0.809678,-6.239423
61,1747638653.11384,2.034509,-0.5777471,2.137259,4.4943852,-0.3014531,-6.3664794
62,1747638653.1143894,2.034509,-0.5777471,2.137259,4.4943852,-0.3014531,-6.3664794
63,1747638653.1288736,2.034509,-0.5777471,2.137259,4.564862,-0.24525517,-6.2430882
64,1747638653.1446283,1.8861161,-0.5716187,1.7955925,4.5592113,-0.42728767,-6.1575694
65,1747638653.1451619,1.8744082,-0.5757653,1.6723231,4.5592113,-0.42728767,-6.1575694
66,1747638653.1593304,1.8390402,-0.5901869,1.4944165,4.4594903,-0.5909947,-6.175284
67,1747638653.1751485,1.8080323,-0.60823673,1.3411758,4.2794433,-0.6911737,-6.2687435
68,1747638653.1751485,1.8080323,-0.60823673,1.3411758,4.2794433,-0.6911737,-6.2687435
69,1747638653.1898718,1.9107822,-0.68071043,1.096375,3.9000306,-0.77608144,-6.559507
70,1747638653.2056732,1.6030204,-0.7307439,0.9626477,3.1317375,-0.25319618,-6.9895434
71,1747638653.2067113,1.6030204,-0.7307439,0.9626477,3.1317375,-0.25319618,-6.9895434
72,1747638653.22088,1.4392914,-0.7622396,1.0060953,2.9828436,0.03939965,-6.848438
73,1747638653.2360196,1.3248334,-0.86669695,1.0236572,2.9591732,-0.25380704,-6.6047096
74,1747638653.2360196,1.3248334,-0.86669695,1.0236572,2.9591732,-0.25380704,-6.6047096
75,1747638653.251794,1.2325718,-0.9054797,0.8850516,3.0201817,-0.6606313,-6.4648256
76,1747638653.2676625,1.1037229,-0.8491044,0.5833877,2.8644154,-0.5867188,-6.2644677
77,1747638653.2687442,1.1037229,-0.8491044,0.5833877,2.8644154,-0.5867188,-6.2644677
78,1747638653.2827704,1.0258526,-0.78785086,0.4603927,2.672533,-0.35765108,-6.1190863
79,1747638653.2838006,1.0258526,-0.78785086,0.4603927,2.672533,-0.35765108,-6.1190863
80,1747638653.2980828,0.82843244,-0.7129379,0.3942608,2.1634684,-0.016798299,-5.796559
81,1747638653.313992,0.7793747,-0.68339354,0.4735947,1.982123,-0.03268033,-5.5918484
82,1747638653.3150804,0.7793747,-0.68339354,0.4735947,1.982123,-0.03268033,-5.5918484
83,1747638653.3294945,0.7371467,-0.613359,0.6217131,2.0961988,-0.29106873,-5.0604115
84,1747638653.3446972,0.8974914,-0.61091983,0.56045955,2.4868355,-0.69850385,-4.606552
85,1747638653.345702,0.8974914,-0.61091983,0.56045955,2.4868355,-0.69850385,-4.606552
86,1747638653.3603287,0.9306945,-0.66802675,0.3664543,2.6644394,-0.813954,-4.4764414
87,1747638653.3755326,0.85379976,-0.6992786,0.20001167,2.6469538,-0.74248487,-4.25165
88,1747638653.3766072,0.75595874,-0.6816861,0.055277612,2.6469538,-0.74248487,-4.25165
89,1747638653.3909054,0.6485744,-0.6775395,-0.203396,2.3261063,-0.48592898,-3.9413393
90,1747638653.4065897,0.4750582,-0.6629045,-0.58289987,1.2313154,-0.07727218,-3.4453313
91,1747638653.4076483,0.4750582,-0.6629045,-0.58289987,1.2313154,-0.07727218,-3.4453313
92,1747638653.421755,0.28638867,-0.6463182,-0.63268936,0.5752654,0.098651834,-3.2217612
93,1747638653.4370682,-0.10235353,-0.64802563,-0.5033525,-0.2858765,0.30519456,-2.5460877
94,1747638653.4380665,-0.10235353,-0.64802563,-0.5033525,-0.2858765,0.30519456,-2.5460877
95,1747638653.4525135,-0.28346166,-0.7405005,-0.54579407,-0.53449136,0.6973585,-2.2553244
96,1747638653.453514,-0.28346166,-0.7405005,-0.54579407,-0.53449136,0.6973585,-2.2553244
97,1747638653.4685097,-0.61534077,-0.8386161,-0.53701305,-0.6622348,1.5690376,-2.1704166
98,1747638653.4838812,-0.856239,-0.9350241,-0.4923458,-0.535713,1.8048246,-2.117884
99,1747638653.4848816,-0.856239,-0.9350241,-0.4923458,-0.535713,1.8048246,-2.117884
100,1747638653.499448,-1.5097833,-1.033353,-0.53432995,0.2761793,1.0895225,-1.9138608
101,1747638653.5152128,-1.7040324,-1.0753372,-0.6932112,0.70423055,0.5690806,-1.7861937
102,1747638653.516246,-1.7040324,-1.0753372,-0.6932112,0.70423055,0.5690806,-1.7861937
103,1747638653.5299237,-2.174822,-1.1907707,-1.1681169,1.246892,-0.05283829,-1.3402753
104,1747638653.5451374,-2.5972552,-1.3149853,-1.5312784,1.0375241,0.09071082,-0.6512395
105,1747638653.546137,-2.5972552,-1.3149853,-1.5312784,1.0375241,0.09071082,-0.6512395
106,1747638653.5608952,-2.790041,-1.3225771,-1.6105818,0.7615738,0.17874917,-0.1692047
107,1747638653.576198,-2.8596182,-1.3103509,-1.6798847,-0.20425205,0.14820682,1.0848647
108,1747638653.576198,-2.8596182,-1.3103509,-1.6798847,-0.20425205,0.14820682,1.0848647
109,1747638653.5920541,-2.8108044,-1.2847396,-1.5698172,-0.5487699,0.096208446,1.5454435
110,1747638653.5932276,-2.628751,-1.2417798,-1.3911787,-0.5487699,0.096208446,1.5454435
111,1747638653.6068504,-2.628751,-1.2417798,-1.3911787,-0.907719,-0.051616594,2.1575124
112,1747638653.6215627,-2.1091473,-1.1493049,-1.0704893,-1.2223817,-0.35887277,2.9950604
113,1747638653.6376796,-1.4158143,-0.9926189,-0.77934426,-1.2416998,-0.26296973,3.7635064
114,1747638653.6387503,-1.4158143,-0.9926189,-0.77934426,-1.2416998,-0.26296973,3.7635064
115,1747638653.6533613,-1.1332064,-0.94356114,-0.7295853,-1.2759072,-0.07605048,3.9992933
116,1747638653.654361,-1.1332064,-0.94356114,-0.7295853,-1.2759072,-0.07605048,3.9992933
117,1747638653.668444,-0.6876011,-0.8988939,-0.67025256,-1.6211122,0.2722088,4.2057595
118,1747638653.6837273,-0.18559009,-0.859105,-0.4306044,-2.1937053,0.70835376,4.1037483
119,1747638653.6847293,-0.18559009,-0.859105,-0.4306044,-2.1937053,0.70835376,4.1037483
120,1747638653.6986594,-0.02695279,-0.8491044,-0.27272934,-2.373829,0.62955445,3.9681401
121,1747638653.7139723,0.08433419,-0.83788425,0.013781292,-2.4286523,0.41881216,3.8899517
122,1747638653.7150297,0.08433419,-0.83788425,0.013781292,-2.4012406,-0.31061584,3.9534798
123,1747638653.7287529,0.33569032,-0.8376403,0.09067602,-2.3370252,-0.95994645,4.0994725
124,1747638653.744044,0.5014012,-0.8491044,0.11262852,-2.3015199,-1.0851701,4.2369127
125,1747638653.7450771,0.5014012,-0.8491044,0.11262852,-2.3015199,-1.0851701,4.2369127
126,1747638653.7593806,0.7637641,-0.87108743,0.22952558,-2.3183944,-0.7009472,4.431773
127,1747638653.775279,1.018535,-0.7485803,0.44087937,-2.3302295,-0.2055501,4.53745
128,1747638653.7763486,1.018535,-0.7485803,0.44087937,-2.3302295,-0.2055501,4.53745
129,1747638653.7904813,1.0444207,-0.6814422,0.4177073,-2.337636,0.0827698,4.58082
130,1747638653.805886,1.094942,-0.6326284,0.37986973,-2.6112194,0.6558209,4.63885
131,1747638653.8069558,1.144701,-0.62335956,0.3620638,-2.6112194,0.6558209,4.63885
132,1747638653.820549,1.2679703,-0.68095434,0.38596764,-2.9233623,1.0278269,4.544169
133,1747638653.835698,1.238426,-0.71927977,0.47136897,-3.056069,0.98201334,4.3731318
134,1747638653.8367012,1.1103088,-0.7402566,0.66613644,-3.0268245,0.61000735,4.2509623
135,1747638653.8508863,1.0343896,-0.72854865,0.7818139,-2.8828936,0.23250374,4.2271395
136,1747638653.8661888,0.95508623,-0.56234986,0.79083884,-2.1601086,-0.47249034,4.5386715
137,1747638653.8673775,0.95508623,-0.56234986,0.79083884,-2.1601086,-0.47249034,4.5386715
138,1747638653.8815758,1.030243,-0.5338116,0.63829947,-2.0697796,-0.25502872,4.6852746
139,1747638653.8974075,1.3277603,-0.66680723,0.37596706,-2.2928152,0.43163994,4.7982817
140,1747638653.8984118,1.3277603,-0.66680723,0.37596706,-2.2928152,0.43163994,4.7982817
141,1747638653.9126782,1.1627812,-0.73806137,0.5397266,-3.2741413,0.2654895,4.5032425
142,1747638653.9136803,1.1627812,-0.73806137,0.5397266,-3.2741413,0.2654895,4.5032425
143,1747638653.9278505,1.0395424,-0.71318185,0.77498424,-3.6193464,-0.40957308,4.5857067
144,1747638653.9435983,1.0219499,-0.7485803,0.9787461,-3.6536303,-0.81884074,4.7304773
145,1747638653.9446728,1.094698,-0.76297134,1.030487,-3.531537,-1.1303729,4.9906983
146,1747638653.9588764,1.3267847,-0.81446826,0.9821609,-3.3259106,-0.85854584,5.2412224
147,1747638653.9746492,1.5349371,-0.8791367,0.89895487,-3.2847548,-0.37780902,5.3114696
148,1747638653.9746492,1.5349371,-0.8791367,0.89895487,-3.2847548,-0.37780902,5.3114696
149,1747638653.9895222,1.5852145,-0.79224133,0.961428,-3.497864,0.15736952,5.029182
150,1747638654.0043018,1.502984,-0.6314088,1.2018079,-3.7545726,-1.3960915,4.9937525
151,1747638654.0053022,1.502984,-0.6314088,1.2018079,-3.7545726,-1.3960915,4.9937525
152,1747638654.0194428,1.589361,-0.6368055,1.1515306,-3.8342884,-1.9861698,5.1880784
153,1747638654.0351331,1.9615474,-0.71903586,1.0500307,-4.2798247,-1.5805672,5.3841605
154,1747638654.0361335,1.9615474,-0.71903586,1.0500307,-4.2798247,-1.5805672,5.3841605
155,1747638654.0505457,2.1089342,-0.75858086,1.0910088,-4.624419,-0.8554916,5.21068
156,1747638654.06545,2.0835667,-0.67680776,1.6359795,-5.1733418,0.13843326,4.444601
157,1747638654.06645,2.0835667,-0.67680776,1.6359795,-5.1733418,0.13843326,4.444601
158,1747638654.080716,1.9432232,-0.4600878,2.0276792,-5.0132236,-0.23242739,4.2595143
159,1747638654.0960746,1.9698405,-0.19531627,2.403494,-4.033043,-1.0570712,4.040831
160,1747638654.0970778,1.9698405,-0.19531627,2.403494,-4.033043,-1.0570712,4.040831
161,1747638654.1117024,2.0779567,-0.025214886,2.3649552,-2.8567035,-1.4999354,3.7506785
162,1747638654.1267765,2.2704983,0.08924301,2.2099764,-2.0778732,-1.6905198,3.4159343
163,1747638654.1278336,2.2704983,0.08924301,2.2099764,-2.0778732,-1.6905198,3.4159343
164,1747638654.1419823,2.6565878,0.41749385,1.7050385,-2.1476626,-1.2910256,3.2119112
165,1747638654.143072,2.6565878,0.41749385,1.7050385,-2.1476626,-1.2910256,3.2119112
166,1747638654.157104,2.8862355,0.608816,1.7665361,-3.3333936,0.2654895,2.287012
167,1747638654.1728191,2.6267996,0.7279083,2.2099764,-3.8237512,0.45363045,1.7824523
168,1747638654.173819,2.6267996,0.7279083,2.2099764,-3.8237512,0.45363045,1.7824523
169,1747638654.187608,2.2951643,1.0585984,3.0865824,-3.8411603,0.33756948,1.6584504
170,1747638654.2029665,3.07024,1.396606,3.8807144,-1.6909015,0.5495335,1.611415
171,1747638654.2040093,3.07024,1.396606,3.8807144,-1.6909015,0.5495335,1.611415
172,1747638654.2181427,3.6505787,1.3941667,3.9456263,-0.37437302,0.7883747,0.8790092
173,1747638654.2340786,3.8443704,1.2365052,3.6146927,1.6774629,0.45057622,-1.1112075
174,1747638654.2351394,3.8443704,1.2365052,3.6146927,1.6774629,0.45057622,-1.1112075
175,1747638654.2489128,3.6120398,1.0068575,2.9516356,2.3690948,0.0076355906,-2.3390105
176,1747638654.2645636,3.3814168,0.85285467,2.4823399,2.3397741,0.055892523,-3.0275118
177,1747638654.265564,3.3814168,0.85285467,2.4823399,2.3397741,0.055892523,-3.0275118
178,1747638654.2797353,3.0358174,0.46728337,2.1321366,1.4481661,1.0369896,-3.7098281
179,1747638654.2946615,2.6926875,-0.034971554,2.370321,0.61886466,2.4236128,-4.101992
180,1747638654.2956917,2.6926875,-0.034971554,2.370321,0.61886466,2.4236128,-4.101992
181,1747638654.3100195,2.628019,-0.3031884,2.7197928,0.79020727,2.5579991,-4.238211
182,1747638654.324822,2.5635946,-0.5574716,3.0250852,1.7827578,2.102307,-4.5637927
183,1747638654.325822,2.5635946,-0.5574716,3.0250852,1.7827578,2.102307,-4.5637927
184,1747638654.3405354,2.4371848,-0.72367024,2.7759242,3.4183776,1.3705121,-4.933966
185,1747638654.3560476,2.2343683,-0.8027297,2.1596992,4.272571,1.0828031,-5.1037817
186,1747638654.35705,2.2343683,-0.8027297,2.1596992,4.272571,1.0828031,-5.1037817
187,1747638654.3707142,2.193878,-0.8027297,1.9483454,4.338008,0.92764795,-5.1050034
188,1747638654.386807,2.1609187,-0.8264202,1.7169905,4.149867,1.2330716,-5.177694
189,1747638654.387892,2.1609187,-0.8264202,1.7169905,4.149867,1.2330716,-5.177694
190,1747638654.4026732,2.1255507,-0.8230053,1.7067459,4.141163,1.4548091,-5.233281
191,1747638654.4040072,2.1255507,-0.8230053,1.7067459,4.141163,1.4548091,-5.233281
192,1747638654.4181068,2.001062,-0.7700449,1.6025326,4.2906675,1.475578,-5.2913117
193,1747638654.4341505,1.9613034,-0.76297134,1.3177294,4.3909993,1.1383902,-5.577799
194,1747638654.4352028,1.9613034,-0.76297134,1.3177294,4.3909993,1.1383902,-5.577799
195,1747638654.4499793,1.8770913,-0.7490681,1.1952221,4.328082,1.0840248,-5.706764
196,1747638654.4654963,1.7955925,-0.7507755,1.0761298,4.2183585,1.0510391,-5.8087754
197,1747638654.466499,1.7265337,-0.74172014,1.0180472,4.109322,1.0064472,-5.8784122
198,1747638654.4814675,1.6452485,-0.7641909,0.91237026,3.9143093,1.0119449,-5.9810348
199,1747638654.496887,1.4505115,-0.92941403,0.74104935,3.7709892,1.3949461,-6.044563
200,1747638654.4978917,1.4505115,-0.92941403,0.74104935,3.7709892,1.3949461,-6.044563
201,1747638654.512347,1.3526399,-0.9694163,0.6710147,3.7423558,1.4138824,-6.0366216
202,1747638654.513347,1.3526399,-0.9694163,0.6710147,3.7423558,1.4138824,-6.0366216
203,1747638654.526972,1.0190228,-0.94112194,0.5394827,3.5566583,0.8476269,-5.6859956
204,1747638654.5428014,1.0549091,-0.9467321,0.46478322,3.4557157,0.39437827,-5.4672356
205,1747638654.5438716,1.0549091,-0.9467321,0.46478322,3.4557157,0.39437827,-5.4672356
206,1747638654.557766,1.1261632,-0.91962683,0.2871204,3.1068456,-0.35887277,-5.389658
207,1747638654.5730636,1.1337247,-0.89035684,0.23245259,2.8980885,-0.44316968,-5.406151
208,1747638654.5740652,1.0556408,-0.80394936,0.22196417,2.4949293,-0.13469182,-5.404929
209,1747638654.5885127,0.9109068,-0.7541904,0.33861732,2.3360326,-0.026571855,-5.332238
210,1747638654.604511,0.8367256,-0.7224507,0.41231063,2.3460352,-0.18172707,-5.1721964
211,1747638654.6055112,0.81452924,-0.68046653,0.41035932,2.4233074,-0.39369106,-5.026815
212,1747638654.6196961,0.9621598,-0.64826953,0.26321658,2.470648,-0.65574455,-4.855167
213,1747638654.6345057,1.5913124,-0.6433912,-0.27590024,1.7067837,-0.33504972,-5.195409
214,1747638654.635563,1.5913124,-0.6433912,-0.27590024,1.7067837,-0.33504972,-5.195409
215,1747638654.6497242,1.6313452,-0.65119654,-0.36496034,0.9982771,0.09987353,-5.5655823
216,1747638654.6657972,1.2913862,-0.4745094,-0.10189619,-0.32512346,0.9416974,-6.028681
217,1747638654.666799,1.2913862,-0.4745094,-0.10189619,-0.32512346,0.9416974,-6.028681
218,1747638654.6813617,0.97557527,-0.41496322,0.22879384,-0.58366454,1.3100383,-5.952325
219,1747638654.696541,0.661502,-0.36712506,0.41990253,-0.2415901,1.5177264,-5.663394
220,1747638654.6975415,0.661502,-0.36712506,0.41990253,0.28984702,1.6276789,-5.3921013
221,1747638654.7112474,0.6185422,-0.45594123,0.12945877,1.0045383,1.7645086,-5.1324916
222,1747638654.726739,0.33203158,-0.7556538,-0.7996198,1.5198643,1.4621392,-5.045751
223,1747638654.7277822,0.33203158,-0.7556538,-0.7996198,1.5198643,1.4621392,-5.045751
224,1747638654.741919,0.030642033,-0.9796913,-1.0941796,1.1241881,1.2116919,-5.0836234
225,1747638654.7430913,0.030642033,-0.9796913,-1.0941796,1.1241881,1.2116919,-5.0836234
226,1747638654.7577643,-0.72638386,-1.1404933,-1.1105222,0.3690281,0.8848886,-4.802023
227,1747638654.7734408,-1.5785981,-1.3462372,-1.1000338,0.07986828,0.7608866,-4.1722393
228,1747638654.7744412,-1.5785981,-1.3462372,-1.1000338,0.021914145,0.9026032,-3.5882695
229,1747638654.788741,-1.8548644,-1.4099299,-1.0956433,0.021914145,0.9026032,-3.5882695
230,1747638654.8036716,-2.0593886,-1.4541093,-1.1022289,0.091092594,1.0925766,-2.5778518
231,1747638654.8046749,-2.0593886,-1.4541093,-1.1022289,0.091092594,1.0925766,-2.5778518
232,1747638654.818826,-2.4303246,-1.5963737,-1.1896122,0.2493784,1.0082798,-1.3799803
233,1747638654.834463,-2.4134946,-1.6014959,-1.2025397,0.1621036,0.59840125,-0.9206232
234,1747638654.835531,-2.300744,-1.6019837,-1.2352245,0.1621036,0.59840125,-0.9206232
235,1747638654.8491175,-2.2841575,-1.5983249,-1.198637,-0.13942589,-0.19883078,-0.45271417
236,1747638654.8644433,-2.3966339,-1.5302417,-0.69930905,-0.028557109,-0.66368556,0.3115321
237,1747638654.8654435,-2.3966339,-1.5302417,-0.69930905,-0.028557109,-0.66368556,0.3115321
238,1747638654.880355,-2.4056892,-1.494386,-0.6141212,0.30542362,-0.8133431,0.77333266
239,1747638654.8952005,-2.3202572,-1.4384986,-0.59338826,0.87305343,-0.9232956,1.5625473
240,1747638654.8962386,-2.3202572,-1.4384986,-0.59338826,0.87305343,-0.9232956,1.5625473
241,1747638654.9106257,-2.1682363,-1.3335534,-0.8076691,1.0350807,-0.96788746,2.1165857
242,1747638654.9258404,-1.9793229,-1.2764465,-0.97728264,0.8144885,-0.8884773,2.5069935
243,1747638654.9269412,-1.9793229,-1.2764465,-0.97728264,0.34719032,-0.72477025,2.86495
244,1747638654.940472,-1.7777562,-1.1368346,-0.91554123,-0.13759334,-0.4614951,3.2754393
245,1747638654.955774,-1.4329189,-1.0697271,-0.6187861,-0.71140796,-0.25014195,4.092142
246,1747638654.9567754,-1.4329189,-1.0697271,-0.6187861,-0.71140796,-0.25014195,4.092142
247,1747638654.9711766,-1.3182172,-1.0592387,-0.5594838,-0.7675296,-0.2403684,4.2711205
248,1747638654.986624,-0.7232129,-0.93063354,-0.46088055,-0.7905891,-0.4150707,4.9674864
249,1747638654.987726,-0.7232129,-0.93063354,-0.46088055,-0.7905891,-0.4150707,4.9674864
250,1747638655.0019581,-0.45356306,-0.8527632,-0.5321347,-0.98804545,-0.42545512,5.1893
251,1747638655.0029578,-0.26343,-0.80593115,-0.5892417,-1.1980242,-0.33810395,5.3108587
252,1747638655.0177646,-0.0682052,-0.7732159,-0.6053402,-1.5887374,-0.17500775,5.5020537
253,1747638655.033243,0.14046551,-0.78224075,-0.5904613,-2.0828364,-0.0015271181,5.6840863
254,1747638655.0342464,0.14046551,-0.78224075,-0.5904613,-2.0828364,-0.0015271181,5.6840863
255,1747638655.049165,0.5597278,-0.8608124,-0.37837574,-3.0654607,0.37727454,5.9998946
256,1747638655.064667,0.7927902,-0.9252674,-0.17632127,-3.525276,0.383383,6.098241
257,1747638655.065671,0.7927902,-0.9252674,-0.17632127,-3.525276,0.383383,6.098241
258,1747638655.0803962,1.1178701,-0.98286223,0.082626775,-3.8517737,0.070552856,6.062201
259,1747638655.0956445,1.2716291,-0.976246,0.4306349,-3.7041013,-0.34054735,5.6511006
260,1747638655.09665,1.2716291,-0.976246,0.4306349,-3.7041013,-0.34054735,5.6511006
261,1747638655.1111937,1.2533048,-0.9581961,0.5028647,-3.4841201,-0.4407263,5.478842
262,1747638655.1263623,1.2657751,-0.9477077,0.6053707,-3.0130804,-0.55800897,5.3438444
263,1747638655.1273618,1.2657751,-0.9477077,0.6053707,-3.0130804,-0.55800897,5.3438444
264,1747638655.142108,1.295045,-0.91499245,0.60293156,-2.5501347,-0.93612343,5.1593685
265,1747638655.1431837,1.3321509,-0.8940156,0.49652287,-2.5501347,-0.93612343,5.1593685
266,1747638655.1573188,1.3572743,-0.89108855,0.42453694,-2.5302057,-1.0986089,5.0756826
267,1747638655.1726959,1.4312116,-0.9318531,0.35325232,-2.580677,-1.1719105,4.956491
268,1747638655.1736972,1.4312116,-0.9318531,0.35325232,-2.6522987,-1.2568183,4.7707934
269,1747638655.1879756,1.1625373,-0.9562448,0.5904918,-2.6155715,-1.7064018,4.556386
270,1747638655.2040184,0.93874377,-0.81617564,0.74056154,-2.0423677,-2.4998925,4.6620626
271,1747638655.2057157,0.93874377,-0.81617564,0.74056154,-2.0423677,-2.4998925,4.6620626
272,1747638655.2195222,0.96630645,-0.7436715,0.62317663,-1.7058673,-2.651459,4.899682
273,1747638655.234904,1.3245895,-0.69122934,0.3091034,-1.5924788,-2.0588608,5.2674885
274,1747638655.2349157,1.3245895,-0.69122934,0.3091034,-1.5924788,-2.0588608,5.2674885
275,1747638655.2501793,1.4675856,-0.75248295,0.1841266,-1.7949747,-1.677692,5.236946
276,1747638655.265495,1.4427061,-0.7883387,0.22635466,-2.2529573,-1.557355,5.074461
277,1747638655.2664952,1.3946241,-0.82471275,0.3561793,-2.547004,-1.8200194,5.007191
278,1747638655.2807367,1.3719094,-0.8552023,0.5262807,-2.768207,-2.2928152,4.988255
279,1747638655.2963169,1.4639269,-0.85642195,0.9338655,-2.877854,-3.374702,5.4256983
280,1747638655.2963169,1.4639269,-0.85642195,0.9338655,-2.877854,-3.374702,5.4256983
281,1747638655.3115263,1.6454923,-0.85690975,1.0412192,-2.6597817,-2.9929225,5.7024117
282,1747638655.326887,1.9966713,-0.859105,1.1361638,-2.11147,-1.8682764,5.7470036
283,1747638655.3274975,1.9966713,-0.859105,1.1361638,-2.11147,-1.8682764,5.7470036
284,1747638655.3426914,2.1567721,-0.81276083,1.2325718,-1.4990191,-2.2628837,5.2595477
285,1747638655.342752,2.1567721,-0.81276083,1.2325718,-1.4990191,-2.2628837,5.2595477
286,1747638655.3574011,2.1743343,-0.7563856,1.2088815,-1.3625711,-2.7717957,5.1874676
287,1747638655.372586,2.3927615,-0.49499843,1.1669278,-1.3263785,-3.0943232,5.2277837
288,1747638655.3731816,2.3927615,-0.49499843,1.1669278,-1.3263785,-3.0943232,5.2277837
289,1747638655.3877819,2.611189,-0.42032942,1.1661961,-1.2946144,-2.453468,5.40554
290,1747638655.403876,2.850837,-0.43959883,1.1064061,-1.3027081,-1.6300459,5.2204533
291,1747638655.4049826,2.850837,-0.43959883,1.1064061,-1.3027081,-1.6300459,5.2204533
292,1747638655.4197824,2.8691611,-0.21800053,1.2857763,-1.4173948,-0.6991147,4.7097087
293,1747638655.4349017,3.0963695,0.29132798,1.3577621,-1.3407334,-1.0711206,3.9944067
294,1747638655.4355776,3.0963695,0.29132798,1.3577621,-1.3407334,-1.0711206,3.9944067
295,1747638655.4503846,3.1949425,0.42310396,1.330413,-1.3986875,-1.0912787,3.5936909
296,1747638655.4655893,3.3059857,0.7550136,1.3250468,-1.7021259,-0.9513946,2.9981146
297,1747638655.4666579,3.3059857,0.7550136,1.3250468,-1.7021259,-0.9513946,2.9981146
298,1747638655.4815881,3.390198,0.9431648,1.2974843,-2.2186737,-0.20738265,2.513102
299,1747638655.4963534,3.4507198,1.0329871,1.4426757,-2.710253,0.37788537,2.2491395
300,1747638655.4973555,3.5710316,1.1000947,1.7218688,-3.1352499,0.8146412,2.007855
301,1747638655.5116632,3.672318,1.1723244,2.00716,-3.3265214,1.047374,1.7745113
302,1747638655.5270774,4.0395956,1.3363279,3.0284998,-2.5937338,1.147553,0.53693473
303,1747638655.528113,4.0395956,1.3363279,3.0284998,-2.5937338,1.147553,0.53693473
304,1747638655.5422666,4.1540537,1.2711717,3.2213159,-1.7881026,0.9679638,-0.1771457
305,1747638655.543411,4.1540537,1.2711717,3.2213159,-1.7881026,0.9679638,-0.1771457
306,1747638655.5574865,4.3504977,0.90044886,3.2132363,-0.09704836,1.1243408,-1.8008541
307,1747638655.5727596,4.2106724,0.4941142,3.164209,2.5148582,0.9398649,-4.2345457
308,1747638655.5737596,3.887544,0.18321191,2.9909368,2.5148582,0.9398649,-4.2345457
309,1747638655.5880845,3.887544,0.18321191,2.9909368,2.5148582,0.9398649,-4.2345457
310,1747638655.6035445,3.076582,-0.2633995,1.8043735,4.233324,0.51288265,-5.3468986
311,1747638655.6046178,3.076582,-0.2633995,1.8043735,4.233324,0.51288265,-5.3468986
312,1747638655.618762,2.9794421,-0.31855518,1.3687384,4.296929,0.47073418,-5.6811085
313,1747638655.633906,2.9984982,-0.32928753,1.2691594,3.9909706,0.36078167,-5.84054
314,1747638655.6349952,2.9984982,-0.32928753,1.2691594,3.9909706,0.36078167,-5.84054
315,1747638655.6494246,2.9782226,-0.279498,1.0580801,3.3024693,0.34795386,-6.1636777
316,1747638655.6645932,2.7371109,-0.17946169,0.7791308,2.1155167,2.0393898,-6.246753
317,1747638655.6655939,2.7371109,-0.17946169,0.7791308,2.1155167,2.0393898,-6.246753
318,1747638655.6807156,2.6099694,-0.23117203,0.93191415,1.689909,2.7094893,-6.1758947
319,1747638655.6964324,2.574571,-0.40520656,1.2125403,1.6849458,2.6936073,-6.2290387
320,1747638655.6974325,2.574571,-0.40520656,1.2125403,1.6849458,2.6936073,-6.2290387
321,1747638655.7116067,2.563351,-0.55576414,1.2430604,2.0899374,2.1029181,-6.619981
322,1747638655.7267969,2.4759982,-0.60726106,1.2230592,2.412694,1.8103222,-6.9327345
323,1747638655.7278824,2.2585464,-0.6926929,1.1459205,2.731709,1.5610965,-7.163024
324,1747638655.7415516,2.0777128,-0.6909549,1.0512503,2.9248893,1.3436348,-7.238158
325,1747638655.7569344,1.8109595,-0.6563188,0.6343968,2.9342048,0.7505022,-6.9925976
326,1747638655.7579386,1.8109595,-0.6563188,0.6343968,2.9342048,0.7505022,-6.9925976
327,1747638655.7729447,1.8497725,-0.6709538,0.42648828,2.6127465,0.92642623,-6.8459945
328,1747638655.7739446,1.8497725,-0.6709538,0.42648828,2.6127465,0.92642623,-6.8459945
329,1747638655.7883556,1.794129,-0.69659555,0.4032857,1.6550143,1.6539453,-6.7122188
330,1747638655.8036342,1.6994286,-0.7002543,0.5307017,1.4070866,1.6606647,-6.3976326
331,1747638655.8046348,1.6574442,-0.79150957,0.7666911,1.4070866,1.6606647,-6.3976326
332,1747638655.8192685,1.6625665,-0.86694086,0.86550784,1.5958384,1.4120498,-6.3298283
333,1747638655.83426,1.6059474,-0.91621196,0.8879787,2.0270202,0.76149744,-6.340213
334,1747638655.8350904,1.6059474,-0.91621196,0.8879787,2.303047,0.367501,-6.3481536
335,1747638655.8499424,1.6432971,-0.90645534,0.48871753,2.5603664,0.14515258,-6.29501
336,1747638655.8650355,1.7050385,-0.901577,0.20074342,2.478131,0.43163994,-6.2253733
337,1747638655.8660412,1.7050385,-0.901577,0.20074342,2.478131,0.43163994,-6.2253733
338,1747638655.8804646,1.815106,-0.8818197,-0.11360419,1.6133239,1.2666682,-6.0812135
339,1747638655.895574,1.6786956,-0.92331606,0.026007613,0.608862,1.827426,-6.050671
340,1747638655.8965764,1.6786956,-0.92331606,0.026007613,0.608862,1.827426,-6.050671
341,1747638655.910856,1.5830191,-0.94965905,0.22586684,0.5334987,1.8707961,-6.0207396
342,1747638655.9258387,1.4849037,-0.98920405,0.35544756,1.0599728,1.5989691,-5.8814664
343,1747638655.9269254,1.3392245,-1.0382618,0.41819513,1.0599728,1.5989691,-5.8814664
344,1747638655.9411185,1.2001005,-1.0470427,0.38791898,1.3684505,1.3699013,-5.76846
345,1747638655.9559286,0.5375314,-0.8984061,-0.11604336,1.8120784,0.8812235,-4.7757564
346,1747638655.957008,0.5375314,-0.8984061,-0.11604336,1.8120784,0.8812235,-4.7757564
347,1747638655.9717195,0.3471544,-0.80593115,-0.48795533,1.4107517,1.1671001,-3.9352307
348,1747638655.9866958,0.24199583,-0.82812756,-0.7298292,0.123467505,2.3099952,-2.6334388
349,1747638655.9879036,0.24199583,-0.82812756,-0.7298292,0.123467505,2.3099952,-2.6334388
350,1747638656.0026903,0.22245201,-0.85178757,-0.7063827,-0.7046123,3.0076592,-2.1899638
351,1747638656.0038295,0.12534268,-0.9355119,-0.5758263,-0.7046123,3.0076592,-2.1899638
352,1747638656.0180638,-0.16433886,-1.0060343,-0.3556915,-0.7046123,3.0076592,-2.1899638
353,1747638656.0328875,-0.47088113,-0.96502584,-0.18559009,-0.2746522,2.614808,-2.2095108
354,1747638656.0338879,-0.6543979,-0.9511226,-0.20071293,0.20135053,2.2922807,-2.3457298
355,1747638656.048223,-1.1363772,-0.9208769,-0.3530084,1.2556729,1.7064781,-2.6603162
356,1747638656.0639553,-1.4658477,-0.9216086,-0.5838755,1.8930156,1.2068051,-2.7818747
357,1747638656.0649564,-1.4658477,-0.9216086,-0.5838755,1.8930156,1.2068051,-2.7818747
358,1747638656.079275,-2.0025253,-1.0367984,-1.1888804,2.4488103,0.43530503,-2.720179
359,1747638656.0949223,-2.5855472,-1.046311,-1.5727443,1.6942612,-0.37597647,-1.6542507
360,1747638656.0959556,-2.5855472,-1.046311,-1.5727443,1.6942612,-0.37597647,-1.6542507
361,1747638656.1103377,-2.6797295,-0.97453856,-1.5210034,1.3266839,-0.44683477,-0.9481113
362,1747638656.1255093,-2.577498,-0.983594,-1.3343157,1.1110548,-0.42484426,-0.44294062
363,1747638656.12651,-2.577498,-0.983594,-1.3343157,0.922303,-0.36681378,0.1007898
364,1747638656.1407971,-2.5245376,-0.938195,-1.1930269,0.909857,-0.34909922,0.6035171
365,1747638656.1561494,-2.504262,-0.8901129,-1.1393347,0.99270314,-0.45294324,0.8893936
366,1747638656.1571531,-2.504262,-0.8901129,-1.1393347,0.99270314,-0.45294324,0.8893936
367,1747638656.1708887,-2.3190377,-0.8657212,-1.1781175,1.039433,-0.865876,1.3041589
368,1747638656.1863928,-1.8043432,-0.7537025,-1.3806903,0.31977853,-0.91291124,1.8783553
369,1747638656.1874259,-1.8043432,-0.7537025,-1.3806903,0.31977853,-0.91291124,1.8783553
370,1747638656.2015548,-1.6081426,-0.7222068,-1.3762999,-0.3245126,-0.6221479,2.0964277
371,1747638656.2171266,-1.3914226,-0.68046653,-1.050976,-1.4416759,-0.008857286,2.3921542
372,1747638656.2182052,-1.3914226,-0.68046653,-1.050976,-1.4416759,-0.008857286,2.3921542
373,1747638656.232185,-1.344804,-0.68241787,-0.73129267,-1.8049009,0.14698513,2.5149345
374,1747638656.233185,-1.344804,-0.68241787,-0.73129267,-1.7594692,0.06566608,2.6096158
375,1747638656.2480927,-1.230834,-0.6697342,-0.28004685,-1.7594692,0.06566608,2.6096158
376,1747638656.2634933,-1.1515306,-0.6811983,-0.27711985,-1.2061943,-0.23609246,2.861285
377,1747638656.264556,-1.1515306,-0.6811983,-0.27711985,-1.0479084,-0.3246653,3.036598
378,1747638656.2792642,-0.81791353,-0.71976763,-0.46283188,-1.0934166,-0.317946,3.2558923
379,1747638656.2941673,-0.69833344,-0.7441593,-0.5070113,-1.3444748,-0.24525517,3.4214318
380,1747638656.2955692,-0.69833344,-0.7441593,-0.5070113,-1.3444748,-0.24525517,3.4214318
381,1747638656.3100042,-0.4120667,-0.8054128,-0.4015783,-1.8709488,-0.030236939,3.81665
382,1747638656.3249793,0.04600878,-0.84007955,-0.17802867,-2.3700874,-0.30389652,4.257682
383,1747638656.3249793,0.04600878,-0.84007955,-0.17802867,-2.3700874,-0.30389652,4.257682
384,1747638656.3403153,0.23858099,-0.8395917,-0.041099958,-2.4710298,-0.42301172,4.327929
385,1747638656.356038,0.45161173,-0.8386161,0.24147749,-2.339545,-0.57205844,4.380462
386,1747638656.356038,0.45161173,-0.8386161,0.24147749,-2.339545,-0.57205844,4.380462
387,1747638656.3714821,0.6314698,-0.86401385,0.29736492,-1.9962488,-0.50242186,4.500799
388,1747638656.386814,0.91773653,-0.94112194,0.22415942,-1.8367413,-0.3423799,4.6663384
389,1747638656.387996,0.91773653,-0.94112194,0.22415942,-1.8367413,-0.3423799,4.6663384
390,1747638656.40251,1.1571711,-1.0072539,0.15583226,-1.9557039,-0.2678565,4.721315
391,1747638656.4038265,1.1571711,-1.0072539,0.15583226,-1.9557039,-0.2678565,4.721315
392,1747638656.418046,1.535181,-1.1629642,0.37986973,-2.8031018,-0.095597595,4.8056116
393,1747638656.4337215,1.6313452,-1.1878437,0.6378116,-3.0461426,0.044286426,4.775069
394,1747638656.4347818,1.6313452,-1.1878437,0.6378116,-3.0461426,0.044286426,4.775069
395,1747638656.4492908,1.569116,-1.2125098,1.1529942,-2.6435943,0.52815384,4.3572497
396,1747638656.4644284,1.1395786,-1.1175652,1.3565426,-1.3195828,0.53914905,4.0988617
397,1747638656.4654303,1.1395786,-1.1175652,1.3565426,-1.3195828,0.53914905,4.0988617
398,1747638656.4792604,0.9109068,-1.100735,1.046372,-0.42354622,-0.29412296,4.079314
399,1747638656.495255,0.75644654,-1.0184741,0.75153774,-0.23479441,-0.9642224,4.197208
400,1747638656.496348,0.6866255,-0.970148,0.5431415,-0.2702999,-1.25804,4.380462
401,1747638656.5104575,0.6715026,-0.95209825,0.34861788,-0.4597389,-1.2873605,4.625412
402,1747638656.5260236,0.46456978,-0.9994486,0.10457927,-1.5233004,0.27831727,5.6572094
403,1747638656.5271218,0.46456978,-0.9994486,0.10457927,-1.5233004,0.27831727,5.6572094
404,1747638656.5411615,0.33764166,-1.1048815,0.2563869,-1.9164569,0.54342496,5.9913425
405,1747638656.5563393,0.35255107,-1.2029666,0.231233,-2.4915695,-0.55800897,7.0584927
406,1747638656.5573409,0.35255107,-1.2029666,0.231233,-2.4915695,-0.55800897,7.0584927
407,1747638656.57151,0.5131092,-1.17516,0.17168686,-2.8772433,-0.845718,7.681557
408,1747638656.586842,0.8872469,-1.1314684,0.187328,-3.2392466,-0.7229377,8.344402
409,1747638656.5880053,0.8872469,-1.1314684,0.187328,-3.2392466,-0.7229377,8.344402
410,1747638656.6029236,1.571799,-1.1739404,0.11457986,-3.8068764,0.15309359,9.136061
411,1747638656.6040223,2.122624,-1.3691653,0.018446198,-4.137727,0.5452575,9.112848
412,1747638656.6181798,3.04097,-1.7540352,0.2148906,-5.340943,0.12125318,7.891154
413,1747638656.6338565,3.1695752,-1.4926785,1.3995024,-6.0312767,-1.361884,6.6828218
414,1747638656.634854,3.1695752,-1.4926785,1.3995024,-6.0612082,-2.5696054,5.957135
415,1747638656.649393,3.0668254,-1.2608054,1.8846526,-5.5347342,-3.695397,5.5356507
416,1747638656.664824,3.23839,-0.8266641,2.0623155,-4.0960364,-2.3245792,6.137946
417,1747638656.6658185,3.23839,-0.8266641,2.0623155,-4.0960364,-2.3245792,6.137946
418,1747638656.6806922,3.3128152,-0.6240913,2.1980245,-3.8149703,-1.3386718,6.2112474
419,1747638656.6961823,4.0649624,-0.4920714,2.2502532,-3.4261658,-0.55373305,5.7628856
420,1747638656.6971858,4.0649624,-0.4920714,2.2502532,-3.4261658,-0.55373305,5.7628856
421,1747638656.711932,5.0065117,0.2795895,2.5045364,-3.5607815,-1.6831896,4.436049
422,1747638656.7129343,5.0065117,0.2795895,2.5045364,-3.67417,-1.8713306,3.360347
423,1747638656.7267573,4.903274,0.5643927,2.8757472,-3.7932088,-1.2110047,2.4874463
424,1747638656.742847,4.5559974,1.2291876,4.1764936,-2.8847263,0.39804333,2.0561118
425,1747638656.7439592,4.5559974,1.2291876,4.1764936,-2.8847263,0.39804333,2.0561118
426,1747638656.7586184,5.227134,1.2467495,4.629447,-1.7625997,0.81708455,1.6737214
427,1747638656.7735627,6.010015,1.5632924,5.0558133,-0.19180603,0.7376744,0.19974706
428,1747638656.7746756,6.010015,1.5632924,5.0558133,-0.19180603,0.7376744,0.19974706
429,1747638656.7896223,5.9985514,1.6306438,4.9557467,3.5691805,1.01561,-4.074504
430,1747638656.8047493,5.6490793,1.0600618,3.4467864,4.126197,1.3051516,-5.3517857
431,1747638656.8057497,5.6490793,1.0600618,3.4467864,4.126197,1.3051516,-5.3517857
432,1747638656.81988,5.240306,0.6598251,2.9919124,4.2196565,1.4187691,-6.406795
433,1747638656.8358893,4.4927926,0.081681594,2.4274282,3.8620055,2.2544081,-7.3737664
434,1747638656.8368902,4.4927926,0.081681594,2.4274282,3.8620055,2.2544081,-7.3737664
435,1747638656.8519962,4.2419243,-0.5101212,2.3720286,3.5305445,2.598926,-7.66453
436,1747638656.8530312,4.2419243,-0.5101212,2.3720286,3.5305445,2.598926,-7.66453
437,1747638656.866951,4.10963,-0.73196346,2.4293795,3.4395282,2.6258032,-7.858779
438,1747638656.8817732,3.8375409,-1.1231753,2.6970782,3.7137222,2.3325965,-8.373799
439,1747638656.882816,3.6701229,-1.1836971,2.761777,4.4533057,1.9502063,-8.684721
440,1747638656.8977106,3.6056676,-1.2818125,2.4869745,5.134324,1.799327,-8.963878
441,1747638656.9127693,3.461208,-1.3752631,2.091372,5.5735993,1.6362307,-9.225321
442,1747638656.9137733,3.461208,-1.3752631,2.091372,5.5735993,1.6362307,-9.225321
443,1747638656.9278238,2.7949495,-1.3960266,1.4766105,5.5673385,1.1096804,-9.431176
444,1747638656.9434235,1.9793534,-1.3328216,1.0090222,4.8539453,0.6717029,-8.761077
445,1747638656.9444373,1.9793534,-1.3328216,1.0090222,4.8539453,0.6717029,-8.761077
446,1747638656.9591749,1.7753171,-1.3625795,0.8635565,4.481328,0.7761578,-8.364026
447,1747638656.9744432,1.5044475,-1.3650187,0.6485744,4.089393,0.88427776,-7.7891426
448,1747638656.9755287,1.5044475,-1.3650187,0.6485744,4.089393,0.88427776,-7.7891426
449,1747638656.990342,1.2930938,-1.3572134,0.48237568,3.8744514,0.76149744,-7.5105963
450,1747638657.0056586,1.1234802,-1.3245285,0.41011536,3.8084035,0.43286163,-7.3475
451,1747638657.0067704,1.1234802,-1.3245285,0.41011536,3.754191,0.0009162709,-7.1453094
452,1747638657.0215392,1.2196443,-1.3191319,-0.002561125,3.5828483,-0.27091077,-7.035968
453,1747638657.03683,1.4388034,-1.3620917,-0.248795,1.7989452,-0.82006246,-6.952282
454,1747638657.0378318,1.4388034,-1.3620917,-0.248795,1.7989452,-0.82006246,-6.952282
455,1747638657.0521438,1.4390473,-1.4162717,-0.08040103,1.0319501,-0.5867188,-6.876537
456,1747638657.0531228,1.4390473,-1.4162717,-0.08040103,1.0319501,-0.5867188,-6.876537
457,1747638657.068127,0.8318473,-1.1451279,0.32398233,0.22441001,0.791429,-5.706764
458,1747638657.083934,0.6983639,-0.9145046,0.4220978,0.4045336,1.7180842,-4.2290483
459,1747638657.085008,0.6983639,-0.9145046,0.4220978,0.4045336,1.7180842,-4.2290483
460,1747638657.0996342,0.8103826,-0.91621196,0.30129808,0.48615807,1.8927866,-3.5998757
461,1747638657.1149647,1.154732,-1.0380179,-0.007683375,0.26495498,1.7981052,-3.1136413
462,1747638657.116054,1.154732,-1.0380179,-0.007683375,0.26495498,1.7981052,-3.1136413
463,1747638657.1298146,1.204491,-1.2288522,0.027958948,0.011987877,1.4810755,-3.0721035
464,1747638657.1455107,0.44039157,-1.1197605,0.5755824,0.96277165,0.5611396,-2.8826647
465,1747638657.1465144,0.44039157,-1.1197605,0.5755824,0.96277165,0.5611396,-2.8826647
466,1747638657.1607475,-0.0755227,-0.71586496,0.47408253,1.710525,0.38765895,-2.2968621
467,1747638657.175814,-0.248795,-0.9445368,-0.8213284,3.0812664,0.9606337,-0.43011284
468,1747638657.1768146,-0.248795,-0.9445368,-0.8213284,3.0812664,0.9606337,-0.43011284
469,1747638657.1912987,-0.2822421,-1.0909477,-1.4131312,2.7766063,1.1695434,-0.17164809
470,1747638657.2065048,-0.5350617,-1.1448839,-1.6398518,1.2986612,0.62283516,-0.21013145
471,1747638657.2075648,-0.5350617,-1.1448839,-1.6398518,1.2986612,0.62283516,-0.21013145
472,1747638657.2215066,-0.9592023,-1.0951248,-1.4253576,0.84999394,0.0387888,-0.4850891
473,1747638657.2372007,-1.1632386,-1.0519211,-1.4290164,0.90733725,-0.31061584,-0.4569901
474,1747638657.2382004,-1.1632386,-1.0519211,-1.4290164,0.90733725,-0.31061584,-0.4569901
475,1747638657.251839,-1.8494982,-1.0948809,-1.3065091,1.2637666,-1.2189457,-0.20585553
476,1747638657.252839,-1.8494982,-1.0948809,-1.3065091,1.2637666,-1.2189457,-0.20585553
477,1747638657.2675083,-2.47426,-0.81349254,-1.5832325,1.8781263,-2.364895,0.098957255
478,1747638657.2828448,-2.7819915,-0.7300121,-1.8531569,1.5927079,-2.1358275,0.1563769
479,1747638657.283938,-2.7819915,-0.7300121,-1.8531569,1.5927079,-2.1358275,0.1563769
480,1747638657.2986388,-3.0023704,-0.7409883,-1.8123924,0.08047912,-1.565907,0.54487574
481,1747638657.3137987,-2.980174,-0.71879196,-1.6193627,-0.8279271,-1.1126583,0.9535326
482,1747638657.3148272,-2.980174,-0.71879196,-1.6193627,-0.8279271,-1.1126583,0.9535326
483,1747638657.3287446,-2.790041,-0.7666301,-0.7093097,-1.8180342,-0.06261184,1.9369967
484,1747638657.3439138,-2.4488623,-0.8422747,-0.44575772,-1.8622442,0.15370443,2.384824
485,1747638657.3452296,-2.098903,-0.8222736,-0.31273165,-1.8466676,0.375442,2.565024
486,1747638657.3593976,-1.8153193,-0.8720631,-0.26245433,-1.7930658,0.70041275,2.6590946
487,1747638657.374699,-0.9465186,-1.3787085,-0.09869478,-2.0448112,1.2287956,2.2833471
488,1747638657.375759,-0.9465186,-1.3787085,-0.09869478,-2.0448112,1.2287956,2.2833471
489,1747638657.3904543,-0.8694105,-1.568811,0.061375532,-1.9725785,1.1591591,2.29984
490,1747638657.4057949,-0.5921687,-1.6720488,0.17168686,-1.2996539,0.35161895,3.133112
491,1747638657.4068935,-0.5921687,-1.6720488,0.17168686,-1.2996539,0.35161895,3.133112
492,1747638657.4218159,-0.3732535,-1.7061971,0.071376115,-1.1444987,0.28198236,3.5234435
493,1747638657.4371812,-0.106012285,-1.7396442,-0.012073875,-1.2223817,0.4218664,4.0780926
494,1747638657.4381812,-0.106012285,-1.7396442,-0.012073875,-1.2223817,0.4218664,4.0780926
495,1747638657.4518535,0.102384016,-1.7715973,0.13192843,-1.8211647,0.54770094,5.2797055
496,1747638657.4528537,0.102384016,-1.7715973,0.13192843,-1.8211647,0.54770094,5.2797055
497,1747638657.4669876,0.50774306,-1.7950438,0.4179512,-1.8746903,0.31802234,5.5784097
498,1747638657.4823756,0.6988517,-1.797239,0.5062795,-1.806199,0.08460235,5.7677727
499,1747638657.4829621,0.6988517,-1.797239,0.5062795,-1.806199,0.08460235,5.7677727
500,1747638657.4979317,0.9414269,-1.8445894,0.4545387,-1.4797012,-0.28984702,5.897272
501,1747638657.5131037,0.9592328,-1.9549006,0.18632185,-1.2634612,-0.5115846,5.9314795
502,1747638657.5131037,0.9592328,-1.9549006,0.18632185,-1.2186403,-0.66612893,6.0200524
503,1747638657.5277734,0.9592328,-1.9549006,0.18632185,-1.2186403,-0.66612893,6.0200524
504,1747638657.543887,1.1246997,-2.0659437,-0.16632068,-1.2423106,-1.2494881,6.593027
505,1747638657.5449765,1.1246997,-2.0659437,-0.16632068,-1.3992983,-1.4864968,6.8275924
506,1747638657.559081,1.5329858,-2.088628,-0.20437169,-1.9376838,-1.6764703,7.0316157
507,1747638657.5748377,1.6752806,-2.037131,-0.06844912,-2.2853322,-1.55369,6.942432
508,1747638657.5758405,1.7894946,-2.08253,0.038447365,-2.2853322,-1.55369,6.942432
509,1747638657.5906656,1.7951047,-2.073993,0.1521735,-2.5619698,-1.2000095,6.7982717
510,1747638657.605782,1.886604,-2.122075,0.37865016,-2.5395212,-1.8780499,6.8752384
511,1747638657.6068451,1.886604,-2.122075,0.37865016,-2.5395212,-1.8780499,6.8752384
512,1747638657.621716,2.0340211,-2.1537843,0.553142,-2.4629362,-2.1920254,6.90517
513,1747638657.6227176,2.0340211,-2.1537843,0.553142,-2.4629362,-2.1920254,6.90517
514,1747638657.637295,2.2270508,-2.0203006,0.7237313,-1.8541505,-2.2867067,7.0114574
515,1747638657.6527362,2.5033169,-2.1384175,0.45649004,-1.844835,-1.5365863,7.62597
516,1747638657.6537378,2.6265557,-2.0031962,0.30227375,-1.844835,-1.5365863,7.62597
517,1747638657.6680617,2.8833084,-1.8045565,0.22757424,-1.844835,-1.5365863,7.62597
518,1747638657.683164,3.187381,-1.601252,0.26980233,-2.593123,-1.3221788,8.099453
519,1747638657.6842053,3.187381,-1.601252,0.26980233,-2.593123,-1.3221788,8.099453
520,1747638657.6987746,4.5166965,-0.73220736,0.4220978,-3.3744729,-1.4498459,7.581378
521,1747638657.713971,4.9291596,-0.37712565,0.34788615,-3.5913239,-1.0375241,6.9271607
522,1747638657.715056,4.9291596,-0.37712565,0.34788615,-3.5913239,-1.0375241,6.9271607
523,1747638657.7292309,4.933062,-0.19507235,0.65955067,-4.9135027,0.06383354,4.7952275
524,1747638657.7448788,4.268267,0.2903523,2.5735953,-5.066749,-1.1987877,3.4580827
525,1747638657.7458794,4.268267,0.2903523,2.5735953,-5.066749,-1.1987877,3.4580827
526,1747638657.7604678,4.388335,0.6100356,3.1288106,-4.053659,-1.673416,3.4593043
527,1747638657.7754354,4.9550147,0.7452569,3.238878,-2.795008,-1.8487293,3.5216107
528,1747638657.7765105,5.4382133,1.0222243,3.0536537,-2.0703905,-1.7723733,3.3499627
529,1747638657.791035,6.081056,1.765103,2.6443617,-1.5045931,-0.9196305,2.3854349
530,1747638657.8066332,6.07569,2.1533878,2.7358913,-1.5569733,-0.17073181,1.5729316
531,1747638657.8077059,6.07569,2.1533878,2.7358913,-1.5569733,-0.17073181,1.5729316
532,1747638657.82186,6.1276746,2.7888823,3.7237844,-0.8273163,0.3791071,0.2455606
533,1747638657.8228624,6.1276746,2.7888823,3.7237844,-0.8273163,0.3791071,0.2455606
534,1747638657.83729,6.746064,2.2661383,3.5009665,1.4980265,0.62833273,-2.5027175
535,1747638657.852913,6.65237,1.7099473,2.9765153,2.3397741,0.43286163,-4.0714498
536,1747638657.8539138,6.65237,1.7099473,2.9765153,2.3397741,0.43286163,-4.0714498
537,1747638657.8680186,5.8169856,0.6576298,1.7719021,2.5528834,0.6533775,-6.2693543
538,1747638657.8837824,4.4718156,-0.17751035,1.6430532,1.6133239,1.6240138,-7.1092696
539,1747638657.8848526,4.4718156,-0.17751035,1.6430532,1.6133239,1.6240138,-7.1092696
540,1747638657.8993888,4.056669,-0.38761407,1.7245518,1.5621655,2.1108592,-6.995041
541,1747638657.9144256,3.7176864,-0.6626606,1.4829525,1.7628288,2.5164616,-6.791629
542,1747638657.9154522,3.7176864,-0.6626606,1.4829525,1.7628288,2.5164616,-6.791629
543,1747638657.9298944,3.6447248,-0.77858204,1.3140706,2.1510222,2.634355,-6.803846
544,1747638657.9446054,3.136372,-0.9853014,1.2772391,2.7865324,1.5653725,-7.3420024
545,1747638657.9456093,3.136372,-0.9853014,1.2772391,2.7865324,1.5653725,-7.3420024
546,1747638657.960671,2.7925105,-1.1051254,1.1573846,3.2226775,0.66925955,-7.6248245
547,1747638657.9758596,2.5455449,-1.1697938,0.94484174,3.4750338,0.15003936,-7.878326
548,1747638657.9768605,2.2853773,-1.1873559,0.68516195,3.4750338,0.15003936,-7.878326
549,1747638657.990917,1.9515468,-1.1524758,0.35666716,3.317435,0.3650576,-7.8600006
550,1747638658.006705,1.5688721,-1.0809472,-0.13750802,2.5379176,1.2025292,-7.455009
551,1747638658.007804,1.5688721,-1.0809472,-0.13750802,2.5379176,1.2025292,-7.455009
552,1747638658.0217285,1.4656343,-1.0558238,-0.19388327,2.1348348,1.515283,-7.2332716
553,1747638658.036943,1.4483162,-1.1461035,-0.10579886,1.1784008,1.8842347,-6.7452044
554,1747638658.0379436,1.4483162,-1.1461035,-0.10579886,1.1784008,1.8842347,-6.7452044
555,1747638658.0528133,1.423894,-1.1966246,-0.020367041,1.0593618,1.6692165,-6.7452044
556,1747638658.053814,1.423894,-1.1966246,-0.020367041,1.0593618,1.6692165,-6.7452044
557,1747638658.0680096,1.3287361,-1.3440418,0.082626775,1.2300937,1.1322818,-6.8539352
558,1747638658.0837939,1.0287796,-1.4643537,-0.017927876,1.4619102,0.7865422,-6.933956
559,1747638658.084795,1.0287796,-1.4643537,-0.017927876,1.6644061,0.27526304,-6.9247937
560,1747638658.0986235,0.93874377,-1.4494748,-0.12384869,1.6644061,0.27526304,-6.9247937
561,1747638658.114483,0.8999306,-1.1771114,-0.5367691,0.92169213,0.14637427,-5.927891
562,1747638658.1155388,0.8999306,-1.1771114,-0.5367691,0.92169213,0.14637427,-5.927891
563,1747638658.1300378,0.9611841,-1.0770445,-0.60558414,0.21944688,0.8738934,-5.353618
564,1747638658.1448345,1.0187789,-0.9882284,-0.4540509,-0.42728767,1.6857094,-4.7617073
565,1747638658.1458364,1.0187789,-0.9882284,-0.4540509,-0.42728767,1.6857094,-4.7617073
566,1747638658.1600316,1.1025034,-0.87816095,0.06161945,-0.73698723,2.4407165,-3.913851
567,1747638658.1755877,1.2372063,-0.7827286,0.39499256,0.5465556,1.4804647,-3.326216
568,1747638658.176625,1.2372063,-0.7827286,0.39499256,0.5465556,1.4804647,-3.326216
569,1747638658.1907382,1.2005883,-0.76321524,0.36572257,1.1945882,0.8036459,-3.3176641
570,1747638658.2062378,1.2726047,-0.75004375,-0.20510343,1.845675,0.30763796,-3.3072798
571,1747638658.2073133,1.2726047,-0.75004375,-0.20510343,1.845675,0.30763796,-3.3072798
572,1747638658.2219033,1.1344564,-0.7144014,-0.6082672,1.5428475,0.7773795,-3.365921
573,1747638658.2229064,1.1344564,-0.7144014,-0.6082672,1.5428475,0.7773795,-3.365921
574,1747638658.23716,0.9431343,-0.71976763,-0.66439855,1.1285403,1.3094275,-3.2724614
575,1747638658.2527776,0.4923763,-0.70415694,-0.40816402,0.9322293,0.7016344,-3.0879855
576,1747638658.25478,0.18952326,-0.7693132,-0.24489233,0.9322293,0.7016344,-3.0879855
577,1747638658.2680407,-0.030367626,-0.80837035,-0.2587956,1.2475028,0.46951246,-3.1948838
578,1747638658.2833605,-0.29736492,-0.96868455,-0.3591063,1.6550143,0.16408885,-3.4123454
579,1747638658.2843971,-0.29736492,-0.96868455,-0.3591063,1.6550143,0.16408885,-3.4123454
580,1747638658.299407,-1.2305901,-1.1114674,-0.6036328,2.118571,-0.4810422,-3.8936932
581,1747638658.3149297,-2.480602,-1.2188516,-0.6844302,2.5815933,-1.4871076,-4.2321024
582,1747638658.3159394,-2.480602,-1.2188516,-0.6844302,2.5815933,-1.4871076,-4.2321024
583,1747638658.3301444,-3.0082242,-1.3257481,-0.91602904,2.652604,-1.8951536,-4.1606336
584,1747638658.3460665,-3.5824652,-1.6776589,-1.2027836,1.9098903,-1.8682764,-3.4508288
585,1747638658.3471663,-3.5824652,-1.6776589,-1.2027836,1.9098903,-1.8682764,-3.4508288
586,1747638658.3613539,-3.8230891,-1.8750789,-1.1583602,1.025078,-1.2971342,-2.573576
587,1747638658.3765066,-3.9644082,-1.9212096,-0.8962413,0.6904865,-0.5793886,-1.9926602
588,1747638658.3775086,-3.9644082,-1.9212096,-0.8962413,0.67926216,-0.37536564,-1.5192535
589,1747638658.3913774,-4.2709203,-2.1274412,-0.5355495,0.7708892,-0.76875126,-0.86076015
590,1747638658.4068487,-3.7591522,-2.0332284,-0.51262134,1.0275978,-1.5604093,1.1679399
591,1747638658.4078615,-3.7591522,-2.0332284,-0.51262134,1.0275978,-1.5604093,1.1679399
592,1747638658.422717,-3.1727157,-1.9329177,-0.68564975,1.0020186,-1.2384928,2.3004508
593,1747638658.423795,-3.1727157,-1.9329177,-0.68564975,1.0020186,-1.2384928,2.3004508
594,1747638658.4378567,-1.8975803,-1.8355644,-0.96898943,0.22692975,-0.1279725,4.145286
595,1747638658.4533045,-0.3044385,-1.6268938,-0.78202736,-1.3288982,0.8280798,5.72257
596,1747638658.4543052,-0.3044385,-1.6268938,-0.78202736,-1.3288982,0.8280798,5.72257
597,1747638658.4690576,0.121683925,-1.4889894,-0.47527164,-1.8036792,0.74439377,5.8319116
598,1747638658.484863,0.36742997,-1.3420905,-0.14775252,-1.8921758,0.58313006,5.694471
599,1747638658.485854,0.36742997,-1.3420905,-0.14775252,-1.8921758,0.58313006,5.694471
600,1747638658.5004075,0.48530272,-1.1392738,0.177053,-1.0964708,0.035123717,5.374387
601,1747638658.5151708,0.7076327,-1.0782641,0.14363644,-0.47027603,-0.7601994,5.4837284
602,1747638658.5162272,0.7076327,-1.0782641,0.14363644,-0.47027603,-0.7601994,5.4837284
603,1747638658.5312593,0.775716,-1.0470427,0.07628494,-0.3500155,-0.8047913,5.5912375
604,1747638658.5466611,1.0527139,-1.052653,-0.05747287,-0.45156884,0.025961008,6.1727643
605,1747638658.5477097,1.0527139,-1.052653,-0.05747287,-0.45156884,0.025961008,6.1727643
606,1747638658.5623603,1.1544881,-1.0704589,-0.07966928,-0.6235987,0.3290176,6.2521744
607,1747638658.5634615,1.1544881,-1.0704589,-0.07966928,-0.6235987,0.3290176,6.2521744
608,1747638658.5775607,1.1437253,-1.117809,-0.07625445,-1.2261232,0.8940513,6.317535
609,1747638658.5933506,1.1120161,-1.2325109,0.1006766,-1.6753249,0.77921206,6.4354286
610,1747638658.594351,1.1120161,-1.2325109,0.1006766,-1.6753249,0.77921206,6.4354286
611,1747638658.6088936,1.2030275,-1.2781538,0.2080609,-1.7226657,0.28320405,6.4445915
612,1747638658.6247497,1.4292603,-1.3086435,0.3134939,-1.6372998,-0.2831277,6.3627377
613,1747638658.625751,1.4292603,-1.3086435,0.3134939,-1.6372998,-0.2831277,6.3627377
614,1747638658.6394966,1.506155,-1.2603174,0.3325194,-1.3556992,-0.87809294,6.045708
615,1747638658.6551883,1.4773422,-1.2635188,0.3352025,-1.2342169,-0.8066238,5.9235387
616,1747638658.6562684,1.4773422,-1.2635188,0.3352025,-1.2342169,-0.8066238,5.9235387
617,1747638658.6703541,1.3562987,-1.2583661,0.32422623,-1.0703571,-0.5170822,5.962022
618,1747638658.6858342,1.4556336,-1.3347731,0.4269761,-1.0815051,-0.94834036,6.0316586
619,1747638658.686835,1.4556336,-1.3347731,0.4269761,-1.0815051,-0.94834036,6.0316586
620,1747638658.7015674,1.5671645,-1.3208698,0.7578796,-0.81800085,-1.6605883,5.7958717
621,1747638658.7164466,1.571799,-1.1451279,1.1449449,0.6275692,-3.2256553,5.18197
622,1747638658.7184994,1.571799,-1.1451279,1.1449449,0.6275692,-3.2256553,5.18197
623,1747638658.731822,1.5203022,-0.9840818,1.0571043,2.9697104,-4.2078977,5.0762935
624,1747638658.747432,1.6123196,-0.7256216,-0.1414107,3.2202342,-3.5933855,5.493502
625,1747638658.7484326,1.6123196,-0.7256216,-0.1414107,3.2202342,-3.5933855,5.493502
626,1747638658.762941,1.8578218,-0.66412413,-0.56485003,2.7940154,-2.545706,5.9748497
627,1747638658.7640557,1.8578218,-0.66412413,-0.56485003,2.7940154,-2.545706,5.9748497
628,1747638658.7782803,2.5287147,-0.29047427,-0.27001578,1.13106,-1.4205253,6.2393465
629,1747638658.7941883,3.016548,0.29279146,-0.06357078,1.5746878,-1.6074445,5.5118275
630,1747638658.7952816,3.016548,0.29279146,-0.06357078,1.5746878,-1.6074445,5.5118275
631,1747638658.8088975,3.109785,0.59344923,-0.4484408,1.8937029,-1.5891192,4.9772596
632,1747638658.8240585,3.1078336,0.8530986,-0.8344999,1.1005177,-0.8487723,4.568603
633,1747638658.825147,3.1742096,1.2206504,-1.2918437,1.1005177,-0.8487723,4.568603
634,1747638658.8392808,3.2867162,1.4546885,-1.3108996,0.14782503,-0.5286883,4.5979238
635,1747638658.8548174,3.5346575,1.693605,-1.0648792,-0.99682635,-0.19333316,4.6052537
636,1747638658.8558893,3.5346575,1.693605,-1.0648792,-0.99682635,-0.19333316,4.6052537
637,1747638658.8702004,3.8919344,1.9547482,-0.4806378,-1.8005487,0.34367794,4.268066
638,1747638658.8860369,4.4149528,2.4037988,0.09531044,-1.9376838,1.2251306,2.8893838
639,1747638658.887269,4.4149528,2.4037988,0.09531044,-1.9376838,1.2251306,2.8893838
640,1747638658.9014134,4.7339044,2.577559,0.3676739,-1.5887374,1.0223292,2.1385763
641,1747638658.9169743,5.305218,2.7857113,0.53192127,-0.7338566,0.54403585,0.5234961
642,1747638658.9179845,5.305218,2.7857113,0.53192127,-0.7338566,0.54403585,0.5234961
643,1747638658.9330285,5.150971,2.9785273,0.47161287,-0.18745375,0.10292777,-0.7789066
644,1747638658.9340298,5.150971,2.9785273,0.47161287,0.27304873,-0.060168456,-2.12949
645,1747638658.9487903,4.851777,2.9758444,0.27175367,0.27304873,-0.060168456,-2.12949
646,1747638658.9639318,4.345132,2.83233,-0.0594242,-0.2036412,1.0492065,-3.549786
647,1747638658.9649768,4.345132,2.83233,-0.0594242,-0.2036412,1.0492065,-3.549786
648,1747638658.9792013,4.2441196,2.415019,0.031617697,-0.75874865,1.8610225,-3.9517236
649,1747638658.9946651,4.2594867,2.1748831,0.17485777,-0.8864921,2.0198429,-4.245541
650,1747638658.9957385,4.2594867,2.1748831,0.17485777,-0.8864921,2.0198429,-4.245541
651,1747638659.0103247,4.214819,1.5706099,0.38279673,-0.6423059,1.9874679,-5.274819
652,1747638659.029506,3.8372664,1.0005157,0.20123126,-0.39178216,1.8567466,-6.5088067
653,1747638659.0304844,3.8372664,1.0005157,0.20123126,-0.39178216,1.8567466,-6.5088067
654,1747638659.0450752,3.4938927,0.7881862,0.23733091,-0.39491275,1.7229711,-6.786742
655,1747638659.046078,3.0865824,0.6320186,0.339593,-0.39491275,1.7229711,-6.786742
656,1747638659.060576,2.8183963,0.49582162,0.40499315,-0.184934,1.3106492,-7.087279
657,1747638659.0753825,2.124819,0.18711458,0.2180615,0.26365694,0.97040725,-6.9064684
658,1747638659.0764344,2.124819,0.18711458,0.2180615,0.26365694,0.97040725,-6.9064684
659,1747638659.0905113,1.9422474,0.08338901,0.0711322,0.20952061,0.98995435,-6.7482586
660,1747638659.105746,1.6913792,-0.098420374,-0.049911447,-0.07337803,1.1988641,-6.434894
661,1747638659.1068416,1.6913792,-0.098420374,-0.049911447,-0.07337803,1.1988641,-6.434894
662,1747638659.1215813,1.6128075,-0.28754726,-0.088206366,-0.25098187,1.4157149,-6.2614136
663,1747638659.1376832,1.5513101,-0.3588319,-0.06918087,-0.3631487,1.5568206,-6.228428
664,1747638659.1386836,1.4731957,-0.43886706,-0.012805625,-0.38429928,1.6142403,-6.2131567
665,1747638659.1531763,1.3748363,-0.50865775,0.007927292,-0.2890071,1.6124077,-6.194831
666,1747638659.1541765,1.3748363,-0.50865775,0.007927292,-0.2890071,1.6124077,-6.194831
667,1747638659.167985,1.1410422,-0.6070171,-0.038416874,-0.007941014,1.5195589,-6.159402
668,1747638659.1839652,0.9843867,-0.61823726,-0.05747287,0.110410646,1.4877949,-6.0769377
669,1747638659.1850114,0.9843867,-0.61823726,-0.05747287,0.110410646,1.4877949,-6.0769377
670,1747638659.1993854,0.70299834,-0.6153103,-0.102140106,0.25495237,1.3656254,-5.729976
671,1747638659.2146277,0.57655805,-0.5833572,-0.25050244,0.22570807,1.3808966,-4.998105
672,1747638659.2156374,0.57655805,-0.5833572,-0.25050244,0.22570807,1.3808966,-4.998105
673,1747638659.2301924,0.7025105,-0.5879916,-0.40938362,-0.08712209,1.7052565,-4.627321
674,1747638659.2458847,0.82599336,-0.59140646,-0.40694448,-0.6640673,2.2049296,-4.306015
675,1747638659.2468898,0.82599336,-0.59140646,-0.40694448,-0.6640673,2.2049296,-4.306015
676,1747638659.2612054,0.862093,-0.55161756,-0.13287361,-0.6690305,2.4370515,-3.5962105
677,1747638659.2771845,0.86797744,-0.4862174,0.10799411,-0.6690305,2.4370515,-3.5962105
678,1747638659.2781851,0.8965157,-0.45789257,0.38060147,-0.1662268,2.0534394,-3.3506498
679,1747638659.2919989,0.96898943,-0.415695,0.49091277,0.37834352,1.5885847,-3.1844995
680,1747638659.2931511,0.96898943,-0.415695,0.49091277,0.37834352,1.5885847,-3.1844995
681,1747638659.3079784,1.4983497,-0.62116426,0.050887115,2.0637474,1.1994749,-3.382414
682,1747638659.3234801,1.6340282,-0.8261763,-0.24391668,2.2095873,1.2330716,-3.673788
683,1747638659.3235507,1.6340282,-0.8261763,-0.24391668,2.2095873,1.2330716,-3.673788
684,1747638659.33867,1.4309677,-0.86767256,-0.7056509,2.049469,1.1347251,-4.3322816
685,1747638659.3545241,0.62342054,-0.6814422,-0.66952074,1.0830321,0.5269321,-4.214388
686,1747638659.3545241,0.62342054,-0.6814422,-0.66952074,1.0830321,0.5269321,-4.214388
687,1747638659.3697104,0.23614183,-0.5994557,-0.58411944,0.79020727,0.74439377,-3.9034667
688,1747638659.3857958,-0.1445816,-0.6297014,-0.46502712,0.6431458,1.4737453,-3.1967163
689,1747638659.387284,-0.43962932,-0.6826618,-0.37593657,0.6431458,1.4737453,-3.1967163
690,1747638659.400886,-0.9474943,-0.72025543,-0.23391607,0.93161845,1.5598748,-2.6914694
691,1747638659.416093,-1.2135159,-0.79516834,-0.4167011,1.2624686,1.2550621,-2.357336
692,1747638659.4171941,-1.2135159,-0.79516834,-0.4167011,1.2624686,1.2550621,-2.357336
693,1747638659.4313924,-1.8282773,-1.0909477,-0.7493425,1.3135507,0.1982963,-2.3347347
694,1747638659.4468532,-2.7478433,-1.484355,-0.3691069,1.6120259,-1.9763963,-2.4538498
695,1747638659.4479325,-2.7478433,-1.484355,-0.3691069,1.6120259,-1.9763963,-2.4538498
696,1747638659.4619896,-3.2800999,-1.5922271,-0.04235003,2.3235867,-3.2226012,-2.7311745
697,1747638659.4629915,-3.2800999,-1.5922271,-0.04235003,2.3235867,-3.2226012,-2.7311745
698,1747638659.4772947,-4.237747,-2.0063672,0.025275866,4.27448,-5.512133,-3.686616
699,1747638659.4926367,-4.612098,-2.325837,-0.19266367,4.7461305,-8.693501,-3.9114077
700,1747638659.49375,-4.7870784,-2.5242631,-0.3761805,4.7461305,-8.693501,-3.9114077
701,1747638659.5081782,-4.7890296,-2.5210617,-0.35666716,4.1548305,-8.570722,-3.2327564
702,1747638659.5236096,-4.652619,-2.343155,-0.28492516,3.7056286,-6.9665604,-1.7642032
703,1747638659.5246954,-4.652619,-2.343155,-0.28492516,3.7056286,-6.9665604,-1.7642032
704,1747638659.5389016,-3.8694634,-1.94365,-0.6175665,3.0270536,-2.088792,2.9712374
705,1747638659.5541155,-2.5777419,-1.9734383,-1.0910088,1.9865516,0.28014982,5.9235387
706,1747638659.5551832,-2.5777419,-1.9734383,-1.0910088,1.9865516,0.28014982,5.9235387
707,1747638659.569845,-0.6275671,-1.9524615,-1.2179064,-0.11079242,2.2000427,7.621694
708,1747638659.5857456,0.6834545,-1.7093681,-0.60582805,-1.1208284,1.1102912,6.5038433
709,1747638659.5872312,0.6834545,-1.7093681,-0.60582805,-1.1208284,1.1102912,6.5038433
710,1747638659.6008132,0.87651455,-1.6659509,-0.49161404,-1.1768736,0.25754848,5.9693522
711,1747638659.615997,1.0317065,-1.5563713,-0.19851768,-1.1332744,-0.06139015,5.577799
712,1747638659.617057,1.0317065,-1.5563713,-0.19851768,-1.1332744,-0.06139015,5.577799
713,1747638659.6308494,1.0361276,-1.5236559,-0.0447892,-1.0030112,0.06810947,5.6804214
714,1747638659.6469173,1.2008322,-1.3996853,0.19830425,-0.37185326,0.5495335,6.2234645
715,1747638659.6479182,1.2008322,-1.3996853,0.19830425,-0.37185326,0.5495335,6.2234645
716,1747638659.6616495,1.3609331,-1.400661,0.23781876,-0.15874393,0.6863633,6.25645
717,1747638659.676773,1.7597064,-1.3225771,0.19513334,0.27304873,0.7437829,5.58574
718,1747638659.6773212,1.7597064,-1.3225771,0.19513334,0.27304873,0.7437829,5.58574
719,1747638659.6925306,1.7994953,-1.3130339,0.22342768,0.401403,0.3497864,5.1801376
720,1747638659.693132,1.7994953,-1.3130339,0.22342768,0.401403,0.3497864,5.1801376
721,1747638659.7085986,1.5971663,-1.1365907,0.22196417,1.0992197,-0.7522584,4.2943325
722,1747638659.7237818,1.3767877,-1.0402132,0.02332453,1.5260491,-0.9703309,4.0212836
723,1747638659.7238524,1.3767877,-1.0402132,0.02332453,1.5260491,-0.9703309,4.0212836
724,1747638659.7389715,1.1871729,-0.9577083,-0.039392542,1.4799302,-0.66612893,4.1917105
725,1747638659.7548246,1.103479,-0.92551136,-0.040612124,1.3590587,-0.28679278,4.514848
726,1747638659.7558775,1.103479,-0.92551136,-0.040612124,1.3590587,-0.28679278,4.514848
727,1747638659.7696056,1.1186019,-1.0331091,-0.010854292,1.071197,0.59840125,5.24672
728,1747638659.7847826,1.2415968,-1.1285415,0.19537725,0.95467794,0.68514156,6.0237174
729,1747638659.7857864,1.2415968,-1.1285415,0.19537725,0.95467794,0.68514156,6.0237174
730,1747638659.7997406,1.3419076,-1.064117,0.32276276,1.1459495,0.1622563,6.085413
731,1747638659.8156748,1.5505784,-0.84056735,0.38499197,1.9621941,-0.9709417,5.6315536
732,1747638659.8166752,1.5505784,-0.84056735,0.38499197,1.9621941,-0.9709417,5.6315536
733,1747638659.831119,1.5598471,-0.77858204,0.33910516,2.529824,-1.4437375,5.2002954
734,1747638659.8465598,1.2345233,-0.5630816,-0.12897095,3.017738,-1.5982819,5.0469728
735,1747638659.8475888,1.2345233,-0.5630816,-0.12897095,3.017738,-1.5982819,5.0469728
736,1747638659.8616483,1.0890574,-0.31709167,-0.70467526,2.704297,-0.46882528,6.153828
737,1747638659.8764677,2.01402,-0.09671296,-0.90139407,1.1609153,0.5348731,7.944298
738,1747638659.8774683,2.01402,-0.09671296,-0.90139407,1.1609153,0.5348731,7.944298
739,1747638659.892497,2.8759909,0.098511845,-0.5357935,0.5989357,0.34734303,8.091512
740,1747638659.89363,2.8759909,0.098511845,-0.5357935,0.5989357,0.34734303,8.091512
741,1747638659.9079201,3.737718,0.44944695,-0.33203158,0.59267455,-0.28618193,6.920441
742,1747638659.9235375,3.4294684,0.8699593,-0.6448852,0.9989643,-1.1511416,4.0750384
743,1747638659.9245813,3.4294684,0.8699593,-0.6448852,0.9989643,-1.1511416,4.0750384
744,1747638659.9390743,3.0726793,1.0659158,-0.90554065,0.7048414,-1.2690352,3.9895198
745,1747638659.953944,3.110761,1.430053,-0.7578796,0.29481015,-1.0509627,4.327318
746,1747638659.954994,3.110761,1.430053,-0.7578796,-0.32634515,-0.5274666,4.8752484
747,1747638659.9690962,3.6342363,1.6906779,-0.17119902,-0.647269,0.0015271181,5.2351136
748,1747638659.9846997,4.084995,1.8427294,0.022348866,-0.5226562,0.17752749,5.1086683
749,1747638659.9857006,4.084995,1.8427294,0.022348866,-0.5226562,0.17752749,5.1086683
750,1747638660.000292,5.1036515,2.5802422,-0.027684543,0.11606098,1.099296,3.2705526
751,1747638660.0156488,5.3554955,3.1066446,-0.38743114,0.049325917,0.84823775,0.9541434
752,1747638660.0166485,5.3554955,3.1066446,-0.38743114,0.049325917,0.84823775,0.9541434
753,1747638660.030902,5.2315245,3.2979667,-0.35495973,-0.28648737,0.5104392,-0.07941014
754,1747638660.045923,4.9691615,3.388765,0.012073875,-0.7288935,0.7999808,-1.321339
755,1747638660.045923,4.9691615,3.388765,0.012073875,-0.7288935,0.7999808,-1.321339
756,1747638660.0611126,5.068009,3.1739962,0.35471582,-0.74630266,1.1787062,-1.7977998
757,1747638660.0759482,5.1702714,2.735434,0.64759874,-0.19738002,1.7156409,-2.9816983
758,1747638660.0781205,5.1702714,2.735434,0.64759874,-0.19738002,1.7156409,-2.9816983
759,1747638660.0913308,5.076546,2.2927556,0.67321,0.5546493,1.7125866,-4.1404753
760,1747638660.1060941,4.62774,1.8102582,0.28321773,1.6188979,1.3405807,-5.662783
761,1747638660.107173,4.206038,1.531065,-0.08552328,1.7777946,1.1011286,-6.210102
762,1747638660.121802,3.8143387,1.3468164,-0.34495914,1.6587558,0.8042568,-6.651134
763,1747638660.1376872,3.0856068,1.102046,-0.6043645,0.99079424,0.7242358,-6.894862
764,1747638660.138784,3.0856068,1.102046,-0.6043645,0.99079424,0.7242358,-6.894862
765,1747638660.1535792,2.3419964,0.73571366,-0.62976235,-0.31389913,1.4719129,-6.5533986
766,1747638660.1551752,2.3419964,0.73571366,-0.62976235,-0.31389913,1.4719129,-6.5533986
767,1747638660.1687727,2.0877132,0.55927044,-0.48746744,-0.75874865,1.7926077,-6.262635
768,1747638660.1839285,1.983012,0.35282546,-0.33447072,-1.0392039,1.9697534,-5.939497
769,1747638660.184932,1.983012,0.35282546,-0.33447072,-1.0392039,1.9697534,-5.939497
770,1747638660.1993728,2.094055,-0.17455287,-0.08454762,-0.98247147,1.9202747,-5.8655844
771,1747638660.2154694,2.0613399,-0.63092095,-0.10604277,-0.5451048,1.7773365,-6.64808
772,1747638660.216481,2.0613399,-0.63092095,-0.10604277,-0.5451048,1.7773365,-6.64808
773,1747638660.2305937,1.9049283,-0.7456228,-0.098206945,-0.3892624,1.5843087,-6.978548
774,1747638660.2456186,1.4053564,-0.89865,-0.29907233,-0.041003123,1.0999068,-7.356052
775,1747638660.246716,1.4053564,-0.89865,-0.29907233,-0.041003123,1.0999068,-7.356052
776,1747638660.2607708,1.2291571,-0.9091384,-0.40987146,-0.09521582,1.1444987,-7.2717547
777,1747638660.2759945,1.0624706,-0.94160986,-0.5423792,-0.52448875,1.438927,-6.751924
778,1747638660.2769952,1.0624706,-0.94160986,-0.5423792,-0.52448875,1.438927,-6.751924
779,1747638660.2913096,1.0636901,-0.95453745,-0.591193,-0.7569161,1.6185162,-6.5002546
780,1747638660.306106,1.2630615,-1.078752,-0.4354827,-1.6186689,2.3362617,-5.903457
781,1747638660.3076265,1.2630615,-1.078752,-0.4354827,-1.6186689,2.3362617,-5.903457
782,1747638660.3218188,1.2889472,-1.0733857,-0.19485892,-1.687771,2.3881838,-5.7825093
783,1747638660.3228235,1.2889472,-1.0733857,-0.19485892,-1.687771,2.3881838,-5.7825093
784,1747638660.3368535,1.277727,-0.9960337,0.20537783,-1.1033429,1.9495953,-5.6902714
785,1747638660.3526986,1.2826053,-0.90572363,0.21537842,-0.35688752,1.3967786,-5.6652265
786,1747638660.3537018,1.2826053,-0.90572363,0.21537842,-0.35688752,1.3967786,-5.6652265
787,1747638660.3674166,1.3169975,-0.9699041,0.06454645,0.6755207,0.96246624,-5.7000446
788,1747638660.3825536,1.2662629,-1.094637,-0.014269125,1.0051491,0.8745042,-5.7287545
789,1747638660.383554,1.0553969,-1.1112235,-0.03744121,1.0051491,0.8745042,-5.7287545
790,1747638660.3978803,0.78083825,-1.0323772,-0.11653119,1.7341954,0.20196137,-5.3804955
791,1747638660.4139216,0.5909796,-0.90596753,-0.2810225,1.9491372,-0.079715565,-5.0323124
792,1747638660.415013,0.5909796,-0.90596753,-0.2810225,1.9491372,-0.079715565,-5.0323124
793,1747638660.4294481,0.304469,-0.7544343,-0.6626911,1.8226155,-0.19883078,-4.3316708
794,1747638660.4446445,0.015519199,-0.8478849,-0.81888926,0.42072105,0.5776324,-3.114863
795,1747638660.4456482,0.015519199,-0.8478849,-0.81888926,0.42072105,0.5776324,-3.114863
796,1747638660.459795,-0.3046824,-0.83788425,-0.59631526,0.086129464,0.9404757,-2.7378938
797,1747638660.4759028,-0.65220267,-0.8588611,-0.45770964,-0.12514733,1.7095324,-1.8222337
798,1747638660.4769034,-0.65220267,-0.8588611,-0.45770964,-0.12514733,1.7095324,-1.8222337
799,1747638660.49183,-1.2798917,-1.2019908,-0.39182165,-0.4298074,1.9795269,-1.8833184
800,1747638660.506588,-1.2798917,-1.2019908,-0.39182165,-0.7082774,1.9117229,-2.141096
801,1747638660.5076227,-1.2798917,-1.2019908,-0.39182165,-0.7082774,1.9117229,-2.141096
802,1747638660.521728,-1.9807863,-1.5112163,0.011342125,-0.45034716,1.5745351,-2.5479202
803,1747638660.536949,-3.0592332,-1.871664,0.17071119,1.6157674,-0.14507623,-2.772712
804,1747638660.537949,-3.0592332,-1.871664,0.17071119,1.6157674,-0.14507623,-2.772712
805,1747638660.5523,-3.5792942,-2.0295696,-0.07040045,2.5161562,-1.6233265,-2.8606741
806,1747638660.5533004,-3.5792942,-2.0295696,-0.07040045,2.5161562,-1.6233265,-2.8606741
807,1747638660.568408,-4.1610966,-2.368553,-0.7193103,3.2245862,-3.334386,-2.9180937
808,1747638660.5837224,-4.772687,-2.4200497,-0.56363046,2.575943,-3.0845497,-1.2462047
809,1747638660.5847762,-4.772687,-2.4200497,-0.56363046,2.575943,-3.0845497,-1.2462047
810,1747638660.5991688,-4.6428623,-2.2985184,-0.5689966,2.4631653,-2.225622,0.39643988
811,1747638660.6148257,-3.5714889,-2.05201,-0.9572814,2.2774677,-1.4186927,1.7787873
812,1747638660.61591,-3.5714889,-2.05201,-0.9572814,1.7447325,-0.26052636,3.5784197
813,1747638660.6298387,-2.7122009,-1.9070625,-1.116864,0.91291124,0.81036526,5.094008
814,1747638660.6455767,-1.661103,-1.6273816,-1.119547,-0.31451,1.898895,6.593638
815,1747638660.6466112,-1.661103,-1.6273816,-1.119547,-0.31451,1.898895,6.593638
816,1747638660.6608148,0.05698503,-1.4165156,-1.1236936,-1.3675343,2.4981363,7.377966
817,1747638660.6759453,1.1098208,-1.2595856,-0.9985034,-2.7675962,2.6013694,7.07804
818,1747638660.6769495,1.1098208,-1.2595856,-0.9985034,-2.7675962,2.6013694,7.07804
819,1747638660.691642,1.38316,-1.2276326,-0.7066266,-3.2666585,2.1731656,6.8917313
820,1747638660.7067866,1.5183507,-1.1763796,-0.36130157,-3.8013024,1.4517548,6.4433694
821,1747638660.707787,1.5183507,-1.1763796,-0.36130157,-3.8013024,1.4517548,6.4433694
822,1747638660.7217371,1.4868551,-1.1561346,-0.21144526,-3.9470658,1.3027081,6.262559
823,1747638660.7370505,1.3065091,-1.0611899,0.3030055,-3.8480322,0.9710181,5.7372303
824,1747638660.7380497,1.3065091,-1.0611899,0.3030055,-3.8480322,0.9710181,5.7372303
825,1747638660.752498,1.2191565,-1.0231085,0.4127985,-3.5477245,0.6869741,5.4611273
826,1747638660.7535012,1.2191565,-1.0231085,0.4127985,-3.5477245,0.6869741,5.4611273
827,1747638660.767863,1.0234133,-0.90694314,0.56680137,-2.5738049,-0.3943019,4.7426944
828,1747638660.7836194,0.9599645,-0.907431,0.52530503,-2.1096373,-0.9318475,4.3835163
829,1747638660.7847016,0.9599645,-0.907431,0.52530503,-2.1096373,-0.9318475,4.3835163
830,1747638660.7992663,0.86992884,-0.93917066,0.40621272,-1.5370444,-1.6611991,3.8404732
831,1747638660.8152037,0.8389209,-1.0443598,0.26150915,-1.2610178,-2.1028416,3.6321743
832,1747638660.8162928,0.8389209,-1.0443598,0.26150915,-1.2610178,-2.1028416,3.6321743
833,1747638660.8310583,0.82379806,-1.1243949,0.193182,-1.2871315,-2.0564172,3.78061
834,1747638660.8461528,0.78766793,-1.1510123,0.14851476,-1.3693669,-1.8413991,4.0347223
835,1747638660.8472657,0.7993759,-1.2254373,0.10970152,-1.3693669,-1.8413991,4.0347223
836,1747638660.862267,0.89212525,-1.310107,0.48335138,-1.7644323,-1.4645063,5.106836
837,1747638660.8632677,0.89212525,-1.310107,0.48335138,-1.7644323,-1.4645063,5.106836
838,1747638660.877836,1.0207303,-1.3066921,0.6890646,-1.5177264,-1.8444533,5.313913
839,1747638660.892967,1.1288464,-1.2508047,0.7517817,-1.0379058,-2.181641,5.385993
840,1747638660.8939962,1.1288464,-1.2508047,0.7517817,-1.0379058,-2.181641,5.385993
841,1747638660.9089453,1.2896789,-1.0211571,0.54484886,-0.22914408,-2.2952585,5.3646135
842,1747638660.923827,1.3531277,-0.5845768,-0.019147458,0.21944688,-2.2439475,5.6523223
843,1747638660.9249115,1.3531277,-0.5845768,-0.019147458,0.21944688,-2.2439475,5.6523223
844,1747638660.9390495,1.5566761,-0.49426663,-0.0059759584,0.091703445,-2.3789446,5.7915955
845,1747638660.955057,1.9063917,-0.42179292,0.13046493,0.14652699,-2.606867,5.843518
846,1747638660.9556253,1.9063917,-0.42179292,0.13046493,0.14652699,-2.606867,5.843518
847,1747638660.9698365,2.1797307,-0.3353854,0.09043211,0.31855685,-2.7760718,5.850237
848,1747638660.985035,2.4545028,-0.23778826,-0.066009946,0.3328354,-2.5567775,5.8667297
849,1747638660.9860404,2.4545028,-0.23778826,-0.066009946,0.3328354,-2.5567775,5.8667297
850,1747638661.0007796,2.8444953,-0.11744587,-0.32175657,0.07673769,-2.0356486,5.8129754
851,1747638661.0154545,3.2996438,0.22248249,0.011342125,-0.7313369,-2.7858453,5.0915647
852,1747638661.0165281,3.2996438,0.22248249,0.011342125,-0.7313369,-2.7858453,5.0915647
853,1747638661.0315738,3.3689466,0.40676156,0.40548098,-0.7301152,-3.058283,4.679777
854,1747638661.046705,3.241805,0.78599095,0.8452627,-0.02481567,-3.1407475,4.172163
855,1747638661.047706,3.241805,0.78599095,0.8452627,-0.02481567,-3.1407475,4.172163
856,1747638661.06184,3.204943,1.1064365,0.5763141,0.55281675,-2.2445583,4.436049
857,1747638661.0628924,3.3694344,1.273367,0.25077683,0.3515426,-1.4993246,4.7036004
858,1747638661.077442,3.3694344,1.273367,0.25077683,0.3515426,-1.4993246,4.7036004
859,1747638661.09216,4.2938786,1.7421749,0.23903833,-1.512076,-0.70644486,4.809277
860,1747638661.093234,4.2938786,1.7421749,0.23903833,-1.512076,-0.70644486,4.809277
861,1747638661.1076853,5.6683493,2.5121589,2.46865,-1.4896274,-0.8878665,2.9431384
862,1747638661.122888,6.0315104,2.8398912,2.5667655,-0.04161397,-0.34665582,1.551552
863,1747638661.1239364,6.0315104,2.8398912,2.5667655,-0.04161397,-0.34665582,1.551552
864,1747638661.1389318,5.844823,3.0822225,1.5937514,1.2045144,1.0534824,-0.87114453
865,1747638661.1549776,4.89059,3.1103034,1.4556336,0.20761171,1.5525447,-2.8582306
866,1747638661.1560473,4.89059,3.1103034,1.4556336,0.20761171,1.5525447,-2.8582306
867,1747638661.1699607,5.0555696,2.8501358,1.7416565,0.23815407,2.343592,-3.3353786
868,1747638661.1846964,5.590753,1.9977081,1.9412718,0.54785365,2.8011928,-3.8759785
869,1747638661.1856954,5.590753,1.9977081,1.9412718,1.2350568,2.8396761,-4.8600535
870,1747638661.1999218,5.565386,1.4688357,1.6362236,2.146059,2.6771145,-6.145963
871,1747638661.214844,5.4143095,1.1615921,1.2957767,2.8401344,2.707046,-7.2338824
872,1747638661.2159472,5.4143095,1.1615921,1.2957767,2.8401344,2.707046,-7.2338824
873,1747638661.230894,4.9676986,0.5500016,0.57704586,3.2401628,2.1676679,-8.583321
874,1747638661.2457025,3.7547925,0.18101667,-0.22123243,2.5211194,2.243413,-9.317558
875,1747638661.2467747,3.7547925,0.18101667,-0.22123243,2.5211194,2.243413,-9.317558
876,1747638661.2609537,3.2220478,0.05411901,-0.36715558,1.9185948,2.5842657,-9.100708
877,1747638661.276694,2.3730042,-0.17775428,-0.21217702,1.0979979,2.8384545,-8.233839
878,1747638661.2776954,2.3730042,-0.17775428,-0.21217702,1.0979979,2.8384545,-8.233839
879,1747638661.2918527,1.725558,-0.59091866,0.0521067,0.9391013,2.470648,-7.498379
880,1747638661.3072581,1.725558,-0.59091866,0.0521067,1.0406547,2.2336392,-7.215557
881,1747638661.3083656,1.725558,-0.59091866,0.0521067,1.2724712,1.8878998,-6.9382324
882,1747638661.3225586,1.5622863,-0.89279604,-0.15214302,1.5323104,1.6594429,-6.687174
883,1747638661.3236406,1.5622863,-0.89279604,-0.15214302,1.5323104,1.6594429,-6.687174
884,1747638661.3378677,1.6664996,-1.0975641,-0.63732374,0.9901834,1.611186,-7.004204
885,1747638661.3531883,1.4236501,-1.1204922,-0.51847535,0.6300889,1.487184,-7.166078
886,1747638661.3541896,1.4236501,-1.1204922,-0.51847535,0.6300889,1.487184,-7.166078
887,1747638661.3690462,0.9719165,-1.0550921,-0.25855166,0.25930467,1.0040039,-7.0145884
888,1747638661.3847268,0.75547093,-0.8971865,-0.31078032,0.08551861,1.3399699,-6.039065
889,1747638661.3857267,0.75547093,-0.8971865,-0.31078032,0.08551861,1.3399699,-6.039065
890,1747638661.400033,0.84257966,-0.8515436,-0.38767505,-0.24097924,1.8378103,-5.5081625
891,1747638661.414915,0.8962718,-0.8264202,-0.38349798,-0.5270085,2.1383471,-5.26138
892,1747638661.4160204,0.8962718,-0.8264202,-0.38349798,-0.5270085,2.1383471,-5.26138
893,1747638661.4309058,1.0180472,-0.79199743,-0.028172374,-0.86969376,2.5121858,-4.9437394
894,1747638661.4456005,1.0888135,-0.79785144,0.29468182,-0.503949,2.1383471,-4.988942
895,1747638661.4466019,1.0888135,-0.79785144,0.29468182,-0.503949,2.1383471,-4.988942
896,1747638661.4608335,1.1259193,-0.8862102,0.29785275,0.49364093,1.1829821,-5.2668777
897,1747638661.4767375,1.0043879,-0.87986845,0.09579827,1.4189218,0.3485647,-5.437915
898,1747638661.47774,1.0043879,-0.87986845,0.09579827,1.4189218,0.3485647,-5.437915
899,1747638661.4919133,0.8816368,-0.8608124,-0.11921428,1.6768521,0.088878274,-5.4721227
900,1747638661.4929175,0.8816368,-0.8608124,-0.11921428,1.6768521,0.088878274,-5.4721227
901,1747638661.5068212,0.513841,-0.81885874,-0.4247504,1.4606122,-0.06261184,-4.9834447
902,1747638661.5228763,0.36572257,-0.8022419,-0.41694507,1.2594143,-0.0051922016,-4.614493
903,1747638661.52393,0.36572257,-0.8022419,-0.41694507,1.2594143,-0.0051922016,-4.614493
904,1747638661.5385141,0.25833824,-0.83886,-0.3822784,1.0201149,0.32413083,-3.490534
905,1747638661.5538156,0.080919355,-0.7773624,-0.3586185,1.1528215,0.10659285,-2.9119852
906,1747638661.5548792,0.080919355,-0.7773624,-0.3586185,1.1528215,0.10659285,-2.9119852
907,1747638661.5695987,-0.020854875,-0.7766307,-0.7615383,1.26621,-0.09132166,-2.265098
908,1747638661.5847986,-0.59607136,-0.82520056,-0.9465186,0.6300889,-0.15057385,-1.7397693
909,1747638661.5857985,-0.59607136,-0.82520056,-0.9465186,0.6300889,-0.15057385,-1.7397693
910,1747638661.6000204,-0.8247433,-0.87108743,-0.9921616,0.22135578,-0.26846737,-1.505204
911,1747638661.616031,-1.2174186,-1.043384,-0.7944976,-0.5799231,0.20379391,-1.197337
912,1747638661.617139,-1.2174186,-1.043384,-0.7944976,-0.5799231,0.20379391,-1.197337
913,1747638661.6315682,-1.7020811,-1.2127537,-0.3383734,-0.63543385,0.48600534,-0.937116
914,1747638661.646849,-2.1594248,-1.3913922,-0.11848252,-0.17370969,0.2850366,-0.6872795
915,1747638661.6478944,-2.1594248,-1.3913922,-0.11848252,-0.17370969,0.2850366,-0.6872795
916,1747638661.6620514,-2.2912314,-1.5536882,-0.36861908,0.9671239,-0.36131614,-0.4166742
917,1747638661.6631405,-2.2912314,-1.5536882,-0.36861908,0.9671239,-0.36131614,-0.4166742
918,1747638661.6770248,-2.6626554,-1.4582559,-1.1129613,0.91482013,-0.57999945,-0.38552096
919,1747638661.6927474,-2.9420924,-1.4004171,-1.1559211,0.45935714,-0.43095273,-0.31588438
920,1747638661.693863,-2.9420924,-1.4004171,-1.1559211,0.45935714,-0.43095273,-0.31588438
921,1747638661.7080824,-3.2217734,-1.3794403,-0.9826488,-0.20303036,-0.48043138,0.07941014
922,1747638661.719094,-3.2471406,-1.3433101,-0.8244993,-0.5774797,-0.62642384,0.67071027
923,1747638661.7350106,-3.1143892,-1.3423345,-0.7305609,-0.7967739,-0.55739814,1.0989143
924,1747638661.7360203,-3.1143892,-1.3423345,-0.7305609,-0.7967739,-0.55739814,1.0989143
925,1747638661.7502518,-2.7451603,-1.3005941,-0.5594838,-0.99552834,-0.12980504,2.012131
926,1747638661.7649927,-1.96981,-1.1368346,-0.5526237,-0.900847,0.17874917,3.509394
927,1747638661.7659938,-1.96981,-1.1368346,-0.5526237,-0.900847,0.17874917,3.509394
928,1747638661.780295,-1.4295042,-1.081679,-0.6841862,-1.0429454,0.36627927,4.3627477
929,1747638661.7954826,-0.3969439,-1.015547,-0.8337681,-1.6186689,0.5959579,5.0824018
930,1747638661.7965248,-0.3969439,-1.015547,-0.8337681,-1.6186689,0.5959579,5.0824018
931,1747638661.8109107,0.1285136,-0.9250235,-0.7283352,-2.2902954,0.7682168,5.4360824
932,1747638661.8259826,0.8318473,-0.79394877,-0.47063723,-2.984447,0.7480588,5.532596
933,1747638661.827078,0.8318473,-0.79394877,-0.47063723,-2.984447,0.7480588,5.532596
934,1747638661.841627,1.0004852,-0.79809535,-0.32200047,-3.1682358,0.5990121,5.497167
935,1747638661.8571422,1.1598543,-0.7646788,-0.12384869,-3.1570113,-0.20127417,5.208236
936,1747638661.857665,1.2808979,-0.7602883,0.10872585,-3.1570113,-0.20127417,5.208236
937,1747638661.872755,1.3538595,-0.7280608,0.25370383,-2.9034333,-0.4651602,5.075072
938,1747638661.872755,1.3538595,-0.7280608,0.25370383,-2.9034333,-0.4651602,5.075072
939,1747638661.8878934,1.3970633,-0.76614225,0.33227548,-2.3906271,-0.769973,4.7543006
940,1747638661.903106,1.2008322,-0.82837147,0.2637044,-1.9052325,-1.2207782,4.2277503
941,1747638661.904108,1.2008322,-0.82837147,0.2637044,-1.9052325,-1.2207782,4.2277503
942,1747638661.9182792,1.0260965,-0.83446944,0.2476059,-1.8572811,-1.4412941,4.1037483
943,1747638661.9343483,0.8999306,-0.8464213,0.23855051,-1.8379631,-1.581789,4.092142
944,1747638661.935419,0.8755389,-0.86889213,0.18952326,-1.8379631,-1.581789,4.092142
945,1747638661.949523,0.8491654,-0.8874298,0.119946025,-1.9065306,-1.561631,4.2949433
946,1747638661.9645205,0.8606295,-0.9691724,0.18534619,-2.209282,-1.5726262,4.593648
947,1747638661.9655218,0.8865151,-0.9757581,0.3064203,-2.209282,-1.5726262,4.593648
948,1747638661.9796834,0.9343533,-0.98091084,0.5714358,-2.001212,-2.1669807,4.7023787
949,1747638661.9956899,0.95557404,-0.8364208,0.7637641,-1.232308,-2.6917748,4.8935738
950,1747638661.9966943,0.95557404,-0.8364208,0.7637641,-1.232308,-2.6917748,4.8935738
951,1747638662.0109856,0.9331337,-0.73684174,0.69174767,-0.86969376,-2.9495523,4.9302244
952,1747638662.026755,0.8740754,-0.52307934,0.20489,-0.8709155,-2.6129756,5.2387786
953,1747638662.0278227,0.8740754,-0.52307934,0.20489,-0.8709155,-2.6129756,5.2387786
954,1747638662.042737,0.88358814,-0.47865596,-0.039392542,-2.072223,-1.0320264,5.9876776
955,1747638662.0438645,0.88358814,-0.47865596,-0.039392542,-2.072223,-1.0320264,5.9876776
956,1747638662.0574296,1.0780813,-0.5506419,0.23220867,-2.5763247,-0.8622109,6.2637806
957,1747638662.0726597,1.379989,-0.61116374,0.49164456,-2.68475,-1.2366602,6.337693
958,1747638662.0736668,1.379989,-0.61116374,0.49164456,-2.68475,-1.2366602,6.337693
959,1747638662.087968,1.8090079,-0.6138468,0.875295,-2.3669567,-3.0643916,5.6950817
960,1747638662.1038878,1.9351739,-0.50060844,0.7998637,-1.3040062,-3.7955759,4.676723
961,1747638662.1049743,1.9351739,-0.50060844,0.7998637,-1.3040062,-3.7955759,4.676723
962,1747638662.1193032,1.9617912,-0.51966447,0.6402508,-0.9438354,-3.6239278,4.336481
963,1747638662.134811,2.0198739,-0.4979254,0.47039333,-0.776845,-3.6929533,4.204538
964,1747638662.1359048,2.0198739,-0.4979254,0.47039333,-0.776845,-3.6929533,4.204538
965,1747638662.150131,2.0701513,-0.4706067,0.39060205,-1.0148463,-4.0814524,4.376186
966,1747638662.1655169,2.0899084,-0.42740297,0.41941473,-1.2603306,-3.83467,4.6669493
967,1747638662.166517,2.0950308,-0.46889934,0.5494833,-1.2603306,-3.83467,4.6669493
968,1747638662.1810257,2.0921037,-0.5272259,0.69199157,-1.4448065,-2.9367247,5.2094584
969,1747638662.1963131,2.6858578,-0.5567398,0.72763395,-0.83541,-2.799284,5.690806
970,1747638662.1973557,2.6858578,-0.5567398,0.72763395,-0.83541,-2.799284,5.690806
971,1747638662.212182,3.3862948,-0.40910926,0.4642954,-0.65162134,-3.1798418,5.582075
972,1747638662.2131846,3.3862948,-0.40910926,0.4642954,-0.65162134,-3.1798418,5.582075
973,1747638662.227957,3.9629753,-0.26657042,0.2756563,-1.2610178,-2.878694,4.857534
974,1747638662.2437828,3.604692,-0.1282087,0.75373304,-1.7881026,-2.1474335,4.401231
975,1747638662.2448559,3.604692,-0.1282087,0.75373304,-1.7881026,-2.1474335,4.401231
976,1747638662.259831,2.9582214,0.06777835,1.8453516,-1.4012072,-1.4974921,4.7995033
977,1747638662.2753627,3.0973454,0.15927759,2.4227939,0.2462478,-1.417471,5.4000425
978,1747638662.276373,3.0973454,0.15927759,2.4227939,0.2462478,-1.417471,5.4000425
979,1747638662.2906613,4.1323447,0.51146275,1.7362903,1.5384952,-1.0082034,4.8972387
980,1747638662.3059294,4.4693766,1.1205837,1.2789466,1.2880478,-0.85426986,3.8911734
981,1747638662.3070085,4.737807,1.5276501,1.1037229,0.77401984,-0.34360158,3.1917534
982,1747638662.3208506,5.0711803,1.9725542,1.3223637,-0.10888352,0.60267717,2.2332575
983,1747638662.3364825,5.5051074,1.973042,2.745404,-0.30206397,2.4792,-0.1692047
984,1747638662.337514,5.5051074,1.973042,2.745404,-0.30206397,2.4792,-0.1692047
985,1747638662.3524952,5.578069,1.6260095,2.9028218,0.64192414,2.466983,-1.5497959
986,1747638662.3534966,5.578069,1.6260095,2.9028218,0.64192414,2.466983,-1.5497959
987,1747638662.3677087,5.2195725,0.9636538,2.3295565,1.8955353,2.2996109,-3.937674
988,1747638662.3836153,4.3126907,0.16122891,2.148235,2.2618911,2.9624565,-5.245498
989,1747638662.3846915,4.3126907,0.16122891,2.148235,2.2618911,2.9624565,-5.245498
990,1747638662.3993564,4.227015,-0.11207971,2.2155867,2.5379176,3.208628,-5.3994317
991,1747638662.4149435,4.28461,-0.33709285,2.2765963,2.822038,3.3625615,-5.509384
992,1747638662.4160357,4.4205627,-0.55869114,2.3334594,2.822038,3.3625615,-5.509384
993,1747638662.4305131,4.6328616,-0.97697777,2.246076,4.1342907,3.2501655,-6.4684906
994,1747638662.4457436,4.5613637,-1.2005273,2.0589006,4.822792,3.032093,-7.1410336
995,1747638662.446813,4.345132,-1.3608721,1.7706827,4.822792,3.032093,-7.1410336
996,1747638662.4609563,4.0674324,-1.4875258,1.2943133,5.805416,2.2623491,-8.343257
997,1747638662.4763,3.5241692,-1.5656402,0.51335317,5.4521174,1.9050035,-8.914399
998,1747638662.4773,3.5241692,-1.5656402,0.51335317,5.4521174,1.9050035,-8.914399
999,1747638662.4919503,2.7415016,-1.5417058,0.10726235,4.7019205,1.9758618,-8.870419
