id,timestamp,acc_x,acc_y,acc_z,gyro_x,gyro_y,gyro_z
0,1747638666.3701658,0.041130446,0.53585446,0.8948083,-0.15752223,-0.30023143,0.05314371
1,1747638666.3931563,-0.0521067,0.5016756,0.75666,-0.0827698,-0.6423059,0.025655584
2,1747638666.3931818,-0.0521067,0.5016756,0.75666,-0.042835664,-0.8805363,0.13499725
3,1747638666.407916,0.056009363,0.48947978,0.7581235,-0.01733279,-0.97155255,0.16309622
4,1747638666.423715,0.2063535,0.48216227,0.7293414,0.026266431,-0.8371662,-0.012827792
5,1747638666.4238482,0.2063535,0.48216227,0.7293414,0.026266431,-0.8371662,-0.012827792
6,1747638666.4390264,0.14656343,0.45777062,0.7730329,0.060550235,-0.7345438,-0.32810134
7,1747638666.4405425,0.14656343,0.45777062,0.7730329,0.060550235,-0.7345438,-0.32810134
8,1747638666.4538772,0.026739366,0.471186,0.69272333,0.092314295,-0.8842014,-0.47409382
9,1747638666.4691935,-0.011586042,0.49704117,0.61585915,0.18768282,-1.3521104,-0.6903338
10,1747638666.4701955,-0.011586042,0.49704117,0.61585915,0.18768282,-1.3521104,-0.6903338
11,1747638666.484665,-0.013049542,0.50118774,0.44673342,-0.088954635,-1.3105727,-0.09590302
12,1747638666.4999363,-0.050856624,0.54341584,0.36084422,-0.2578539,-0.9422319,0.46851984
13,1747638666.5010478,-0.050856624,0.54341584,0.36084422,-0.2578539,-0.9422319,0.46851984
14,1747638666.5152552,-0.0071955416,0.45655105,0.51213354,-0.4298074,-0.8176191,0.9535326
15,1747638666.5304863,0.06872352,0.31889054,0.5587521,-0.77623415,-1.4284663,1.2247487
16,1747638666.5314863,0.06872352,0.31889054,0.5587521,-0.77623415,-1.4284663,1.2247487
17,1747638666.5457342,0.48554665,0.42432353,0.6690634,-0.89275324,-2.7895103,0.6810947
18,1747638666.5610924,0.57805204,0.37916848,0.62415224,-0.91703445,-3.0222433,0.5051707
19,1747638666.5620954,0.57805204,0.37916848,0.62415224,-0.91703445,-3.0222433,0.5051707
20,1747638666.5764787,0.6175665,0.32693982,0.5714358,-0.9943066,-1.8249062,0.3268033
21,1747638666.5916386,0.55192244,0.37038746,0.646867,-0.9457443,-1.2824738,0.01343864
22,1747638666.592736,0.55192244,0.37038746,0.646867,-0.87526774,-1.4553436,-0.2858765
23,1747638666.6075082,0.32325056,0.38453463,0.46161228,-0.9600228,-2.049087,-0.44599485
24,1747638666.622663,0.21050009,0.38063195,0.2837056,-1.3164521,-2.898852,-0.33115557
25,1747638666.6237166,0.21050009,0.38063195,0.2837056,-1.3164521,-2.898852,-0.33115557
26,1747638666.63802,0.20147517,0.29498672,0.19123067,-1.7700826,-3.2830749,0.015882028
27,1747638666.6538198,0.23858099,0.20589617,0.17363818,-2.0442004,-3.2800207,0.23700874
28,1747638666.6548862,0.23858099,0.20589617,0.17363818,-2.0442004,-3.2800207,0.23700874
29,1747638666.6691206,0.3971878,0.08290118,0.25077683,-2.3482497,-3.0973773,0.41904122
30,1747638666.6701224,0.3971878,0.08290118,0.25077683,-2.3482497,-3.0973773,0.41904122
31,1747638666.684472,0.43161055,-0.13089179,0.33764166,-2.2348611,-2.8121116,-0.03970507
32,1747638666.7004664,0.4057249,-0.22263494,0.37328398,-2.0516832,-2.6648974,-0.2003579
33,1747638666.7014716,0.4057249,-0.22263494,0.37328398,-2.0516832,-2.6648974,-0.2003579
34,1747638666.716153,0.21342708,-0.37614998,0.44819686,-1.9756328,-2.6038127,-0.46676368
35,1747638666.7315922,-0.24147749,-0.43203738,0.69906515,-1.8111621,-2.9965875,-0.44171894
36,1747638666.7325923,-0.24147749,-0.43203738,0.69906515,-1.6086663,-3.334386,-0.11361759
37,1747638666.747541,-0.24147749,-0.43203738,0.69906515,-1.2965233,-3.5603995,0.4379775
38,1747638666.7627864,-0.28516906,-0.55186146,0.6126882,-1.0043093,-3.522527,1.079978
39,1747638666.763828,-0.28516906,-0.55186146,0.6126882,-1.0043093,-3.522527,1.079978
40,1747638666.77783,0.21245141,-0.63360405,0.42819571,-1.0721897,-3.2103841,2.2973967
41,1747638666.7930381,0.4735947,-0.6436351,0.3105669,-1.4672551,-2.9813163,2.572354
42,1747638666.7941105,0.4735947,-0.6436351,0.3105669,-1.4672551,-2.9813163,2.572354
43,1747638666.8086038,0.86358696,-0.55137366,0.304469,-2.4940894,-2.2567751,2.8392944
44,1747638666.8240907,1.4046247,-0.24510576,0.4223417,-3.9701254,-0.9294041,2.8399053
45,1747638666.825092,1.4046247,-0.24510576,0.4223417,-3.9701254,-0.9294041,2.8399053
46,1747638666.8392484,1.6804029,-0.10842097,0.55777645,-3.9701254,-0.9294041,2.8399053
47,1747638666.839839,1.6804029,-0.10842097,0.55777645,-3.9701254,-0.9294041,2.8399053
48,1747638666.855126,1.8470895,0.22885482,1.0556408,-4.9945164,1.1084588,1.783674
49,1747638666.8706057,2.2697666,0.537074,1.5649694,-4.6636662,0.66864866,0.6927008
50,1747638666.8716764,2.2697666,0.537074,1.5649694,-4.6636662,0.66864866,0.6927008
51,1747638666.8858297,2.4147444,0.8235847,1.9988667,-4.3564863,0.006413896,-0.026266431
52,1747638666.9018378,2.4923406,1.3048322,2.4530394,-3.2155764,-1.3166813,-1.4795485
53,1747638666.9028947,2.6309462,1.3604758,2.3241906,-3.2155764,-1.3166813,-1.4795485
54,1747638666.917191,2.6980844,1.4134362,2.120398,-2.475382,1.6142403,-2.588236
55,1747638666.9329057,2.568961,1.4061186,2.1518939,-2.7196448,3.187859,-3.054389
56,1747638666.9339483,2.568961,1.4061186,2.1518939,-2.7196448,3.187859,-3.054389
57,1747638666.9489222,2.2224164,1.396362,2.8042185,-2.8043997,4.0143356,-3.8008444
58,1747638666.9643652,2.5243242,0.9543849,4.1015806,-0.49394637,1.3790641,-4.373208
59,1747638666.9653676,2.5243242,0.9543849,4.1015806,-0.49394637,1.3790641,-4.373208
60,1747638666.9793696,2.6043591,0.87191063,4.1935983,-0.11392301,1.007058,-4.490491
61,1747638666.979925,2.6043591,0.87191063,4.1935983,-0.11392301,1.007058,-4.490491
62,1747638666.9942312,2.8257136,0.4118838,4.1394186,2.542957,-0.9691092,-5.465403
63,1747638667.0094237,2.9760275,0.12025091,3.5942037,3.9511127,-0.40774053,-5.963931
64,1747638667.0104256,2.9760275,0.12025091,3.5942037,3.9511127,-0.40774053,-5.963931
65,1747638667.0246418,3.3760202,-0.2399835,3.5336819,4.775451,1.3356938,-6.33105
66,1747638667.0407126,3.4050767,-0.4483798,3.452915,5.2377863,1.5116179,-6.5692806
67,1747638667.0417132,3.4050767,-0.4483798,3.452915,5.2377863,1.5116179,-6.5692806
68,1747638667.0563226,3.1497874,-0.6875401,2.647807,5.921935,1.4010545,-6.7824664
69,1747638667.0715837,3.0541415,-0.6197008,2.328093,5.762428,1.1506071,-6.6731243
70,1747638667.0729578,3.0541415,-0.6197008,2.328093,5.762428,1.1506071,-6.6731243
71,1747638667.0866497,3.0971014,-0.67046595,1.9507846,4.9580183,1.1188431,-6.8215604
72,1747638667.101363,2.8808694,-0.8854785,1.3865443,4.3511415,1.6087426,-7.086057
73,1747638667.1023648,2.8808694,-0.8854785,1.3865443,4.3511415,1.6087426,-7.086057
74,1747638667.1166275,1.5561883,-0.8525193,1.358006,3.2862818,1.4047196,-6.8844776
75,1747638667.1325505,1.1715623,-0.847397,1.3602014,3.2881145,0.9997279,-6.3768635
76,1747638667.1335533,1.1715623,-0.847397,1.3602014,3.2881145,0.9997279,-6.3768635
77,1747638667.148569,0.712755,-0.8698678,0.95508623,3.8127558,0.5721348,-5.2992525
78,1747638667.164168,0.6146395,-0.8740144,0.6839423,4.0165496,0.45851722,-4.9431286
79,1747638667.1651697,0.6146395,-0.8740144,0.6839423,4.0165496,0.45851722,-4.9431286
80,1747638667.1794927,0.6866255,-0.8200783,0.015763115,3.8265,0.079715565,-4.5405803
81,1747638667.1805797,0.6866255,-0.8200783,0.015763115,3.8265,0.079715565,-4.5405803
82,1747638667.194824,0.77791125,-0.69659555,-0.39182165,2.359092,0.5605287,-4.654809
83,1747638667.2107682,0.7129989,-0.6721733,-0.3381295,1.8282659,0.9526926,-4.722002
84,1747638667.211809,0.7129989,-0.6721733,-0.3381295,1.8282659,0.9526926,-4.722002
85,1747638667.2266226,0.44746515,-0.5972604,-0.043081783,1.0101123,1.7779473,-4.6517544
86,1747638667.2417624,0.38304064,-0.5638134,0.017714448,0.89924353,1.939211,-4.546078
87,1747638667.2428186,0.38304064,-0.5638134,0.017714448,0.85747683,1.8182632,-4.282192
88,1747638667.2575176,0.33886123,-0.50060844,0.28590083,0.94162107,1.4725237,-4.1392536
89,1747638667.2728508,0.46112445,-0.4291104,0.19610901,1.0107995,1.0162208,-3.9559996
90,1747638667.2738528,0.46112445,-0.4291104,0.19610901,1.0107995,1.0162208,-3.9559996
91,1747638667.2887223,0.6270793,-0.3924924,0.16388151,0.78333527,1.1286167,-3.6725664
92,1747638667.3034356,0.703974,-0.4010295,0.2712658,0.7602758,1.6001908,-3.3121665
93,1747638667.3046231,0.70982796,-0.40322474,0.39621213,0.7602758,1.6001908,-3.3121665
94,1747638667.3190765,0.70592535,-0.4247199,0.5560691,0.95719767,1.6050775,-3.1899972
95,1747638667.3195999,0.70592535,-0.4247199,0.5560691,0.95719767,1.6050775,-3.1899972
96,1747638667.3343842,0.6280549,-0.48816872,0.7447081,1.854456,1.2746092,-2.920537
97,1747638667.3494227,0.5716797,-0.5335677,0.65979457,2.8127224,0.6008446,-2.7470565
98,1747638667.3504303,0.5716797,-0.5335677,0.65979457,2.8127224,0.6008446,-2.7470565
99,1747638667.3646162,0.56094736,-0.57896674,0.45380697,3.3385856,0.32474166,-2.6444342
100,1747638667.3806982,0.4225856,-0.5721066,-0.1299466,3.5380273,0.5568636,-2.3994844
101,1747638667.3817012,0.4225856,-0.5721066,-0.1299466,3.5380273,0.5568636,-2.3994844
102,1747638667.396376,0.038203448,-0.5333238,-0.5631426,2.4662957,1.9532604,-1.5662887
103,1747638667.4113698,-0.26074693,-0.5171948,-0.77666116,1.8120784,2.7339232,-0.98537296
104,1747638667.4124217,-0.26074693,-0.5171948,-0.77666116,1.8120784,2.7339232,-0.98537296
105,1747638667.426912,-0.94285995,-0.393712,-0.89307034,0.44187164,4.8456984,0.44652936
106,1747638667.4422336,-1.6901292,-0.43813533,-1.0690258,-0.6727719,7.2347984,2.0964277
107,1747638667.4432526,-2.1711633,-0.319043,-0.95603144,-0.6727719,7.2347984,2.0964277
108,1747638667.4576316,-2.1894572,-0.5867721,-0.9131021,-1.9376838,9.614125,5.1086683
109,1747638667.4728477,-1.9219719,-0.7061083,-0.8623369,-2.2902954,9.517,6.027383
110,1747638667.4738495,-1.9219719,-0.7061083,-0.8623369,-2.2902954,9.517,6.027383
111,1747638667.4885597,-0.046953958,-0.63116485,-0.66122764,-2.176296,9.210966,5.814197
112,1747638667.503745,0.38206497,-0.19068186,-0.6414703,-1.0422581,7.929332,4.0237274
113,1747638667.5039923,0.38206497,-0.19068186,-0.6414703,-1.0422581,7.929332,4.0237274
114,1747638667.5196278,0.35279498,0.056558177,-1.4509689,0.8543463,5.376525,1.5729316
115,1747638667.5206282,0.35279498,0.056558177,-1.4509689,0.8543463,5.376525,1.5729316
116,1747638667.5347688,-0.6046084,0.16955258,-2.9865158,1.6145457,3.4187593,0.9620844
117,1747638667.5500543,-0.4591731,0.07338843,-3.517309,1.2506334,3.000329,1.667613
118,1747638667.5511062,-0.4591731,0.07338843,-3.517309,1.2506334,3.000329,1.667613
119,1747638667.5656984,0.5001817,-0.091102876,-3.718906,-0.45531029,2.3881838,2.3212197
120,1747638667.5808392,1.2150099,-0.23803219,-3.285954,-1.7719152,1.8787371,1.9443269
121,1747638667.5818415,1.2150099,-0.23803219,-3.285954,-1.7719152,1.8787371,1.9443269
122,1747638667.595568,1.543962,-0.313189,-2.7358913,-2.599995,1.5684267,1.2021474
123,1747638667.610814,1.4844159,-0.25803334,-1.7391869,-2.9040442,0.8048676,0.563812
124,1747638667.6118493,1.4844159,-0.25803334,-1.7391869,-2.9040442,0.8048676,0.563812
125,1747638667.626055,1.4400231,-0.3588319,-1.7355281,-3.1271563,-1.4559544,0.1368298
126,1747638667.6417823,1.5961907,-0.64119595,-1.817789,-3.9838696,-1.9464648,-0.40995488
127,1747638667.6428626,1.5961907,-0.64119595,-1.817789,-3.9838696,-1.9464648,-0.40995488
128,1747638667.6574194,1.4544141,-1.2476337,-1.4045942,-6.2082696,-1.7522154,-1.7660358
129,1747638667.6731954,0.75547093,-1.9556324,0.12140953,-8.287518,-0.8243384,-2.8509004
130,1747638667.6741974,0.75547093,-1.9556324,0.12140953,-8.287518,-0.8243384,-2.8509004
131,1747638667.6885607,0.69641256,-2.2401917,0.60634637,-8.248881,-0.74553907,-2.8985467
132,1747638667.7037911,0.5821986,-2.3273003,1.0519822,-7.3366575,-1.4021999,-2.7861507
133,1747638667.7051303,0.5821986,-2.3273003,1.0519822,-7.3366575,-1.4021999,-2.7861507
134,1747638667.719445,0.35279498,-2.2013786,1.0529578,-6.1067166,-2.1669807,-2.300527
135,1747638667.7204766,0.35279498,-2.2013786,1.0529578,-6.1067166,-2.1669807,-2.300527
136,1747638667.7343547,0.3559659,-2.0634742,0.84184796,-5.452499,-2.6325226,-1.8149036
137,1747638667.7502058,0.5336287,-2.128173,0.39182165,-4.996349,-3.3197258,-1.3518814
138,1747638667.7512758,0.5336287,-2.128173,0.39182165,-4.996349,-3.3197258,-1.3518814
139,1747638667.7654648,0.4745704,-2.3090067,0.041618284,-6.1160316,-4.155365,-0.95483065
140,1747638667.7815523,0.47896087,-2.3914812,0.1343676,-6.6132617,-4.3410625,-0.73187137
141,1747638667.7825527,0.47896087,-2.3914812,0.1343676,-6.6132617,-4.3410625,-0.73187137
142,1747638667.7969117,0.35986856,-2.4249282,0.61000514,-7.008327,-4.6605353,-0.28037888
143,1747638667.8122213,0.34520307,-2.3544056,1.0056075,-6.127256,-5.1321096,0.74401194
144,1747638667.813224,0.34520307,-2.3544056,1.0056075,-6.127256,-5.1321096,0.74401194
145,1747638667.8275225,0.5189632,-2.4500515,0.9245661,-5.80198,-5.449216,1.2070342
146,1747638667.8426993,0.6436961,-2.5398738,0.9001745,-5.8555818,-5.8926907,1.5692666
147,1747638667.8438501,0.6436961,-2.5398738,0.9001745,-5.8555818,-5.8926907,1.5692666
148,1747638667.8580325,1.1059182,-2.7951326,1.3057774,-6.0755634,-6.443064,2.075659
149,1747638667.873744,1.2252544,-2.7539108,1.7445835,-6.0126457,-6.682516,2.6077833
150,1747638667.874822,1.2252544,-2.7539108,1.7445835,-6.0126457,-6.682516,2.6077833
151,1747638667.8897536,1.4495358,-2.4498076,2.049388,-4.9471755,-6.2103314,3.9143856
152,1747638667.890811,1.4495358,-2.4498076,2.049388,-4.9471755,-6.2103314,3.9143856
153,1747638667.9053962,2.027923,-1.7838235,2.1562843,-4.8337107,-5.75525,5.4281416
154,1747638667.9206147,2.6233847,-1.7286679,2.3605645,-4.9265594,-5.678894,5.685308
155,1747638667.9216144,2.6233847,-1.7286679,2.3605645,-4.9265594,-5.678894,5.685308
156,1747638667.9364524,3.4228826,-1.4104177,2.8789182,-5.9951606,-5.372249,5.1043925
157,1747638667.9511228,3.7718663,-0.55210537,4.6653333,-6.4762025,-2.842654,3.9681401
158,1747638667.952252,3.7718663,-0.55210537,4.6653333,-6.4762025,-2.842654,3.9681401
159,1747638667.9664342,4.074262,-0.5467392,5.285217,-5.894218,-2.1382709,3.7225795
160,1747638667.9825902,4.63335,-0.4510629,6.11057,-4.3994746,-2.0496979,3.252838
161,1747638667.983629,5.0875225,-0.38297966,6.233565,-4.3994746,-2.0496979,3.252838
162,1747638667.997695,5.5399876,0.140496,6.008064,-2.0934498,-1.6557015,1.5466653
163,1747638668.012794,5.653958,0.3547768,5.8804345,-1.7257962,-0.741874,0.5271612
164,1747638668.0137982,5.653958,0.3547768,5.8804345,-1.7257962,-0.741874,0.5271612
165,1747638668.0282452,5.4904423,0.38794947,6.1025205,-1.2622395,0.54403585,-1.2205492
166,1747638668.0434437,3.9529746,0.23129399,6.333632,1.3011047,1.687542,-3.0525565
167,1747638668.0444891,3.9529746,0.23129399,6.333632,1.3011047,1.687542,-3.0525565
168,1747638668.0586293,3.64131,0.07851068,5.9314437,3.0538545,2.2318068,-3.2425299
169,1747638668.0741243,3.4558418,-0.21726878,5.0753264,4.2508097,2.4199479,-3.4349468
170,1747638668.0752254,3.3408961,-0.46475273,4.36809,5.4327993,2.2928915,-3.8594856
171,1747638668.0895758,3.22156,-0.9813987,3.2105532,6.136877,1.6331764,-4.5637927
172,1747638668.090653,3.22156,-0.9813987,3.2105532,6.136877,1.6331764,-4.5637927
173,1747638668.1044033,2.8081212,-1.2244617,2.439868,6.125653,0.51715857,-5.602233
174,1747638668.1197665,2.6561,-1.2242178,2.0230448,6.058383,0.75905406,-5.8399286
175,1747638668.120773,2.6561,-1.2242178,2.0230448,6.058383,0.75905406,-5.8399286
176,1747638668.1349986,2.385932,-1.2451947,1.1273829,5.2358775,2.2171464,-6.034789
177,1747638668.1504364,2.109422,-1.1875998,0.9958508,4.5897536,3.2617717,-5.92728
178,1747638668.1518288,2.109422,-1.1875998,0.9958508,4.5897536,3.2617717,-5.92728
179,1747638668.165869,2.0618277,-1.2622688,1.1381152,4.5317993,4.261729,-5.630332
180,1747638668.181869,2.2461066,-1.4880137,1.1146992,5.7680016,3.7473953,-6.072051
181,1747638668.1828732,2.2461066,-1.4880137,1.1146992,5.7680016,3.7473953,-6.072051
182,1747638668.197184,2.1577477,-1.6125026,0.8603856,6.368006,3.321024,-6.551566
183,1747638668.2131596,2.0684438,-1.7127829,0.5465563,6.723214,2.916643,-6.982213
184,1747638668.2141666,1.9805728,-1.7559866,0.31325,6.772998,2.6594,-7.258927
185,1747638668.228158,1.8536752,-1.8126059,0.0123177925,6.3748784,2.3558087,-7.60711
186,1747638668.2434285,1.52079,-1.6740001,-0.21684194,5.311317,2.2580733,-7.4721127
187,1747638668.2445266,1.52079,-1.6740001,-0.21684194,5.311317,2.2580733,-7.4721127
188,1747638668.258682,1.481001,-1.5985688,-0.18339485,4.4988136,2.2806747,-7.2338824
189,1747638668.2743256,1.391697,-1.4099299,0.114823766,3.2127512,2.518294,-6.679844
190,1747638668.2753837,1.391697,-1.4099299,0.114823766,3.2127512,2.518294,-6.679844
191,1747638668.2901251,1.4316994,-1.3428223,0.51237744,2.9043496,2.4901953,-6.3255525
192,1747638668.2911687,1.4316994,-1.3428223,0.51237744,2.9043496,2.4901953,-6.3255525
193,1747638668.3054085,1.4668539,-1.192722,0.8233102,3.324918,2.0607696,-6.0421195
194,1747638668.3206308,1.41804,-1.1275657,0.82721287,3.592851,1.8915648,-5.9614873
195,1747638668.3216302,1.4046247,-1.0716784,0.7105598,3.9193487,1.4829081,-5.582075
196,1747638668.3360023,1.4434378,-1.0287185,0.64342165,3.9330165,1.2385691,-5.4165354
197,1747638668.3516803,1.386331,-0.983594,0.670283,3.9105678,0.8574005,-5.227173
198,1747638668.3526807,1.386331,-0.983594,0.670283,3.9105678,0.8574005,-5.227173
199,1747638668.3668654,1.037591,-0.9503909,0.7998637,4.1610913,0.0723854,-4.5564623
200,1747638668.3826935,0.7037301,-1.0570434,0.18830366,5.1554747,-0.008246438,-3.6646254
201,1747638668.3836882,0.7037301,-1.0570434,0.18830366,5.1554747,-0.008246438,-3.6646254
202,1747638668.3979108,0.7037301,-1.0570434,0.18830366,5.1554747,-0.008246438,-3.6646254
203,1747638668.4126925,0.10433535,-1.1331758,-0.4293848,5.174182,0.659486,-3.590102
204,1747638668.413227,-0.61899954,-1.1339077,-0.82059664,4.6925287,1.2935455,-3.4764845
205,1747638668.4279654,-1.0585374,-1.2242178,-1.28477,4.113751,1.9618124,-3.2046573
206,1747638668.4431462,-1.4827085,-1.466549,-1.5505478,3.5610104,2.4162827,-3.0079646
207,1747638668.4432096,-1.4827085,-1.466549,-1.5505478,3.5610104,2.4162827,-3.0079646
208,1747638668.4586515,-2.5035303,-1.9153557,-1.59863,2.2008827,2.8305135,-2.5027175
209,1747638668.4738688,-3.2103093,-2.5303612,-1.9895978,2.5304348,2.5732703,-1.2828556
210,1747638668.47496,-3.2103093,-2.5303612,-1.9895978,2.5304348,2.5732703,-1.2828556
211,1747638668.4890633,-3.3811426,-2.5408494,-2.3058662,2.5983915,2.343592,-0.58710057
212,1747638668.4900663,-3.3811426,-2.5408494,-2.3058662,2.5983915,2.343592,-0.58710057
213,1747638668.504308,-3.2364082,-2.704609,-2.934287,2.3055665,2.2770095,0.907719
214,1747638668.5194695,-2.928189,-2.673113,-3.0990222,1.3578371,1.9715859,2.1660643
215,1747638668.5209684,-2.928189,-2.673113,-3.0990222,1.3578371,1.9715859,2.1660643
216,1747638668.5353444,-2.4498382,-2.6128354,-2.9911501,0.4381302,1.7681737,3.1893098
217,1747638668.550414,-1.1764101,-2.3987985,-2.4298368,-1.2429215,1.2666682,4.860588
218,1747638668.5515075,-1.1764101,-2.3987985,-2.4298368,-1.2429215,1.2666682,4.860588
219,1747638668.563057,0.41526812,-1.9966103,-1.4914895,-2.9103055,-0.22021043,5.5307636
220,1747638668.579179,1.0578362,-1.8780059,-1.0680501,-3.5196257,-0.98438036,5.4666247
221,1747638668.5807488,1.0578362,-1.8780059,-1.0680501,-3.5196257,-0.98438036,5.4666247
222,1747638668.5943468,1.4258454,-1.6107953,-0.6531784,-4.148951,-1.2391037,4.737197
223,1747638668.6094174,1.6699146,-1.4245648,-0.21168917,-4.325333,-0.9660549,4.408561
224,1747638668.6104176,1.6699146,-1.4245648,-0.21168917,-4.325333,-0.9660549,4.408561
225,1747638668.624618,1.3970633,-1.4948739,0.23781876,-4.6287713,0.12499462,3.6865396
226,1747638668.6396835,1.1657083,-1.5131675,0.31471348,-4.671149,0.34245625,3.7476244
227,1747638668.640685,1.1657083,-1.5131675,0.31471348,-4.671149,0.34245625,3.7476244
228,1747638668.6549265,0.96508676,-1.5585666,0.24318492,-5.3776703,0.055281676,4.10497
229,1747638668.6704564,1.037591,-1.5768603,0.36523473,-5.711651,0.02107423,4.095807
230,1747638668.6715271,1.037591,-1.5768603,0.36523473,-5.711651,0.02107423,4.095807
231,1747638668.6856287,1.046372,-1.5595422,0.5936627,-6.058078,0.073607095,3.841084
232,1747638668.70072,0.89066166,-1.47533,0.97972184,-5.9123144,0.011300675,3.7738907
233,1747638668.7017217,0.81672454,-1.4421573,1.147628,-5.9123144,0.011300675,3.7738907
234,1747638668.7163584,0.74665946,-1.3926117,1.1361638,-4.972068,-0.769973,3.8911734
235,1747638668.7317405,0.78327745,-1.3967583,1.0924723,-4.701615,-1.0906677,3.9815788
236,1747638668.7327416,0.78327745,-1.3967583,1.0924723,-4.701615,-1.0906677,3.9815788
237,1747638668.7470222,0.8355061,-1.3830991,0.9745995,-4.3683214,-2.0362594,3.9901307
238,1747638668.7622583,0.7788869,-1.4467918,1.0278038,-4.365802,-2.3984919,4.1123
239,1747638668.7632616,0.7788869,-1.4467918,1.0278038,-4.365802,-2.3984919,4.1123
240,1747638668.7775486,0.7369028,-1.4611828,1.0953993,-4.318461,-2.5561666,4.3132687
241,1747638668.7929654,0.9084677,-1.4828913,1.1037229,-4.038082,-2.4931731,5.5973463
242,1747638668.7940655,0.9084677,-1.4828913,1.1037229,-4.038082,-2.4931731,5.5973463
243,1747638668.8084235,1.1879046,-1.4187108,1.0571043,-4.021895,-2.3086972,6.086024
244,1747638668.823812,1.5027401,-1.3264798,1.0495429,-4.0574,-2.0594716,6.323033
245,1747638668.8248138,1.5027401,-1.3264798,1.0495429,-4.0574,-2.0594716,6.323033
246,1747638668.839045,1.8673345,-1.2271448,1.1556772,-4.0399146,-2.1639264,6.1507735
247,1747638668.8396578,1.8673345,-1.2271448,1.1556772,-4.0349517,-3.20733,5.5674148
248,1747638668.8547113,2.0440216,-1.1226875,1.2891911,-4.0611415,-3.7595358,5.469679
249,1747638668.8704576,2.067712,-1.09046,1.3865443,-4.109093,-3.938514,5.6804214
250,1747638668.8715515,2.067712,-1.09046,1.3865443,-4.109093,-3.938514,5.6804214
251,1747638668.88569,2.2094886,-0.8942595,1.560091,-3.968293,-2.858536,6.478799
252,1747638668.9008203,2.947489,-0.793217,1.6440289,-3.7963393,-2.0973442,6.7982717
253,1747638668.9018202,2.947489,-0.793217,1.6440289,-3.7963393,-2.0973442,6.7982717
254,1747638668.9155302,2.947489,-0.793217,1.6440289,-3.7041013,-1.7711517,6.737187
255,1747638668.9315166,3.6923192,-0.61726165,1.6879644,-4.086034,-1.8701088,5.9320903
256,1747638668.9326181,3.854859,-0.49890104,1.7968122,-4.689169,-2.521272,5.393934
257,1747638668.946877,3.9336748,-0.005945469,2.220465,-5.555274,-2.5102768,4.9748163
258,1747638668.9624543,3.9961479,0.26129574,2.664881,-5.8805504,-1.4987137,4.9387765
259,1747638668.9634845,3.9961479,0.26129574,2.664881,-5.8805504,-1.4987137,4.9387765
260,1747638668.97793,4.2379913,0.59930325,3.8072648,-5.6325464,1.01561,4.6376286
261,1747638668.993853,5.039227,1.1339991,5.10167,-3.3314846,0.18424681,2.4880571
262,1747638668.9949906,5.039227,1.1339991,5.10167,-3.3314846,0.18424681,2.4880571
263,1747638669.0093138,5.322048,1.4376144,5.193931,-2.1800375,-0.49387002,1.1832111
264,1747638669.0103145,5.322048,1.4376144,5.193931,-2.1800375,-0.49387002,1.1832111
265,1747638669.024706,5.458977,1.5886598,5.0641065,-1.4809228,-0.44927815,0.22051586
266,1747638669.0398266,5.1380434,1.2057716,5.031391,0.08674031,1.5146722,-1.8778208
267,1747638669.0398266,5.1380434,1.2057716,5.031391,0.08674031,1.5146722,-1.8778208
268,1747638669.0554574,4.372481,-0.14259979,4.603836,3.2775774,2.0656564,-4.105657
269,1747638669.07057,4.096215,-0.6031144,4.1801524,4.3548827,1.1548831,-4.7391057
270,1747638669.0716817,3.875592,-1.0441159,3.4870632,5.4813614,-1.3319525,-5.8044996
271,1747638669.085847,3.691831,-1.250073,2.4435267,5.5331306,-3.2262661,-6.8148413
272,1747638669.1047502,3.635456,-1.117809,1.0553969,3.7585433,-2.3691711,-7.666973
273,1747638669.1047502,3.635456,-1.117809,1.0553969,3.7585433,-2.3691711,-7.666973
274,1747638669.120832,3.1751852,-0.9606353,1.3477615,2.561588,-0.51036286,-7.743329
275,1747638669.1218321,3.1751852,-0.9606353,1.3477615,2.561588,-0.51036286,-7.743329
276,1747638669.1361313,2.938952,-0.9120654,1.7924216,2.4986708,2.1640027,-7.294967
277,1747638669.1515985,3.019231,-1.0235963,1.634516,3.524894,2.5842657,-7.274809
278,1747638669.1526012,3.019231,-1.0235963,1.634516,3.524894,2.5842657,-7.274809
279,1747638669.1670146,3.0578003,-1.2281204,0.80986434,4.8296638,2.427278,-8.063413
280,1747638669.1830757,2.3122387,-1.2896179,-0.1782726,4.906249,2.5176833,-9.181339
281,1747638669.1841483,2.3122387,-1.2896179,-0.1782726,4.906249,2.5176833,-9.181339
282,1747638669.1984305,1.8419673,-1.2215346,-0.36130157,4.5666943,2.4761457,-9.255863
283,1747638669.2135544,1.1427495,-1.0206692,-0.54750144,3.7392251,2.303887,-8.639518
284,1747638669.2146463,1.1427495,-1.0206692,-0.54750144,3.7392251,2.303887,-8.639518
285,1747638669.2294922,0.86431867,-0.83422554,-0.6173226,2.9379463,2.415061,-7.613829
286,1747638669.2304926,0.86431867,-0.83422554,-0.6173226,2.9379463,2.415061,-7.613829
287,1747638669.2448766,1.1996127,-0.7146453,-0.9440795,1.7852775,3.1793072,-6.299286
288,1747638669.2605588,1.4116982,-0.7505316,-1.024389,1.1989405,3.6557682,-6.1441307
289,1747638669.2615616,1.4116982,-0.7505316,-1.024389,1.1989405,3.6557682,-6.1441307
290,1747638669.2751868,1.5005448,-0.86401385,-0.32712275,-0.06215371,4.216526,-6.5961576
291,1747638669.2904139,1.379989,-0.88694197,0.058204614,0.23380178,3.6557682,-6.880202
292,1747638669.2915049,1.379989,-0.88694197,0.058204614,0.23380178,3.6557682,-6.880202
293,1747638669.3058949,1.1774163,-0.94087803,0.36084422,1.4332004,2.4046767,-7.115378
294,1747638669.3214977,0.9858502,-0.9193829,-0.030855458,2.1279628,1.6282897,-7.23938
295,1747638669.3224988,0.9858502,-0.9193829,-0.030855458,2.607707,0.9331455,-7.168522
296,1747638669.336454,0.9338655,-0.7541904,-0.25855166,2.4469779,0.69186085,-6.8979163
297,1747638669.3516748,0.9443538,-0.64778167,-0.33690992,2.145372,0.63077617,-6.5821085
298,1747638669.3526747,0.9443538,-0.64778167,-0.33690992,2.145372,0.63077617,-6.5821085
299,1747638669.367479,1.1081134,-0.466948,-0.1797361,1.2917893,0.88366693,-5.742193
300,1747638669.3828068,1.0893013,-0.5023159,0.17266251,1.1204466,1.019275,-5.4709005
301,1747638669.3838346,1.0893013,-0.5023159,0.17266251,1.1204466,1.019275,-5.4709005
302,1747638669.3980715,0.7981563,-0.80910206,0.8018151,2.3890235,0.5446467,-5.3151345
303,1747638669.4132588,0.2810225,-1.1348833,0.6558919,4.8844876,-0.9623898,-5.0084896
304,1747638669.4142592,0.2810225,-1.1348833,0.6558919,4.8844876,-0.9623898,-5.0084896
305,1747638669.4287176,0.055033702,-1.3093752,0.12945877,5.8552,-1.897597,-4.6572523
306,1747638669.443915,-0.18241918,-1.323309,-0.3456909,5.895745,-2.5475385,-4.3298383
307,1747638669.4452617,-0.36276507,-1.2693728,-0.6836984,5.453339,-2.8200526,-3.9871528
308,1747638669.4591358,-0.6475683,-1.0926857,-1.0529273,4.3037243,-2.5420408,-3.3769164
309,1747638669.4596915,-0.6475683,-1.0926857,-1.0529273,4.3037243,-2.5420408,-3.3769164
310,1747638669.4747536,-1.027316,-1.1146382,-1.402399,0.14530529,1.0217184,-1.5870576
311,1747638669.4907055,-1.3040395,-1.2959597,-1.0182911,-1.7650431,2.7272038,-0.9065737
312,1747638669.4919171,-1.3040395,-1.2959597,-1.0182911,-1.7650431,2.7272038,-0.9065737
313,1747638669.5064216,-1.8902627,-1.7411077,0.46673456,-2.6522987,3.7351782,-0.28465483
314,1747638669.5221179,-2.150156,-1.8553216,1.0988141,1.2163496,1.0852466,-0.22540264
315,1747638669.523198,-2.4220314,-1.8723959,1.2537926,1.2163496,1.0852466,-0.22540264
316,1747638669.537383,-2.595304,-1.956852,0.8520924,3.0152185,-0.12980504,-0.4869216
317,1747638669.552693,-2.88279,-2.1047266,0.0521067,5.577341,-2.867699,-0.77401984
318,1747638669.5537028,-3.2793684,-2.0981407,-1.0617082,5.577341,-2.867699,-0.77401984
319,1747638669.567933,-3.400168,-1.971487,-1.7562611,4.9486265,-3.167014,-0.0659715
320,1747638669.5834534,-3.0648434,-1.6386018,-2.152595,3.56605,-2.7094893,0.9938485
321,1747638669.584534,-3.0648434,-1.6386018,-2.152595,1.949748,-1.4987137,2.255248
322,1747638669.5989163,-2.7654052,-1.5756407,-1.9861524,0.84503084,-0.30206397,3.1593783
323,1747638669.599552,-2.7654052,-1.5756407,-1.9861524,0.84503084,-0.30206397,3.1593783
324,1747638669.6141841,-1.607167,-1.2608054,-1.2786722,-1.5351355,2.5506692,5.105614
325,1747638669.6295755,-1.1193031,-1.0897282,-0.9953324,-1.9339424,2.787067,5.5118275
326,1747638669.630657,-1.1193031,-1.0897282,-0.9953324,-1.9339424,2.787067,5.5118275
327,1747638669.6448588,-0.21925059,-1.0548481,-0.7708072,-2.2641816,2.8384545,5.693249
328,1747638669.6605797,0.37572315,-1.078996,-0.58094853,-2.5713615,2.9942205,5.2320595
329,1747638669.661581,0.37572315,-1.078996,-0.58094853,-2.7494998,2.7937863,4.8850217
330,1747638669.67623,0.5153045,-1.1085403,-0.4045053,-2.7494998,2.7937863,4.8850217
331,1747638669.6919558,0.60341936,-1.0814351,-0.1326297,-2.84609,1.5537664,4.5026317
332,1747638669.6930947,0.58512557,-1.0399692,-0.04235003,-2.7575936,0.81280863,4.39329
333,1747638669.7069273,0.48871753,-1.0177423,0.08335852,-2.4734733,0.12743801,4.4659805
334,1747638669.7220724,0.3383734,-0.997985,0.08189502,-2.2841105,-0.024128467,4.6583977
335,1747638669.7230716,0.3383734,-0.997985,0.08189502,-2.2841105,-0.024128467,4.6583977
336,1747638669.7373452,0.29029134,-1.0084735,0.07701669,-2.0909302,-0.14263284,5.5038867
337,1747638669.752799,0.7986442,-1.138542,-0.086498946,-2.451712,0.21417832,6.7188616
338,1747638669.7538018,0.7986442,-1.138542,-0.086498946,-2.451712,0.21417832,6.7188616
339,1747638669.7679324,1.0392985,-1.2913253,-0.068693034,-2.8379965,0.6515449,7.045054
340,1747638669.7828887,1.1400665,-1.3911483,0.035764284,-3.1495285,0.9001598,7.168445
341,1747638669.7839322,1.1720501,-1.5229242,0.2476059,-3.1495285,0.9001598,7.168445
342,1747638669.7977993,1.1315295,-1.7040019,0.6202496,-3.5700967,0.12499462,7.3571973
343,1747638669.8130393,1.1466522,-1.75745,0.76473975,-3.3389676,-0.5635066,7.421336
344,1747638669.8140423,1.1466522,-1.75745,0.76473975,-3.3389676,-0.5635066,7.421336
345,1747638669.8290613,1.2413529,-1.8160206,0.73519534,-2.7788205,-0.845718,7.5074654
346,1747638669.830063,1.2413529,-1.8160206,0.73519534,-2.7788205,-0.845718,7.5074654
347,1747638669.844318,1.0968933,-1.8667858,0.598785,-2.5327253,-0.16584504,7.7903643
348,1747638669.860422,1.1852217,-1.982951,0.4911567,-2.7034574,0.03939965,7.966288
349,1747638669.861422,1.1852217,-1.982951,0.4911567,-2.7034574,0.03939965,7.966288
350,1747638669.87594,1.3633722,-2.0949697,0.6080538,-3.0461426,0.098651834,7.972397
351,1747638669.8910606,1.5446938,-2.1779318,0.7522695,-3.4224246,-0.5971032,7.7451615
352,1747638669.8921795,1.5446938,-2.1779318,0.7522695,-3.5271084,-1.80597,7.4329424
353,1747638669.9064171,1.818033,-2.1323197,1.3941362,-3.1489177,-2.285485,7.2405252
354,1747638669.922132,1.7553158,-1.8665417,1.3567865,-2.6404636,-2.3160274,7.181273
355,1747638669.9232092,1.9561812,-2.070578,1.4639269,-2.6404636,-2.3160274,7.181273
356,1747638669.9377904,2.1316488,-1.7764757,1.123968,-1.2547566,-1.9525733,7.12141
357,1747638669.9537423,2.298823,-1.674732,0.7720573,-1.1631296,-1.4877185,7.1886034
358,1747638669.954817,2.298823,-1.674732,0.7720573,-1.1631296,-1.4877185,7.1886034
359,1747638669.9693205,2.6211896,-1.3655065,0.39450473,-2.1401796,0.102316916,7.5758805
360,1747638669.9708374,2.6211896,-1.3655065,0.39450473,-2.1401796,0.102316916,7.5758805
361,1747638669.9850338,2.919896,-1.1419569,0.46185625,-3.6243095,0.54709005,7.2802305
362,1747638670.000452,3.2332678,-1.1790627,0.56363046,-4.1844563,0.1414875,6.8593564
363,1747638670.0014565,3.2332678,-1.1790627,0.56363046,-4.1844563,0.1414875,6.8593564
364,1747638670.0163987,3.4053206,-1.0541164,1.2125403,-4.781407,-0.9037485,5.9950075
365,1747638670.0320594,3.379435,-0.9664893,1.4148691,-4.827526,-1.07784,5.95347
366,1747638670.0330606,3.5231931,-0.8230053,1.6078987,-5.0256696,-0.44805646,6.397556
367,1747638670.046862,3.8111675,-0.69781506,1.6032643,-5.443107,0.91787434,7.0047383
368,1747638670.0623775,4.268999,-0.7151332,1.6982088,-6.2824116,2.920308,7.520904
369,1747638670.0634594,4.268999,-0.7151332,1.6982088,-6.2824116,2.920308,7.520904
370,1747638670.0775626,5.0782533,-1.0599704,3.5122173,-8.4040365,6.305089,7.0902567
371,1747638670.0928216,5.182955,-0.9108458,5.0848393,-8.21643,6.8279743,6.0444865
372,1747638670.0938811,5.182955,-0.9108458,5.0848393,-8.21643,6.8279743,6.0444865
373,1747638670.1089394,5.6749654,-0.79175353,7.845732,-3.6368318,2.9313033,2.331604
374,1747638670.124201,5.0494714,-0.5894551,6.277988,3.525505,-0.2275406,-1.712892
375,1747638670.1252024,5.0494714,-0.5894551,6.277988,3.525505,-0.2275406,-1.712892
376,1747638670.1393914,4.6836267,-0.9730751,4.984285,4.8963227,0.9685747,-2.5705216
377,1747638670.1404696,4.6836267,-0.9730751,4.984285,4.8963227,0.9685747,-2.5705216
378,1747638670.1550171,4.0544744,-1.7018065,3.924162,5.163645,2.7620223,-2.896714
379,1747638670.1702688,3.8321445,-2.2406795,3.9522126,4.9286976,4.924498,-3.1771693
380,1747638670.1713047,3.8321445,-2.2406795,3.9522126,4.9286976,4.924498,-3.1771693
381,1747638670.1862142,3.6661894,-3.378886,4.4600773,6.349299,3.427922,-4.558295
382,1747638670.2018225,3.5066073,-3.5219126,4.3370824,7.3325343,2.8219616,-5.0310907
383,1747638670.2028308,3.5066073,-3.5219126,4.3370824,7.3325343,2.8219616,-5.0310907
384,1747638670.2164032,3.4736476,-3.8647988,2.9633436,9.64482,2.0680997,-6.0525036
385,1747638670.232433,3.4382799,-3.9192226,2.3014758,9.890915,1.911112,-6.618759
386,1747638670.2334373,3.4382799,-3.9192226,2.3014758,9.890915,1.911112,-6.618759
387,1747638670.247593,2.9802043,-3.7137227,1.2696472,9.340771,1.7303013,-7.5961146
388,1747638670.2623582,2.730769,-3.567068,0.99146026,8.938833,1.8292584,-7.797694
389,1747638670.2634015,2.3412647,-3.2739713,0.6346407,8.103347,2.210427,-7.9045925
390,1747638670.2777426,2.037436,-3.0250242,0.42624438,7.5400696,2.3723016,-7.8416753
391,1747638670.2931356,1.697721,-2.7377818,0.2712658,7.0384874,2.4425492,-7.6938505
392,1747638670.294192,1.5420107,-2.5872242,0.23147692,7.0384874,2.4425492,-7.6938505
393,1747638670.3087955,1.4077955,-2.4566374,0.20586567,6.468949,2.1383471,-7.4788322
394,1747638670.3247304,1.1434814,-2.1054583,0.16168626,6.2346888,0.9453625,-7.4244666
395,1747638670.3257318,1.1434814,-2.1054583,0.16168626,6.2346888,0.9453625,-7.4244666
396,1747638670.340513,1.0812521,-1.9853902,0.0696687,6.1605473,0.3302393,-7.4696693
397,1747638670.3415136,1.0812521,-1.9853902,0.0696687,6.1605473,0.3302393,-7.4696693
398,1747638670.355779,1.0221938,-1.7823601,-0.17998001,5.594139,-0.38636088,-7.6498694
399,1747638670.3709753,1.046372,-1.6476266,-0.32736665,4.9012856,-0.36803547,-7.671249
400,1747638670.3720503,1.046372,-1.6476266,-0.32736665,4.9012856,-0.36803547,-7.671249
401,1747638670.386573,0.8572146,-1.42115,-0.15214302,3.7666368,-0.018630842,-7.486773
402,1747638670.4016957,0.7537635,-1.217876,0.16558893,3.4302127,0.09498675,-7.2277737
403,1747638670.402701,0.7537635,-1.217876,0.16558893,3.4302127,0.09498675,-7.2277737
404,1747638670.4169502,0.7849848,-1.1463474,0.1651011,3.3324008,-0.24220094,-6.5705023
405,1747638670.4324028,0.82940817,-1.0814351,0.09287128,3.3005605,-0.46088424,-6.390302
406,1747638670.4334073,0.82940817,-1.0814351,0.09287128,3.3005605,-0.46088424,-6.390302
407,1747638670.4479396,0.9333776,-1.0746055,-0.050155364,3.1143284,-0.6875086,-6.315168
408,1747638670.4633136,0.8194075,-1.1029302,0.050887115,2.7223935,-1.0411892,-6.193609
409,1747638670.464445,0.8194075,-1.1029302,0.050887115,2.7223935,-1.0411892,-6.193609
410,1747638670.4788542,0.6976322,-1.1346394,0.17436993,2.829521,-1.141979,-5.8087754
411,1747638670.4804337,0.6976322,-1.1346394,0.17436993,2.829521,-1.141979,-5.8087754
412,1747638670.4948928,0.42648828,-0.9535617,0.25077683,3.3223982,-1.0906677,-5.033534
413,1747638670.5100248,0.31544524,-0.80346155,0.088968605,3.9205704,-0.78890926,-4.061065
414,1747638670.5110557,0.304469,-0.8359329,-0.10848194,4.1479583,-0.62336963,-3.5204654
415,1747638670.5254645,0.304469,-0.8359329,-0.10848194,4.1479583,-0.62336963,-3.5204654
416,1747638670.5415778,0.23589791,-0.895723,-0.4320679,3.9529452,-0.90435934,-2.9657397
417,1747638670.542578,0.038691282,-0.95234215,-0.58680254,3.3747785,-1.2146698,-2.8826647
418,1747638670.5567806,-0.2885839,-1.0956126,-0.5074991,2.9572642,-1.2940799,-2.7617168
419,1747638670.5720594,-0.84181744,-1.2964475,-0.28443733,2.7360613,-1.5775131,-2.7146816
420,1747638670.5731735,-0.84181744,-1.2964475,-0.28443733,2.7360613,-1.5775131,-2.7146816
421,1747638670.5876303,-1.7457726,-1.8889822,0.12384869,3.2046573,-2.3532891,-3.0293443
422,1747638670.6030164,-2.9159935,-2.799767,0.31764048,5.343692,-4.175523,-4.082445
423,1747638670.603074,-2.9159935,-2.799767,0.31764048,5.343692,-4.175523,-4.082445
424,1747638670.618219,-3.4235837,-2.9545016,0.055277612,6.128783,-5.1889186,-3.670734
425,1747638670.633832,-3.6608233,-2.7009501,-0.730317,6.233467,-5.3380413,-1.5949986
426,1747638670.6344051,-3.6608233,-2.7009501,-0.730317,6.233467,-5.3380413,-1.5949986
427,1747638670.6495528,-3.3328164,-2.3763583,-1.2664763,4.9604616,-3.7448754,0.6456655
428,1747638670.6506083,-3.3328164,-2.3763583,-1.2664763,4.9604616,-3.7448754,0.6456655
429,1747638670.6646519,-3.1622272,-2.1754928,-1.3377305,3.6195755,-2.9300053,2.0322888
430,1747638670.679923,-2.456942,-1.4853306,-1.3060213,1.2905675,-1.6984608,4.2662334
431,1747638670.6809583,-2.456942,-1.4853306,-1.3060213,1.2905675,-1.6984608,4.2662334
432,1747638670.6947687,-1.3680067,-1.012864,-0.99313724,-1.6342455,0.9019923,5.8807793
433,1747638670.7104979,-0.85355586,-1.004083,-0.8018151,-2.6952872,2.227531,6.2833276
434,1747638670.711553,-0.85355586,-1.004083,-0.8018151,-2.6952872,2.227531,6.2833276
435,1747638670.7256124,-0.242941,-1.0126201,-0.43450707,-4.254933,3.7858787,6.1593256
436,1747638670.7407763,-0.12848312,-1.1414691,0.2546795,-5.056212,4.3612967,5.5973463
437,1747638670.7417789,-0.12848312,-1.1414691,0.2546795,-5.1340947,4.419938,5.2680993
438,1747638670.7559881,-0.12848312,-1.1414691,0.2546795,-4.7975945,3.8451307,4.4140587
439,1747638670.7708404,-0.35788673,-1.2876666,0.7386102,-4.313498,3.1353264,3.8142066
440,1747638670.7720442,-0.35788673,-1.2876666,0.7386102,-4.313498,3.1353264,3.8142066
441,1747638670.7865946,-0.52432936,-1.2349502,0.9348411,-1.7856592,-0.25686127,2.9119852
442,1747638670.8026483,-0.3939864,-1.2019908,0.71226716,-0.6092438,-1.7259489,2.9559662
443,1747638670.803655,-0.3939864,-1.2019908,0.71226716,-0.6092438,-1.7259489,2.9559662
444,1747638670.817581,-0.02134271,-1.1549149,0.10726235,0.53785104,-2.7510269,3.4715214
445,1747638670.8330426,0.2751685,-1.0626535,-0.15973492,0.66994673,-2.4284232,3.957145
446,1747638670.8340476,0.2751685,-1.0626535,-0.15973492,0.66994673,-2.4284232,3.957145
447,1747638670.848185,0.32081142,-1.0294503,-0.047228362,0.5571691,-1.6233265,5.544813
448,1747638670.8637261,0.5921992,-1.0323772,-0.11140894,0.6917845,-1.5188717,6.128783
449,1747638670.8647382,0.5921992,-1.0323772,-0.11140894,0.6917845,-1.5188717,6.128783
450,1747638670.8784387,1.1859534,-1.09046,-0.4257261,0.39888325,-1.0760075,7.4463806
451,1747638670.893683,1.7809577,-1.1805261,-0.45502654,-0.8990145,-0.2702999,8.312638
452,1747638670.8947692,1.7809577,-1.1805261,-0.45502654,-0.8990145,-0.2702999,8.312638
453,1747638670.9094288,1.8478212,-1.2388527,-0.3605698,-1.4367127,-0.0503949,8.553312
454,1747638670.9104295,1.8478212,-1.2388527,-0.3605698,-1.4367127,-0.0503949,8.553312
455,1747638670.924767,2.1648214,-1.5927149,0.17436993,-2.1601086,-0.00335966,8.759779
456,1747638670.9404604,2.3324838,-1.5988127,0.8838321,-1.765654,-0.617872,8.431754
457,1747638670.9414632,2.4618204,-1.5756407,1.129822,-0.96437514,-1.0644014,8.137937
458,1747638670.9556267,2.4618204,-1.5756407,1.129822,-0.96437514,-1.0644014,8.137937
459,1747638670.9717314,2.590456,-1.2991307,0.7249508,2.7423224,-2.663065,5.8807793
460,1747638670.9727318,2.590456,-1.2991307,0.7249508,2.7423224,-2.663065,5.8807793
461,1747638670.9878364,2.2651322,-1.1434203,0.29029134,3.1323483,-2.6331334,5.5240445
462,1747638671.0036108,1.923222,-0.9870088,-0.06796128,2.9516902,-2.1046743,5.652933
463,1747638671.0046837,1.923222,-0.9870088,-0.06796128,2.9516902,-2.1046743,5.652933
464,1747638671.0190651,1.5915563,-0.8366647,-0.40279788,1.5609438,-0.2959555,6.649225
465,1747638671.019746,1.5915563,-0.8366647,-0.40279788,1.5609438,-0.2959555,6.649225
466,1747638671.035009,1.6738172,-1.0502137,-0.061863367,-0.8428929,1.8371994,8.122665
467,1747638671.0498397,1.7721461,-1.0724101,0.10457927,-1.3556992,1.8017703,8.321191
468,1747638671.0509086,1.7721461,-1.0724101,0.10457927,-1.3556992,1.8017703,8.321191
469,1747638671.065669,2.293457,-0.9625866,0.35962465,-1.910883,1.1212865,8.437862
470,1747638671.080579,2.613872,-0.8830393,0.2580943,-2.0772624,0.8390751,8.133049
471,1747638671.0815835,2.613872,-0.8830393,0.2580943,-2.0772624,0.8390751,8.133049
472,1747638671.0959008,2.9980104,-0.8617881,0.1475391,-2.4660668,0.7694385,7.5868754
473,1747638671.1114001,2.9777346,-0.79175353,0.49896204,-3.3439307,0.50799584,6.265613
474,1747638671.112441,2.9777346,-0.79175353,0.49896204,-3.3439307,0.50799584,6.265613
475,1747638671.1270506,2.5645704,-0.8681604,1.273306,-3.4006631,0.024128467,5.3493423
476,1747638671.142216,2.5142932,-0.7549221,1.4112103,-3.160142,-0.27579755,5.4599056
477,1747638671.143354,2.5142932,-0.7549221,1.4112103,-3.160142,-0.27579755,5.4599056
478,1747638671.1581323,3.024841,-0.6748565,1.3252907,-2.6990287,-0.266024,5.824581
479,1747638671.1728985,4.215795,-0.33855635,1.2730621,-3.6504996,0.74439377,5.8392415
480,1747638671.1738987,4.215795,-0.33855635,1.2730621,-3.6504996,0.74439377,5.8392415
481,1747638671.1885083,4.557705,-0.13942887,1.7050385,-4.422534,0.8964947,5.2723756
482,1747638671.2037153,4.56673,0.12634884,2.2512288,-4.413753,1.0272161,4.104359
483,1747638671.2054992,4.4249535,0.6161335,3.358702,-4.413753,1.0272161,4.104359
484,1747638671.2191265,4.3017144,1.0625011,4.133046,-3.603159,1.1499963,3.9876873
485,1747638671.2196712,4.3017144,1.0625011,4.133046,-3.603159,1.1499963,3.9876873
486,1747638671.2338438,4.3846765,1.2980026,4.4073606,-1.8635423,1.6741033,4.0145645
487,1747638671.2490916,4.577218,0.6910769,3.965902,-0.9126822,3.652714,4.159335
488,1747638671.250096,4.577218,0.6910769,3.965902,-0.9126822,3.652714,4.159335
489,1747638671.2647858,5.0592284,-1.2127537,5.236647,-0.51021016,7.893903,3.2766612
490,1747638671.2806175,4.947941,-2.0085928,6.298965,1.1808441,7.5231185,1.4532056
491,1747638671.2816222,4.947941,-2.0085928,6.298965,1.1808441,7.5231185,1.4532056
492,1747638671.2959156,4.0600843,-3.0047789,6.0568776,6.4870453,2.071765,-2.009153
493,1747638671.3107429,3.4773064,-3.2825089,4.2765603,9.00679,-1.2788087,-3.6481326
494,1747638671.3117433,3.4773064,-3.2825089,4.2765603,9.00679,-1.2788087,-3.6481326
495,1747638671.3262367,3.4262977,-3.397942,2.1277156,8.873473,-0.44683477,-5.0188737
496,1747638671.3414629,3.35358,-3.389405,1.8927019,8.256594,0.74317205,-5.21801
497,1747638671.3425438,3.35358,-3.389405,1.8927019,8.256594,0.74317205,-5.21801
498,1747638671.3573885,2.9040415,-3.3593729,2.0179226,7.395528,2.9465744,-5.437304
499,1747638671.3735025,2.827665,-3.3889174,1.9422474,7.671478,2.9093127,-5.656064
500,1747638671.3745074,2.827665,-3.3889174,1.9422474,7.671478,2.9093127,-5.656064
501,1747638671.3887298,2.4781933,-3.2922652,1.5757017,8.3363085,1.8793479,-6.444057
502,1747638671.4039192,1.976914,-3.0884728,1.0673488,8.854155,-0.53846186,-7.687131
503,1747638671.4049199,1.976914,-3.0884728,1.0673488,8.854155,-0.53846186,-7.687131
504,1747638671.4191816,1.7438518,-2.9435256,0.8010833,8.853467,-1.5756805,-8.308363
505,1747638671.4207299,1.7438518,-2.9435256,0.8010833,8.853467,-1.5756805,-8.308363
506,1747638671.4347012,1.4981058,-2.7683017,0.5011573,8.615466,-2.2592187,-8.8759165
507,1747638671.450414,0.99097246,-2.277511,-0.10921369,7.185549,-2.10162,-9.447059
508,1747638671.4515293,0.99097246,-2.277511,-0.10921369,7.185549,-2.10162,-9.447059
509,1747638671.465676,0.6090294,-1.8152888,-0.2900474,6.336242,-1.4345748,-9.263193
510,1747638671.4811707,0.4984742,-1.6600664,-0.320537,4.7579656,-0.0503949,-8.393957
511,1747638671.4821706,0.4984742,-1.6600664,-0.320537,4.7579656,-0.0503949,-8.393957
512,1747638671.4958603,0.49920595,-1.427004,-0.33934906,3.447011,0.8280798,-7.508764
513,1747638671.5113153,0.5336287,-1.3503836,-0.30370674,2.6713114,1.1029611,-7.118432
514,1747638671.5123162,0.5336287,-1.3503836,-0.30370674,2.6713114,1.1029611,-7.118432
515,1747638671.5267985,0.7293414,-1.2415359,0.009878625,1.9416543,0.84029675,-6.9015813
516,1747638671.542647,0.73373187,-1.1849166,0.38426024,1.7366388,-0.22387552,-6.995041
517,1747638671.543851,0.73373187,-1.1849166,0.38426024,1.7366388,-0.22387552,-6.995041
518,1747638671.5579963,0.5878087,-1.0675318,0.6009802,1.8955353,-0.5775561,-6.8814235
519,1747638671.5733166,0.4665211,-0.9186512,0.6805275,2.223942,-0.78280073,-6.546068
520,1747638671.5743196,0.4665211,-0.9186512,0.6805275,2.223942,-0.78280073,-6.546068
521,1747638671.5886211,0.73129267,-0.8076386,0.44185504,2.9167957,-0.22631891,-5.5747447
522,1747638671.6040292,1.0922589,-0.84520173,0.20074342,2.582204,0.12377293,-5.414703
523,1747638671.6050284,1.0922589,-0.84520173,0.20074342,2.582204,0.12377293,-5.414703
524,1747638671.6192365,1.1383591,-0.87718534,0.267851,2.4114723,0.07605048,-5.4672356
525,1747638671.6198297,1.1383591,-0.87718534,0.267851,2.4114723,0.07605048,-5.4672356
526,1747638671.6352887,0.82916427,-0.8847468,0.72836566,2.8133335,-0.4810422,-5.3328495
527,1747638671.6504395,0.63735425,-0.85373884,0.8013272,3.5485644,-0.7437065,-5.0225387
528,1747638671.6515596,0.45234346,-0.8632821,0.6600385,3.5485644,-0.7437065,-5.0225387
529,1747638671.6654093,0.45234346,-0.8632821,0.6600385,4.924956,-0.961779,-4.169796
530,1747638671.6806197,0.228306,-0.8993817,0.06454645,5.0651455,-0.8255601,-3.7519765
531,1747638671.6816206,0.228306,-0.8993817,0.06454645,5.0651455,-0.8255601,-3.7519765
532,1747638671.6960604,0.10384752,-1.3096191,-0.5384765,4.3237295,0.88305604,-2.3774939
533,1747638671.711864,-0.068693034,-1.4040759,-0.6580567,3.6638618,1.9972415,-1.9413489
534,1747638671.712866,-0.068693034,-1.4040759,-0.6580567,3.6638618,1.9972415,-1.9413489
535,1747638671.7270699,-0.771295,-1.566128,-0.69882125,2.022668,4.6264043,-0.7056049
536,1747638671.7428298,-2.1435702,-1.7715973,-0.8152305,1.2032927,5.262296,-0.13805148
537,1747638671.7439759,-2.1435702,-1.7715973,-0.8152305,0.7777613,4.988637,0.12644538
538,1747638671.757765,-2.691468,-1.75184,-0.7847104,0.7671478,3.9935668,0.49417543
539,1747638671.7731457,-2.9381897,-1.7352536,-0.76324576,1.0007969,2.8451738,0.8869502
540,1747638671.7741475,-2.9381897,-1.7352536,-0.76324576,1.5883555,1.3173685,1.4006728
541,1747638671.7880058,-2.8481236,-1.6112831,-1.243792,2.3111405,0.2294495,1.8465912
542,1747638671.8032303,-2.875229,-1.4070028,-1.7931229,2.5173779,0.18485765,1.9644848
543,1747638671.8042803,-2.875229,-1.4070028,-1.7931229,2.5173779,0.18485765,1.9644848
544,1747638671.8185098,-3.1329267,-1.094637,-2.5264888,1.2450594,0.9300913,2.4556823
545,1747638671.834194,-2.935263,-0.9252674,-2.309281,-1.5239112,1.9123337,3.660273
546,1747638671.8352535,-2.935263,-0.9252674,-2.309281,-1.5239112,1.9123337,3.660273
547,1747638671.8497157,-2.6106706,-0.8845028,-1.9659075,-2.2896845,2.1078048,4.1575027
548,1747638671.8507164,-2.6106706,-0.8845028,-1.9659075,-2.2896845,2.1078048,4.1575027
549,1747638671.8648758,-1.8043432,-0.8698678,-1.5080757,-2.8978593,2.0045717,4.6266336
550,1747638671.8809319,-1.3950814,-0.8237371,-1.3423649,-3.0716455,1.7150301,4.7145953
551,1747638671.8819315,-0.822548,-0.763947,-1.2315657,-3.0716455,1.7150301,4.7145953
552,1747638671.8961353,-0.822548,-0.763947,-1.2315657,-3.3327062,1.4664152,4.8306565
553,1747638671.9111245,0.10482319,-0.8461774,-0.9457869,-3.9489748,1.411439,4.5960913
554,1747638671.9121358,0.10482319,-0.8461774,-0.9457869,-3.9489748,1.411439,4.5960913
555,1747638671.9266875,0.8013272,-0.96551365,-0.60558414,-4.7782764,1.554988,4.204538
556,1747638671.9419641,0.9341094,-0.99188715,-0.46210015,-5.197012,1.7736714,4.015786
557,1747638671.9430814,0.9341094,-0.99188715,-0.46210015,-5.197012,1.7736714,4.015786
558,1747638671.9570875,0.9709408,-1.0123762,-0.15409435,-5.769605,2.2373044,3.8215368
559,1747638671.9725306,1.0517383,-1.0646048,0.09409086,-6.083046,2.4938602,3.684096
560,1747638671.9735308,1.0517383,-1.0646048,0.09409086,-6.083046,2.4938602,3.684096
561,1747638671.9883523,1.0532017,-1.1012228,0.21050009,-6.40145,2.2244766,3.3408
562,1747638672.003889,1.0146323,-1.1766235,0.37840623,-6.4549756,2.0076258,3.188699
563,1747638672.004911,1.0146323,-1.1766235,0.37840623,-6.4549756,2.0076258,3.188699
564,1747638672.0190709,0.95093966,-1.1832093,0.4545387,-6.284931,1.231239,2.7775989
565,1747638672.019587,0.95093966,-1.1832093,0.4545387,-6.284931,1.231239,2.7775989
566,1747638672.0346367,0.7259265,-1.3181561,0.63659203,-5.71104,-0.105982,2.4935548
567,1747638672.050193,0.58854043,-1.3181561,0.70641315,-5.3770595,-0.80845636,2.5631914
568,1747638672.051246,0.58854043,-1.3181561,0.70641315,-5.3770595,-0.80845636,2.5631914
569,1747638672.0661254,0.37572315,-1.2813247,0.70885235,-4.580133,-1.8426207,3.0891309
570,1747638672.0820322,0.33764166,-1.3747753,0.55777645,-3.8642197,-2.3948267,3.9473712
571,1747638672.0829716,0.33764166,-1.3747753,0.55777645,-3.8642197,-2.3948267,3.9473712
572,1747638672.0971863,0.43356186,-1.4013927,0.5167679,-3.719067,-2.4901187,4.181326
573,1747638672.112637,0.69174767,-1.4806962,0.5001817,-3.6692069,-2.6758928,4.5576077
574,1747638672.1136389,0.69174767,-1.4806962,0.5001817,-3.6692069,-2.6758928,4.5576077
575,1747638672.1282215,0.7805943,-1.5197533,0.57997286,-3.6642437,-2.5702162,4.629688
576,1747638672.143442,0.86553836,-1.5734456,0.68589365,-3.5962868,-2.4827888,4.6828313
577,1747638672.1444993,0.86553836,-1.5734456,0.68589365,-3.5962868,-2.4827888,4.6828313
578,1747638672.1586654,0.9392316,-1.6764392,0.9482565,-3.0810373,-2.707046,4.788508
579,1747638672.1738148,1.0024366,-1.6307963,1.0522261,-1.975022,-3.3844757,5.086678
580,1747638672.1748173,1.0024366,-1.6307963,1.0522261,-1.975022,-3.3844757,5.086678
581,1747638672.1885657,1.0712515,-1.6222593,0.949964,-1.64295,-3.47427,5.2925334
582,1747638672.2037416,1.4739275,-1.6229911,0.639519,-1.4422867,-3.3539333,5.905824
583,1747638672.2048,1.4739275,-1.6229911,0.639519,-1.4422867,-3.3539333,5.905824
584,1747638672.2189453,1.8036419,-1.4528896,0.67199045,-1.8292584,-2.8493733,6.447035
585,1747638672.219559,1.8036419,-1.4528896,0.67199045,-1.8292584,-2.8493733,6.447035
586,1747638672.2347794,2.0835667,-1.3208698,0.82989603,-2.0903194,-2.3942158,6.624791
587,1747638672.2504175,2.6526854,-0.7507755,1.1120161,-2.1139896,-1.2959125,6.5850863
588,1747638672.2514734,2.6526854,-0.7507755,1.1120161,-2.1139896,-1.2959125,6.5850863
589,1747638672.2656353,2.945294,-0.7700449,0.9109068,-2.4803452,-0.5671717,6.309594
590,1747638672.2808435,3.1234443,-0.7871191,0.913346,-3.2884963,-0.55800897,6.0420427
591,1747638672.281846,3.1234443,-0.7871191,0.913346,-3.2884963,-0.55800897,6.0420427
592,1747638672.2958646,3.598838,-0.6758321,1.3643479,-4.545849,-0.2831277,5.4605165
593,1747638672.3110313,4.0313025,-0.3981025,2.2068055,-5.2842107,0.5727457,4.6156383
594,1747638672.3117957,4.1848173,-0.15552737,2.7886078,-5.2842107,0.5727457,4.6156383
595,1747638672.3270557,4.3458633,0.0070126047,3.1688435,-5.009482,2.3301532,3.3469086
596,1747638672.341868,4.4905972,0.013354438,3.3689466,-4.876088,2.900761,2.8588414
597,1747638672.3429134,4.4698644,0.10339018,3.5917645,-4.905409,3.3381276,2.339545
598,1747638672.3578959,4.267048,0.20662792,4.273877,-4.6897798,4.287384,1.6065283
599,1747638672.373785,4.020082,0.10875634,5.03505,-3.8461235,4.5390534,1.0787562
600,1747638672.3747873,3.9290404,0.035550855,5.5163283,-3.8461235,4.5390534,1.0787562
601,1747638672.3890233,3.999075,-0.15845437,5.9997706,-1.7538189,3.4071534,0.527772
602,1747638672.3900247,3.999075,-0.15845437,5.9997706,-1.7538189,3.4071534,0.527772
603,1747638672.4041708,4.232625,-0.6885158,5.798448,2.9753606,-0.56045234,-1.3793695
604,1747638672.419347,4.0398393,-0.9855453,5.1117005,4.452695,-1.7528262,-2.2962513
605,1747638672.4199228,4.0398393,-0.9855453,5.1117005,4.452695,-1.7528262,-2.2962513
606,1747638672.4353065,3.9798055,-1.3887091,3.7889407,5.7075276,-2.1908038,-3.6615713
607,1747638672.4500198,3.710125,-1.3921239,2.8552275,5.738681,-0.8866448,-4.395199
608,1747638672.4510732,3.7513773,-1.8416623,2.3986156,5.738681,-0.8866448,-4.395199
609,1747638672.4652448,3.7513773,-1.8416623,2.3986156,5.3543053,0.3626142,-4.594946
610,1747638672.4805715,3.367727,-2.0027084,2.072072,4.5760098,2.619084,-5.0921755
611,1747638672.4815748,3.367727,-2.0027084,2.072072,4.5760098,2.619084,-5.0921755
612,1747638672.495966,2.990205,-2.2636077,1.7826346,4.971686,3.1096706,-5.8374853
613,1747638672.51111,2.7895837,-2.3931882,1.5713111,5.5000687,2.876327,-6.3689227
614,1747638672.5111673,2.7895837,-2.3931882,1.5713111,5.5000687,2.876327,-6.3689227
615,1747638672.5263596,2.2904994,-2.5357273,1.1454327,6.3468556,1.615462,-7.423856
616,1747638672.5417435,1.6003373,-2.4585886,0.6270793,6.884554,0.12804885,-8.258884
617,1747638672.5428257,1.6003373,-2.4585886,0.6270793,7.0540643,-0.68689775,-8.634631
618,1747638672.5571012,1.2481827,-2.3299835,0.29541358,7.0683427,-1.7607672,-9.128196
619,1747638672.5731525,1.0914966,-2.220404,0.088968605,6.879591,-2.1242213,-9.31817
620,1747638672.5741525,0.8948083,-2.071066,-0.14165461,6.424128,-2.145601,-9.401245
621,1747638672.5891893,0.7315366,-1.9109651,-0.2739489,5.830919,-1.8212411,-9.2919035
622,1747638672.5901923,0.7315366,-1.9109651,-0.2739489,5.830919,-1.8212411,-9.2919035
623,1747638672.604544,0.5746067,-1.743303,-0.3634968,5.0495687,-1.2446012,-8.962656
624,1747638672.619188,0.47091162,-1.5329249,-0.42743346,3.9984534,-0.40163207,-8.243002
625,1747638672.6207545,0.47091162,-1.5329249,-0.42743346,3.9984534,-0.40163207,-8.243002
626,1747638672.6345222,0.48359528,-1.328675,-0.39962697,2.614579,0.68880665,-7.2851934
627,1747638672.6497111,0.47261906,-1.2447067,-0.2998041,1.9011858,1.1170106,-6.8374424
628,1747638672.650805,0.47261906,-1.2447067,-0.2998041,1.9011858,1.1170106,-6.8374424
629,1747638672.6650271,0.5033525,-1.2229983,-0.20949392,1.5378844,1.283161,-6.578443
630,1747638672.6806567,0.56119126,-1.1456157,0.101408355,0.9509365,1.4303752,-6.1612344
631,1747638672.681657,0.56119126,-1.1456157,0.101408355,0.9509365,1.4303752,-6.1612344
632,1747638672.6959713,0.77815515,-1.0619217,0.62073743,1.2681189,0.9197069,-5.582686
633,1747638672.7120204,0.9958508,-1.0650926,0.67833227,1.6494403,0.5929036,-5.4043183
634,1747638672.713021,0.9958508,-1.0650926,0.67833227,1.6494403,0.5929036,-5.4043183
635,1747638672.727929,1.3538595,-1.0848498,0.62098134,2.2195134,0.21173494,-5.3316274
636,1747638672.74287,1.5163995,-1.091954,0.5580204,2.548531,0.21967594,-5.4073725
637,1747638672.7435234,1.5129846,-1.0804594,0.519695,2.8551002,0.28931254,-5.4825068
638,1747638672.7579925,1.5129846,-1.0804594,0.519695,2.8551002,0.28931254,-5.4825068
639,1747638672.772701,1.0473478,-1.0245719,0.27638808,3.9647806,-0.7705838,-5.573523
640,1747638672.772722,1.0473478,-1.0245719,0.27638808,3.9647806,-0.7705838,-5.573523
641,1747638672.7884176,0.81452924,-0.95282996,0.07262619,4.2177477,-1.1462549,-5.4037075
642,1747638672.803705,0.61683476,-0.9115776,-0.27248544,4.1959863,-1.0454651,-5.1233287
643,1747638672.8047051,0.61683476,-0.9115776,-0.27248544,4.1959863,-1.0454651,-5.1233287
644,1747638672.8192096,0.29227313,-0.99627763,-0.9340789,3.2744467,0.17874917,-4.2913547
645,1747638672.834822,-0.6951625,-1.1273218,-1.4123995,0.6599441,2.8659427,-2.8221908
646,1747638672.8358934,-0.6951625,-1.1273218,-1.4123995,0.6599441,2.8659427,-2.8221908
647,1747638672.8504589,-1.4890503,-1.4072467,-1.4265771,-0.33756948,3.892777,-2.4819489
648,1747638672.8515022,-1.4890503,-1.4072467,-1.4265771,-0.33756948,3.892777,-2.4819489
649,1747638672.8662019,-2.9418485,-1.6242106,-0.9919176,-0.91581273,3.9697437,-2.1105537
650,1747638672.8817692,-4.083501,-1.860444,-0.65586144,0.38643724,2.0644348,-1.4789376
651,1747638672.8827713,-4.083501,-1.860444,-0.65586144,0.38643724,2.0644348,-1.4789376
652,1747638672.8970387,-4.369523,-1.8072395,-1.5849401,2.2182918,-1.3569971,0.26083177
653,1747638672.9118621,-4.221618,-1.7816284,-2.0440216,2.2662432,-1.425412,0.90527564
654,1747638672.9118621,-4.221618,-1.7816284,-2.0440216,2.2662432,-1.425412,0.90527564
655,1747638672.9276047,-3.7752812,-1.4611828,-2.3900785,0.23128204,0.30030778,3.1777039
656,1747638672.9427571,-3.1246336,-1.2927889,-2.1199102,-0.7382089,0.7132405,3.980968
657,1747638672.9428358,-3.1246336,-1.2927889,-2.1199102,-0.7382089,0.7132405,3.980968
658,1747638672.9580326,-2.0037448,-1.078752,-1.6061913,-2.0093057,1.603245,4.692605
659,1747638672.9732542,-1.0910088,-0.9267309,-1.0836912,-2.521501,2.3637497,4.3474765
660,1747638672.9742563,-1.0910088,-0.9267309,-1.0836912,-2.521501,2.3637497,4.3474765
661,1747638672.9879403,-1.0133823,-0.9269748,-1.0151201,-2.5320382,2.4034548,4.1544485
662,1747638673.003665,-0.7556844,-0.89279604,-0.94115245,-2.5195923,2.0882578,3.5985775
663,1747638673.004747,-0.61534077,-0.8879177,-0.9680138,-2.580677,1.6814334,3.3719532
664,1747638673.0189476,-0.40548098,-0.9013331,-1.0046012,-2.8766325,0.9807916,3.2241282
665,1747638673.0346956,-0.18193135,-0.8447139,-1.0351213,-3.2467296,0.607564,3.1001263
666,1747638673.0347128,-0.18193135,-0.8447139,-1.0351213,-3.2467296,0.607564,3.1001263
667,1747638673.0499551,-0.29443792,-0.8449578,-0.9467625,-4.10161,0.33756948,2.9077094
668,1747638673.0499551,-0.29443792,-0.8449578,-0.9467625,-4.10161,0.33756948,2.9077094
669,1747638673.0657103,-0.4542948,-0.9906676,-0.5838755,-4.5702066,-0.33321717,3.6871505
670,1747638673.081409,-0.21925059,-1.100735,-0.51140183,-4.557684,-0.95322716,4.353585
671,1747638673.082409,-0.21925059,-1.100735,-0.51140183,-4.557684,-0.95322716,4.353585
672,1747638673.0962515,0.6263475,-1.3672138,-0.54018396,-4.662979,-1.3814311,5.0090237
673,1747638673.111686,1.0649097,-1.4531335,-0.44502598,-5.40386,-1.541473,5.841074
674,1747638673.1126866,1.4566094,-1.5224364,-0.18583402,-6.0163875,-1.173743,6.0927434
675,1747638673.1272721,1.6106123,-1.5590544,0.10360361,-6.3652577,-0.8127323,6.0634227
676,1747638673.1423628,1.665768,-1.5485355,0.43941587,-6.453143,-0.5134171,5.8612323
677,1747638673.143495,1.665768,-1.5485355,0.43941587,-6.453143,-0.5134171,5.8612323
678,1747638673.1582296,1.5569202,-1.4274918,0.9736239,-5.398897,-0.43583953,4.9900875
679,1747638673.1738427,1.4822205,-1.394807,0.9846001,-4.6225104,-0.7547018,4.5295086
680,1747638673.1748433,1.4822205,-1.394807,0.9846001,-4.6225104,-0.7547018,4.5295086
681,1747638673.1895225,1.1761967,-1.2996185,0.6890646,-3.3557658,-1.901873,3.6755443
682,1747638673.190523,1.1761967,-1.2996185,0.6890646,-3.3557658,-1.901873,3.6755443
683,1747638673.2054522,0.85550725,-1.2315353,0.2956575,-2.760724,-2.8292155,3.4709105
684,1747638673.2207413,0.83916485,-1.265714,0.107506275,-2.8292918,-2.9373355,3.5881932
685,1747638673.2227397,0.83916485,-1.265714,0.107506275,-2.8292918,-2.9373355,3.5881932
686,1747638673.235964,0.9243527,-1.3316021,0.04235003,-3.2784936,-2.9519958,3.8465815
687,1747638673.2518978,1.2537926,-1.4765496,1.0268282,-4.28914,-2.9006846,4.3480873
688,1747638673.2529004,1.2537926,-1.4765496,1.0268282,-4.28914,-2.9006846,4.3480873
689,1747638673.267097,1.2223275,-1.3884652,1.4138935,-3.7153258,-2.5555558,4.3993983
690,1747638673.2819328,1.147628,-1.2830322,1.5825313,-2.7258296,-2.2805982,4.3541956
691,1747638673.2829354,1.147628,-1.2830322,1.5825313,-2.7258296,-2.2805982,4.3541956
692,1747638673.2972949,1.0912527,-1.1493049,1.3001673,-1.0547805,-2.488897,4.2106466
693,1747638673.3131394,1.189856,-1.0050586,0.74104935,-0.5706077,-3.0179672,4.238135
694,1747638673.3141418,1.532498,-0.9974972,0.33373898,-0.86282176,-3.5597887,4.457429
695,1747638673.3278902,1.7309242,-1.0045708,0.20732918,-1.4136533,-3.7717528,4.6021996
696,1747638673.3430634,1.9995983,-0.92575526,0.6788201,-3.0280461,-2.5714378,5.012689
697,1747638673.344064,1.9995983,-0.92575526,0.6788201,-3.0280461,-2.5714378,5.012689
698,1747638673.3582528,1.9149288,-0.91840726,1.009998,-3.1302104,-1.4614521,5.233281
699,1747638673.374336,1.8055931,-0.89986956,1.207662,-2.9551263,-0.69850385,5.4189787
700,1747638673.3753903,1.8055931,-0.89986956,1.207662,-2.9551263,-0.69850385,5.4189787
701,1747638673.3896155,1.9998423,-0.86718476,1.0978384,-2.5825095,-0.6252022,5.6364403
702,1747638673.3906178,1.9998423,-0.86718476,1.0978384,-2.5825095,-0.6252022,5.6364403
703,1747638673.4049995,2.6629298,-0.9620988,0.7359271,-3.094094,-1.8578919,4.8917413
704,1747638673.4207997,2.7436967,-0.9696602,0.85745853,-3.8112288,-2.4168172,4.360304
705,1747638673.4218004,2.7436967,-0.9696602,0.85745853,-3.8112288,-2.4168172,4.360304
706,1747638673.4361749,2.599969,-0.5216158,1.7140634,-4.684817,-1.6996825,4.1856017
707,1747638673.451866,3.497826,-0.030581051,2.4044695,-4.5427947,-0.25747213,4.635796
708,1747638673.4529994,3.497826,-0.030581051,2.4044695,-4.5427947,-0.25747213,4.635796
709,1747638673.4667597,4.7473197,-0.16113745,2.8488858,-4.6268625,1.4499223,4.191099
710,1747638673.4828224,5.230549,-0.10232304,4.5657544,-3.8455126,0.7877639,-0.66895413
711,1747638673.4839108,5.230549,-0.10232304,4.5657544,-3.8455126,0.7877639,-0.66895413
712,1747638673.4984486,4.0522795,0.14269125,5.6893563,-1.8728577,-0.9550597,-2.368942
713,1747638673.4996283,4.0522795,0.14269125,5.6893563,-1.8728577,-0.9550597,-2.368942
714,1747638673.51374,3.3018389,0.4899676,5.956079,0.09918632,-1.7326683,-2.240664
715,1747638673.5291364,3.7555242,0.62418276,4.407117,2.1423178,-0.15362808,-1.4593904
716,1747638673.5450902,4.717562,-0.047411304,3.7894282,2.1267412,2.3234339,-2.365277
717,1747638673.5450902,4.717562,-0.047411304,3.7894282,2.1267412,2.3234339,-2.365277
718,1747638673.5607824,4.848362,-0.31343293,3.7801595,2.276246,2.3442028,-3.1032567
719,1747638673.5607824,4.848362,-0.31343293,3.7801595,2.276246,2.3442028,-3.1032567
720,1747638673.5757442,4.4242215,-0.67656386,3.5903008,3.1840413,2.37841,-5.106225
721,1747638673.5918052,4.1935983,-0.9291701,3.2625377,3.9448516,2.8024144,-5.7947264
722,1747638673.5928984,4.23604,-1.1863803,2.942123,4.508129,3.203741,-6.276074
723,1747638673.6074972,4.23604,-1.1863803,2.942123,5.0844636,3.47679,-6.8777585
724,1747638673.6222544,4.2287226,-1.7171735,2.2275386,5.6483517,3.4297547,-7.447068
725,1747638673.6233199,4.1284423,-1.83654,1.9107822,5.9456053,3.1505973,-7.8563356
726,1747638673.6371365,3.9902937,-1.989049,1.2233031,6.044639,2.7485836,-8.472757
727,1747638673.6520119,3.80946,-1.9736823,0.9070041,5.7748737,2.8616667,-8.774515
728,1747638673.653015,3.80946,-1.9736823,0.9070041,5.7748737,2.8616667,-8.774515
729,1747638673.667359,3.2259505,-1.7733047,0.55216634,5.2682524,3.419981,-8.872862
730,1747638673.682574,2.5328612,-1.53512,0.15875927,4.6309094,3.4920611,-8.520403
731,1747638673.6836524,2.5328612,-1.53512,0.15875927,4.6309094,3.4920611,-8.520403
732,1747638673.6978853,2.2255871,-1.4094421,0.034788612,4.4146695,3.2342834,-8.425111
733,1747638673.7127142,1.9324907,-1.3113265,-0.08332803,4.0707626,2.8659427,-8.274766
734,1747638673.7137163,1.6089048,-1.1990639,-0.15189911,4.0707626,2.8659427,-8.274766
735,1747638673.7280624,1.2765074,-1.1195166,-0.20412776,3.357293,2.0424442,-7.7329445
736,1747638673.743445,0.95118356,-1.0402132,-0.18656576,2.8314297,1.6215703,-7.035357
737,1747638673.74446,0.95118356,-1.0402132,-0.18656576,2.8314297,1.6215703,-7.035357
738,1747638673.7587335,0.8625808,-1.0211571,-0.1694916,2.7086494,1.5678159,-6.7763577
739,1747638673.7747297,0.9917042,-0.9933506,-0.13970327,2.4887445,1.4865732,-6.180171
740,1747638673.7758236,0.9917042,-0.9933506,-0.13970327,2.4887445,1.4865732,-6.180171
741,1747638673.7899094,1.0588118,-1.0004243,-0.18583402,2.4020805,1.4957359,-6.032346
742,1747638673.7909849,1.0588118,-1.0004243,-0.18583402,2.4020805,1.4957359,-6.032346
743,1747638673.805611,1.0673488,-0.98871624,-0.14848427,2.19088,1.1420553,-5.9181175
744,1747638673.8208058,0.96435505,-0.95307386,-0.07088828,2.1840081,0.92642623,-5.903457
745,1747638673.8218062,0.8296521,-0.9594158,-0.013049542,2.2388315,0.39193487,-5.8417616
746,1747638673.8363402,0.7740086,-0.9757581,-0.0071955416,2.3186235,0.089489125,-5.806943
747,1747638673.8514922,0.69665647,-1.0116444,-0.023050126,2.4077308,-0.079715565,-5.7739573
748,1747638673.852584,0.69665647,-1.0116444,-0.023050126,2.4077308,-0.079715565,-5.7739573
749,1747638673.866783,0.687845,-0.9857892,-0.14848427,2.4282706,-0.016798299,-5.560695
750,1747638673.8823647,0.6319576,-0.9147485,-0.31443906,2.1634684,0.631387,-5.230838
751,1747638673.8834274,0.6319576,-0.9147485,-0.31443906,2.1634684,0.631387,-5.230838
752,1747638673.8977923,0.41575596,-0.7122062,-0.28321773,1.5310123,1.6930395,-4.3133454
753,1747638673.9131112,0.14558776,-0.6692464,-0.0015854583,1.6774629,1.9758618,-3.0879855
754,1747638673.914114,0.14558776,-0.6692464,-0.0015854583,1.6774629,1.9758618,-3.0879855
755,1747638673.9289432,-0.019635292,-0.7092792,0.10799411,2.157207,1.6759359,-2.6297739
756,1747638673.9444394,-0.22854991,-0.8720631,0.12945877,2.9728408,1.2923237,-2.2150085
757,1747638673.9444394,-0.3808149,-0.9965216,-0.107506275,2.9728408,1.2923237,-2.2150085
758,1747638673.959359,-0.65512973,-1.1558907,-0.68003964,4.220878,0.3717769,-1.6683003
759,1747638673.974537,-1.5564017,-1.1500366,-1.5681098,2.0905483,0.10353861,-0.4630986
760,1747638673.974537,-1.5564017,-1.1500366,-1.5681098,2.0905483,0.10353861,-0.4630986
761,1747638673.9903913,-1.8238565,-1.1261023,-1.4553593,1.1160944,0.25754848,0.30420193
762,1747638673.9914703,-1.8238565,-1.1261023,-1.4553593,1.1160944,0.25754848,0.30420193
763,1747638674.005899,-1.5371019,-1.1932099,-1.0353652,-0.5120427,1.2080268,1.8349851
764,1747638674.0215137,-1.2611102,-1.1795505,-0.516524,-1.0148463,2.08276,1.9705932
765,1747638674.0225158,-1.296966,-1.1309806,-0.30126756,-0.6765133,2.0180104,1.5998089
766,1747638674.036863,-1.4517006,-1.0668001,-0.27980292,-0.6765133,2.0180104,1.5998089
767,1747638674.0516715,-1.5275891,-1.0174984,-0.34398347,0.4456131,0.51166093,0.919936
768,1747638674.0526743,-1.5656706,-0.9452685,-0.56045955,0.86870116,-0.46210596,0.7366818
769,1747638674.0672262,-1.6650057,-0.8730387,-0.8579464,1.3795985,-2.005717,0.40132666
770,1747638674.0826833,-1.7655299,-0.8376403,-0.99972296,1.4656516,-2.7076569,0.18753012
771,1747638674.0837157,-1.7655299,-0.8376403,-0.99972296,1.4656516,-2.7076569,0.18753012
772,1747638674.0978937,-1.8658404,-0.77150846,-1.0214621,1.4519076,-2.9202316,0.15576605
773,1747638674.1126506,-2.229002,-0.6318966,-0.91846824,1.2681189,-3.074165,0.3915531
774,1747638674.1126506,-2.312696,-0.5960409,-0.84010994,1.058751,-2.8799157,0.6255076
775,1747638674.1278853,-2.3832183,-0.6055536,-0.6971138,0.76966757,-2.501725,0.66704524
776,1747638674.1445646,-2.4598691,-0.6318966,-0.51847535,0.6206972,-2.2158484,0.65971506
777,1747638674.1445646,-2.5633204,-0.68046653,-0.26684484,0.68804306,-1.9049271,0.77211094
778,1747638674.1601508,-2.444228,-0.7278168,-0.16290584,0.98583114,-1.7290032,1.1453387
779,1747638674.1601756,-2.444228,-0.7278168,-0.16290584,0.98583114,-1.7290032,1.1453387
780,1747638674.1753588,-2.086707,-0.7563856,-0.33642206,1.2014602,-1.2122264,1.879577
781,1747638674.190664,-1.2591588,-0.6570505,-0.87550837,0.77715045,0.20318307,3.0811899
782,1747638674.1917708,-1.2591588,-0.6570505,-0.87550837,0.77715045,0.20318307,3.0811899
783,1747638674.206008,-0.30419457,-0.7737037,-1.1320173,-0.8971056,2.2568517,4.305328
784,1747638674.2212758,0.024300199,-0.83178633,-1.018535,-1.7719152,2.722928,4.651678
785,1747638674.2222762,0.024300199,-0.83178633,-1.018535,-1.7719152,2.722928,4.651678
786,1747638674.236537,0.44453815,-0.9188951,-0.7002848,-3.0355291,3.0424774,4.9662647
787,1747638674.2523868,0.601468,-0.9904236,-0.54091567,-3.9988353,3.176864,5.357283
788,1747638674.25339,0.601468,-0.9904236,-0.54091567,-3.9988353,3.176864,5.357283
789,1747638674.267674,1.2491583,-1.4370351,0.0059759584,-4.2829556,3.2031302,5.624223
790,1747638674.2834654,1.4356326,-1.5256073,0.32300666,-4.557684,3.1450999,5.642549
791,1747638674.284477,1.5051793,-1.520973,0.6148834,-4.5365334,3.0540836,5.3566723
792,1747638674.298721,1.3016309,-1.352335,1.0849109,-3.9527164,2.7491944,4.8508143
793,1747638674.314601,1.0766177,-1.2844957,1.135676,-3.225579,2.451712,4.6382394
794,1747638674.3156245,1.0766177,-1.2844957,1.135676,-3.225579,2.451712,4.6382394
795,1747638674.330058,0.7108037,-1.2417798,0.9743556,-2.2766278,1.5959148,4.6785555
796,1747638674.3310866,0.7108037,-1.2417798,0.9743556,-2.2766278,1.5959148,4.6785555
797,1747638674.3452485,0.37523532,-1.3091313,0.64268994,-2.1146004,0.35955995,5.1312695
798,1747638674.360485,0.28760824,-1.36136,0.6551602,-2.2373807,-0.0387888,5.624223
799,1747638674.361551,0.28760824,-1.36136,0.6551602,-2.2373807,-0.0387888,5.624223
800,1747638674.375923,0.3954804,-1.4934102,0.6436656,-2.2654035,-0.7156076,6.2741647
801,1747638674.391104,0.4911567,-1.5404862,0.6051268,-2.2466962,-0.9294041,6.4421477
802,1747638674.3921974,0.65857506,-1.6644872,0.5907357,-2.2466962,-0.9294041,6.4421477
803,1747638674.4068558,0.6378421,-1.6261619,0.63659203,-2.2454746,-1.8737739,6.770173
804,1747638674.4226844,0.63467115,-1.5607618,0.6683317,-2.0410697,-2.0521414,7.129351
805,1747638674.423777,0.63467115,-1.5607618,0.6683317,-2.0410697,-2.0521414,7.129351
806,1747638674.4379447,0.7237313,-1.5510051,0.6573554,-1.4815336,-1.9989977,7.8569465
807,1747638674.4532375,1.469537,-1.5522248,-0.02134271,-1.6149274,-1.2672026,8.611954
808,1747638674.454241,1.469537,-1.5522248,-0.02134271,-1.6149274,-1.2672026,8.611954
809,1747638674.4683917,1.769707,-1.4958495,-0.18046784,-2.3170965,-1.0509627,8.703581
810,1747638674.4840612,2.4586494,-1.4760617,0.1797361,-3.987,-1.2116156,8.448857
811,1747638674.4850628,2.4586494,-1.4760617,0.1797361,-3.987,-1.2116156,8.448857
812,1747638674.499535,2.7241833,-1.532437,0.68589365,-4.226223,-1.197566,8.062802
813,1747638674.501536,2.7241833,-1.532437,0.68589365,-4.226223,-1.197566,8.062802
814,1747638674.5147135,2.7573864,-1.6564076,1.1578724,-4.065494,-1.2519314,7.6198616
815,1747638674.530261,2.5846019,-1.643724,1.5420107,-3.0611084,-1.51765,7.450657
816,1747638674.530261,2.5846019,-1.643724,1.5420107,-3.0611084,-1.51765,7.450657
817,1747638674.5457106,3.3628488,-1.6225033,0.7083645,-2.4410985,-1.6141639,8.142823
818,1747638674.5608559,4.1499066,-1.725741,0.5409462,-3.335226,-1.3496671,8.045088
819,1747638674.5608559,4.1499066,-1.725741,0.5409462,-3.335226,-1.3496671,8.045088
820,1747638674.5767229,4.4600773,-1.5568591,2.316873,-5.5371776,-0.6252022,6.58081
821,1747638674.5920172,4.106947,-1.3298947,3.3152544,-3.1165428,-0.07116371,5.7787676
822,1747638674.593091,4.106947,-1.3298947,3.3152544,-3.1165428,-0.07116371,5.7787676
823,1747638674.607111,3.8777874,-1.0397253,3.6654577,-1.4609939,-0.13530266,5.7567773
824,1747638674.6232228,4.449101,-0.6621728,2.574571,-0.89527303,-0.10292777,5.719516
825,1747638674.6242952,4.449101,-0.6621728,2.574571,-0.89527303,-0.10292777,5.719516
826,1747638674.6378493,5.8177176,-0.259009,1.9617912,-3.0529382,2.2611275,4.317545
827,1747638674.6538153,5.5953875,-0.045703884,3.0699964,-4.046176,3.5775797,3.1575458
828,1747638674.6548884,5.5953875,-0.045703884,3.0699964,-4.046176,3.5775797,3.1575458
829,1747638674.6692307,4.788084,0.2795895,4.8247023,-2.1326969,3.8170319,1.8594191
830,1747638674.6702309,4.788084,0.2795895,4.8247023,-2.1326969,3.8170319,1.8594191
831,1747638674.6848547,5.319853,0.19443208,3.7711346,1.3615786,1.8158199,0.11728267
832,1747638674.7006605,5.3496413,0.019696271,3.4797456,1.6363071,1.8414754,-0.8699229
833,1747638674.701662,5.3496413,0.019696271,3.4797456,1.6363071,1.8414754,-0.8699229
834,1747638674.7157474,5.0875225,-0.5948213,3.6159122,1.9347824,2.0968096,-2.3518384
835,1747638674.731155,5.007975,-1.481184,3.9883425,2.9385571,2.043055,-3.8509338
836,1747638674.7323165,4.610909,-2.1171663,4.074476,2.9385571,2.043055,-3.8509338
837,1747638674.7468052,4.610909,-2.1171663,4.074476,4.776673,1.3839508,-5.2595477
838,1747638674.762061,3.9920013,-2.5808823,3.1917717,7.2646537,0.020463383,-6.9797697
839,1747638674.7631588,3.7584512,-2.682626,2.6165552,7.882755,-0.44011545,-7.572292
840,1747638674.7772636,3.3433354,-2.7494895,1.6459801,8.078989,-1.009425,-8.461151
841,1747638674.7924,3.1385672,-2.7158294,1.2637932,7.709503,-1.1841274,-8.941888
842,1747638674.793465,3.1385672,-2.7158294,1.2637932,7.709503,-1.1841274,-8.941888
843,1747638674.807651,2.7124753,-2.6055179,0.8935887,7.0484138,-1.0876136,-9.735378
844,1747638674.8235328,2.1145442,-2.6006396,0.45722178,6.559965,-1.2305518,-10.610723
845,1747638674.8246064,2.1145442,-2.6006396,0.45722178,6.559965,-1.2305518,-10.610723
846,1747638674.838703,2.1145442,-2.6006396,0.45722178,6.559965,-1.2305518,-10.610723
847,1747638674.8547554,1.5478647,-2.4691074,0.0345447,5.779226,-1.9324152,-11.017012
848,1747638674.8558002,1.5478647,-2.4691074,0.0345447,5.211596,-2.3453481,-11.059772
849,1747638674.8698578,1.3531277,-2.3016894,-0.08845028,4.3748116,-2.6569564,-10.982118
850,1747638674.8708484,1.3531277,-2.3016894,-0.08845028,4.3748116,-2.6569564,-10.982118
851,1747638674.885105,1.2581831,-2.1901584,-0.15116736,3.6370609,-2.6215274,-10.792144
852,1747638674.9006195,1.0988446,-2.0600593,-0.14775252,2.3298478,-2.0319834,-10.268037
853,1747638674.9016187,1.0988446,-2.0600593,-0.14775252,2.3298478,-2.0319834,-10.268037
854,1747638674.9159663,0.75254387,-1.8182158,0.12945877,0.9914815,-1.3014101,-9.125142
855,1747638674.9311519,0.6683317,-1.6344552,0.1785165,0.61016005,-1.0228637,-8.39579
856,1747638674.9317667,0.6683317,-1.6344552,0.1785165,0.61016005,-1.0228637,-8.39579
857,1747638674.946285,0.790351,-1.2949841,0.15973492,-0.007941014,-0.23181653,-6.991376
858,1747638674.961512,1.0627145,-1.1573541,0.27638808,-0.53449136,0.37849623,-6.0201287
859,1747638674.961512,1.0627145,-1.1573541,0.27638808,-0.53449136,0.37849623,-6.0201287
860,1747638674.9767601,1.5424986,-1.0548481,0.5711919,-0.6478799,0.7425612,-5.1844134
861,1747638674.9919574,1.6852813,-1.043384,0.71885294,-0.4285857,0.9288696,-5.089732
862,1747638674.9925718,1.6852813,-1.043384,0.71885294,-0.4285857,0.9288696,-5.089732
863,1747638675.0077417,1.6152467,-1.021645,1.0590557,0.77715045,1.2642248,-5.252828
864,1747638675.0234547,1.4981058,-1.0206692,1.1488476,1.6799827,1.0296594,-5.3145237
865,1747638675.024552,1.4981058,-1.0206692,1.1488476,1.6799827,1.0296594,-5.3145237
866,1747638675.0387557,1.2535487,-1.0748494,0.89285696,3.5473428,0.13598987,-5.001159
867,1747638675.054276,1.1273829,-1.1812578,0.37547922,4.8015647,-0.44927815,-4.4825497
868,1747638675.0550776,1.1273829,-1.1812578,0.37547922,4.8015647,-0.44927815,-4.4825497
869,1747638675.0697844,1.027316,-1.2732755,0.36596647,5.051478,-0.6960605,-4.406194
870,1747638675.0719225,1.027316,-1.2732755,0.36596647,5.051478,-0.6960605,-4.406194
871,1747638675.0858185,0.8865151,-1.3430662,0.43819633,5.315669,-1.1432006,-4.558295
872,1747638675.1010962,0.4867662,-1.4111494,0.66345334,6.1848283,-2.297702,-5.2320595
873,1747638675.102098,0.4867662,-1.4111494,0.66345334,6.9125767,-3.6446965,-6.0653315
874,1747638675.1166127,-0.1797361,-1.4894772,0.07750452,6.7587194,-3.706392,-6.427564
875,1747638675.1318889,-0.48307696,-1.5080453,-0.4354827,6.156806,-3.1132593,-6.5057526
876,1747638675.1328902,-0.48307696,-1.5080453,-0.4354827,6.156806,-3.1132593,-6.5057526
877,1747638675.1478932,-1.2869654,-1.5963737,-0.901638,3.2806315,-0.95567054,-5.8808556
878,1747638675.1627786,-2.0618277,-1.8953544,0.12311694,-0.0827698,1.3344722,-4.0909967
879,1747638675.1638196,-2.0618277,-1.8953544,0.12311694,-0.0827698,1.3344722,-4.0909967
880,1747638675.177983,-2.118203,-2.1730537,0.5858269,0.0898709,1.4334295,-3.6890593
881,1747638675.1931584,-2.3378193,-2.1684194,0.69565034,0.6443675,1.3918918,-3.5833828
882,1747638675.194169,-2.3378193,-2.1684194,0.69565034,0.6443675,1.3918918,-3.5833828
883,1747638675.2080412,-2.9813933,-2.365138,-0.1299466,2.2363882,1.2972105,-3.182667
884,1747638675.2238622,-3.349403,-2.4273672,-0.70467526,2.0519123,1.4279318,-2.8747237
885,1747638675.2249403,-3.349403,-2.4273672,-0.70467526,1.2917893,1.6185162,-2.2999163
886,1747638675.2389781,-3.8973007,-2.6240554,-1.1539698,0.47615543,1.6307331,-1.6224867
887,1747638675.2400603,-3.8973007,-2.6240554,-1.1539698,0.47615543,1.6307331,-1.6224867
888,1747638675.25506,-3.6127415,-2.590151,-0.4337753,-1.2092485,0.9801808,1.2070342
889,1747638675.270438,-3.15369,-2.5186226,-0.18193135,-0.8690829,0.54709005,2.1923308
890,1747638675.2714388,-3.15369,-2.5186226,-0.18193135,-0.8690829,0.54709005,2.1923308
891,1747638675.2861466,-2.1699436,-2.3748946,-0.34764224,-0.12949961,0.10720369,3.497177
892,1747638675.301924,-1.5978981,-2.2521436,-0.62659144,-0.18371232,0.32474166,4.116576
893,1747638675.302924,-1.2508352,-2.0952137,-0.86623955,-0.6372664,0.94658417,4.5960913
894,1747638675.3176553,-0.87721586,-1.9734383,-1.0849109,-0.6372664,0.94658417,4.5960913
895,1747638675.333167,-0.38154665,-1.7684263,-0.92798096,-2.4578967,3.2813187,5.2986417
896,1747638675.334169,-0.38154665,-1.7684263,-0.92798096,-3.7159367,4.5616546,5.5961246
897,1747638675.348802,-0.297121,-1.7115632,-0.59729093,-4.476747,5.0851507,5.8074775
898,1747638675.3644812,-0.1694916,-1.6617738,-0.3278545,-4.8418045,5.068047,6.008446
899,1747638675.3654826,0.13485542,-1.4948739,-0.021830542,-4.805688,4.903729,6.1208425
900,1747638675.3796668,0.48140004,-1.409686,-0.045764867,-4.683595,4.823708,6.173986
901,1747638675.3806672,0.48140004,-1.409686,-0.045764867,-4.683595,4.823708,6.173986
902,1747638675.39518,2.028655,-1.2066557,-0.52579284,-5.608265,5.860392,5.9559135
903,1747638675.4103627,2.1592114,-1.2054057,-0.3134634,-6.884325,6.0998445,5.162423
904,1747638675.4114566,2.1592114,-1.2054057,-0.3134634,-6.884325,6.0998445,5.162423
905,1747638675.4258592,1.7553158,-1.2571466,0.82379806,-8.211467,5.1975465,3.517335
906,1747638675.4410167,1.0793008,-1.12098,1.8402293,-7.2132664,3.064468,2.820969
907,1747638675.442138,0.76156884,-0.99237496,2.0235326,-5.613839,1.5042877,2.8973248
908,1747638675.4570909,0.5560691,-0.98310614,1.7648286,-3.9427137,0.15736952,3.2058027
909,1747638675.4731867,0.5172558,-1.0541164,0.75446475,-3.0180435,-0.68323267,3.504507
910,1747638675.474189,0.5172558,-1.0541164,0.75446475,-2.3813117,-1.462063,3.9821897
911,1747638675.4888325,0.60390717,-1.1409812,0.076528855,-2.6504662,-1.5549117,4.28517
912,1747638675.4898355,0.60390717,-1.1409812,0.076528855,-2.6504662,-1.5549117,4.28517
913,1747638675.5043268,0.6173226,-1.2137294,-0.0960117,-3.5994174,-1.2122264,4.6309094
914,1747638675.5192645,0.46871638,-1.443133,0.059668116,-5.0375047,-0.69789296,5.1526494
915,1747638675.5198593,0.46871638,-1.443133,0.059668116,-5.0375047,-0.69789296,5.1526494
916,1747638675.5348036,0.30276155,-1.6913183,0.80571777,-5.4324937,-1.6642534,6.02555
917,1747638675.5507886,0.3779184,-1.7472055,1.0234133,-4.905409,-2.658178,6.615018
918,1747638675.5518293,0.3779184,-1.7472055,1.0234133,-4.905409,-2.658178,6.615018
919,1747638675.5661447,1.3033382,-1.7928486,0.8723375,-3.9296567,-4.294638,7.734166
920,1747638675.5819352,2.3971522,-1.5317051,0.28931567,-3.8380296,-4.2915835,7.9168096
921,1747638675.5829353,2.3971522,-1.5317051,0.28931567,-3.8380296,-4.2915835,7.9168096
922,1747638675.5972826,2.4420633,-1.4582559,0.38328457,-4.852418,-1.9996085,7.333985
923,1747638675.6127656,2.248058,-1.403344,0.77108157,-5.2536683,-1.2427688,6.964422
924,1747638675.6137676,2.248058,-1.403344,0.77108157,-5.2536683,-1.2427688,6.964422
925,1747638675.6280026,2.3039453,-1.4382546,1.6545173,-4.188885,-3.0417902,7.1354594
926,1747638675.643326,2.7039382,-1.3882213,1.8070567,-3.361416,-4.9482446,7.5227365
927,1747638675.64437,2.7039382,-1.3882213,1.8070567,-3.361416,-4.9482446,7.5227365
928,1747638675.659377,3.9222105,-1.0106688,1.7397052,-1.5719391,-6.41863,7.5722156
929,1747638675.6604493,3.9222105,-1.0106688,1.7397052,-1.5719391,-6.41863,7.5722156
930,1747638675.675433,3.9617555,-0.25071585,1.4736835,-0.19860171,-4.8877707,6.5185037
931,1747638675.6911457,3.9173322,-0.09476163,1.6081426,0.11911522,-4.802863,6.1947546
932,1747638675.6922827,3.9173322,-0.09476163,1.6081426,0.11911522,-4.802863,6.1947546
933,1747638675.7067163,4.112069,0.07997418,1.8016906,1.2506334,-5.487088,5.3847713
934,1747638675.7223978,4.20555,0.17321132,1.7882446,1.9672335,-5.5848236,4.9937525
935,1747638675.7235057,4.135028,0.8589831,1.415113,2.9248893,-4.6055593,4.784232
936,1747638675.737189,4.324887,1.1491524,0.790351,3.4949627,-2.7644656,4.7200933
937,1747638675.7529166,4.534289,1.4141679,0.19001108,3.440139,-1.3808203,4.50874
938,1747638675.7539222,4.534289,1.4141679,0.19001108,3.440139,-1.3808203,4.50874
939,1747638675.768446,4.455443,2.3242211,-0.16412543,1.7060964,0.19035527,2.6334388
940,1747638675.7842479,4.3368387,3.2103703,-0.46405149,0.96154994,-0.33566058,1.323706
941,1747638675.7852972,4.3368387,3.2103703,-0.46405149,0.96154994,-0.33566058,1.323706
942,1747638675.7993035,4.4122696,3.4580677,-0.77983207,0.51670045,0.08765658,0.54854083
943,1747638675.8004334,4.4122696,3.4580677,-0.77983207,0.51670045,0.08765658,0.54854083
944,1747638675.814519,4.548924,3.171557,-0.9616719,-1.3818892,1.7229711,-1.3390535
945,1747638675.8297355,4.585786,2.8735824,-0.56924057,-2.0996346,2.107194,-2.1435394
946,1747638675.8307385,4.585786,2.8735824,-0.56924057,-2.0996346,2.107194,-2.1435394
947,1747638675.845004,4.7182937,2.469199,-0.11726294,-2.274108,2.3008325,-2.986585
948,1747638675.8604887,5.0162683,1.767786,0.47432646,-1.8249062,1.8695744,-4.5637927
949,1747638675.861488,5.0162683,1.767786,0.47432646,-1.8249062,1.8695744,-4.5637927
950,1747638675.8752422,5.1302385,0.8069983,1.3397123,-0.41980478,0.827469,-7.003593
951,1747638675.8903866,4.9616003,0.46533203,1.448804,0.4692834,0.7621083,-7.82335
952,1747638675.8914537,4.9616003,0.46533203,1.448804,0.4692834,0.7621083,-7.82335
953,1747638675.906511,4.8229947,-0.21385394,1.3284616,2.465685,0.77921206,-8.868586
954,1747638675.9217157,4.697561,-0.5889673,0.92505395,3.5416925,0.5696914,-9.6352
955,1747638675.9227152,4.697561,-0.5889673,0.92505395,4.0688534,0.20318307,-10.283919
956,1747638675.9373128,3.9590724,-0.98993576,0.111896776,4.2233977,-0.2715216,-10.761601
957,1747638675.9530783,3.3384569,-1.0775324,-0.3163904,4.124899,-0.59649235,-10.979674
958,1747638675.954082,3.3384569,-1.0775324,-0.3163904,4.124899,-0.59649235,-10.979674
959,1747638675.9684134,2.9884975,-1.0763128,-0.48283303,3.2058792,-1.2366602,-10.932639
960,1747638675.9842186,2.5138054,-0.98261833,-0.59631526,2.1772122,-1.4302988,-10.509321
961,1747638675.9852686,2.3032136,-0.91840726,-0.59631526,2.1772122,-1.4302988,-10.509321
962,1747638675.99938,2.1919267,-0.8871859,-0.56070346,1.0986089,-1.4119735,-9.851439
963,1747638676.0004892,2.1919267,-0.8871859,-0.56070346,1.0986089,-1.4119735,-9.851439
964,1747638676.0147927,1.9341983,-0.94965905,-0.45966098,-0.27961534,-0.9544488,-8.980982
965,1747638676.0306675,1.8468455,-0.97847176,-0.3749609,-0.70392513,-0.81884074,-8.754357
966,1747638676.0317564,1.8468455,-0.97847176,-0.3749609,-0.70392513,-0.81884074,-8.754357
967,1747638676.0466185,1.655249,-0.9996925,-0.07357136,-1.0341644,-0.81578654,-8.529566
968,1747638676.0617373,1.6071974,-0.96868455,0.004268542,-0.900847,-0.973996,-8.386017
969,1747638676.0627375,1.5134724,-0.97895956,0.027715031,-0.900847,-0.973996,-8.386017
970,1747638676.077205,1.3762999,-0.9374633,0.051618867,-0.69522053,-1.2317735,-8.151375
971,1747638676.0919132,1.2179369,-0.91352886,0.09018819,-0.62107897,-1.3612732,-7.9302483
972,1747638676.092994,1.2179369,-0.91352886,0.09018819,-0.62107897,-1.3612732,-7.9302483
973,1747638676.1074727,1.1166505,-0.82495666,0.06796128,-0.29206136,-1.5194826,-7.190512
974,1747638676.122614,1.0973811,-0.83227414,-0.034758125,-0.24410984,-1.2873605,-6.982824
975,1747638676.1236823,1.0973811,-0.83227414,-0.034758125,-0.24410984,-1.2873605,-6.982824
976,1747638676.1386764,1.0036561,-0.8347134,0.036008198,-0.4883724,-0.9025268,-6.67007
977,1747638676.1544914,0.63979346,-0.75711733,0.43136662,-0.20677179,-0.90130514,-6.022572
978,1747638676.1555672,0.63979346,-0.75711733,0.43136662,-0.20677179,-0.90130514,-6.022572
979,1747638676.1695073,0.5246038,-0.6594897,0.54777586,0.38208497,-1.0796726,-5.450132
980,1747638676.1705098,0.5246038,-0.6594897,0.54777586,0.38208497,-1.0796726,-5.450132
981,1747638676.1848905,0.4735947,-0.5023159,0.63878727,1.377766,-1.2959125,-4.541191
982,1747638676.199844,0.80254686,-0.48085123,0.16778417,2.222644,-1.0570712,-3.874146
983,1747638676.200824,0.80254686,-0.48085123,0.16778417,2.222644,-1.0570712,-3.874146
984,1747638676.2150056,0.7129989,-0.66314846,0.0345447,2.2650216,-0.8915316,-3.7971792
985,1747638676.2311337,0.61073685,-0.7541904,-0.009634708,2.3529072,-0.7601994,-3.7391489
986,1747638676.2321756,0.61073685,-0.7541904,-0.009634708,2.3529072,-0.7601994,-3.7391489
987,1747638676.2459226,-0.23830658,-0.9638063,-0.09088945,2.5971699,-0.015576605,-3.2852893
988,1747638676.2613907,-0.6763505,-1.0335969,-0.07015654,2.5404375,0.2722088,-2.6743658
989,1747638676.2623942,-0.6763505,-1.0335969,-0.07015654,2.5404375,0.2722088,-2.6743658
990,1747638676.277002,-1.0539029,-1.5697868,-0.09137728,2.0057933,-0.21349111,-0.9762103
991,1747638676.2916472,-1.0265843,-1.9907565,-0.15092343,1.5952276,-0.34176904,-0.6549046
992,1747638676.2927127,-1.0265843,-1.9907565,-0.15092343,0.6630747,0.05650337,-0.6658999
993,1747638676.3069878,-1.2001005,-2.1042387,0.02625153,0.32787228,0.4774535,-1.1185377
994,1747638676.3223472,-1.549816,-2.2338192,0.201963,0.23006035,0.60512054,-1.6664677
995,1747638676.3234468,-1.549816,-2.2338192,0.201963,0.23006035,0.60512054,-1.6664677
996,1747638676.3382077,-2.2629066,-2.5977125,0.30568856,0.5640411,-0.60321164,-2.2467725
997,1747638676.3536751,-2.5057254,-2.6367698,0.17022336,0.5989357,-1.1022738,-2.1081102
998,1747638676.3550436,-2.5057254,-2.6367698,0.17022336,0.5989357,-1.1022738,-2.1081102
999,1747638676.3688352,-2.7446725,-2.5762174,-0.21586627,0.0038941512,-1.5701829,-1.0867736
