id,timestamp,acc_x,acc_y,acc_z,gyro_x,gyro_y,gyro_z
0,1747638623.1129885,0.13241626,0.6451901,0.8828564,-0.6547519,-0.23364908,-0.27854636
1,1747638623.1261678,0.13241626,0.6451901,0.8828564,-0.6547519,-0.23364908,-0.27854636
2,1747638623.1359367,0.0015854583,0.60491335,0.88968605,-0.34131092,-0.31244838,-0.4062898
3,1747638623.1515799,-0.117506854,0.620524,0.733244,0.033138465,-0.52196896,-0.517464
4,1747638623.152581,-0.1516552,0.74428123,0.6182983,0.016340164,-0.4224009,-0.3305447
5,1747638623.166788,-0.10921369,0.7496474,0.55411774,-0.21356747,-0.25747213,-0.06902574
6,1747638623.1825528,-0.04036821,0.696687,0.5711919,-0.4883724,-0.09681929,0.18386503
7,1747638623.1836162,-0.04036821,0.696687,0.5711919,-0.4883724,-0.09681929,0.18386503
8,1747638623.1979802,0.1285136,0.68104583,0.8584342,-0.7737144,-0.111479625,0.3994941
9,1747638623.2134113,0.18196183,0.6761675,0.9685016,-0.78180814,-0.56533915,0.3090887
10,1747638623.2144153,0.18196183,0.6761675,0.9685016,-0.78180814,-0.56533915,0.3090887
11,1747638623.229053,0.14851476,0.5556117,0.8337987,-0.72759545,-1.2073396,0.4123219
12,1747638623.2438734,0.04600878,0.6202801,0.6182983,-0.6447493,-0.90802443,0.5833591
13,1747638623.2449546,0.04600878,0.6202801,0.6182983,-0.6447493,-0.90802443,0.5833591
14,1747638623.2590864,0.074577525,0.5453672,0.5939066,-0.5431959,-0.63619745,0.5595361
15,1747638623.2747219,0.11262852,0.5143898,0.6331772,-0.57121855,-0.57999945,0.4422534
16,1747638623.2757308,0.11262852,0.5143898,0.6331772,-0.57121855,-0.57999945,0.4422534
17,1747638623.2899117,0.13802634,0.48630884,0.53558004,-0.8709155,-0.9397885,0.15882029
18,1747638623.305205,0.12217176,0.44066596,0.20245083,-1.7825286,1.0718079,0.47035238
19,1747638623.3062062,0.12217176,0.44066596,0.20245083,-1.7825286,1.0718079,0.47035238
20,1747638623.320531,0.025519783,0.3608747,0.31251824,-1.969448,1.4853514,0.6187883
21,1747638623.3358667,0.050155364,0.31084132,0.8125474,-2.5576174,0.879391,0.8185353
22,1747638623.336863,0.050155364,0.31084132,0.8125474,-2.5576174,0.879391,0.8185353
23,1747638623.3511515,0.25272816,0.25519782,0.5807046,-2.6623015,0.062000997,0.95964104
24,1747638623.3670304,0.36401513,-0.20580468,0.7671789,-1.648524,0.5141043,0.47035238
25,1747638623.368145,0.36401513,-0.20580468,0.7671789,-1.648524,0.5141043,0.47035238
26,1747638623.3818707,0.29029134,-0.17677861,0.69443077,-1.3718866,-0.09804098,0.09345963
27,1747638623.3828707,0.29029134,-0.17677861,0.69443077,-1.0615761,-1.0515735,-0.26205346
28,1747638623.3979032,0.004024625,0.03506302,0.27882725,-0.8267054,-2.1126153,-0.40079215
29,1747638623.413462,-0.06259512,-0.16869886,0.10433535,-0.7257629,-2.521883,-0.2235701
30,1747638623.413462,-0.038416874,-0.31635994,0.029422449,-0.7257629,-2.521883,-0.2235701
31,1747638623.4282837,-0.032562874,-0.3746865,-0.013293459,-0.92016506,-2.4498029,-0.07269082
32,1747638623.4439106,0.10482319,-0.49012005,-0.29760882,-1.526431,-2.0551956,0.0452027
33,1747638623.4439106,0.10482319,-0.49012005,-0.29760882,-1.526431,-2.0551956,0.0452027
34,1747638623.459761,0.06945527,-0.46548447,-0.34178823,-1.9631867,-1.8493401,0.12216945
35,1747638623.4751382,0.18513274,-0.29023036,-0.1592471,-2.5974753,-1.6856331,0.67865133
36,1747638623.4761913,0.18513274,-0.29023036,-0.1592471,-2.5974753,-1.6856331,0.67865133
37,1747638623.4898536,0.84648234,-0.18068127,0.111165024,-2.5781572,-2.5395975,1.0109522
38,1747638623.505294,1.4431939,-0.08939546,0.123604774,-2.3190053,-3.2568085,0.80326414
39,1747638623.5062945,1.4431939,-0.08939546,0.123604774,-2.3190053,-3.2568085,0.80326414
40,1747638623.5208213,2.2702544,0.08558427,-0.27175367,-2.411854,-3.6935644,-0.5186857
41,1747638623.536932,2.1594553,0.7337623,-0.013049542,-4.4829316,-2.8768616,-1.8155144
42,1747638623.5379338,2.1594553,0.7337623,-0.013049542,-4.4829316,-2.8768616,-1.8155144
43,1747638623.5528257,2.31419,1.1015581,0.6510136,-5.3764486,-2.6954398,-1.849111
44,1747638623.5538359,2.31419,1.1015581,0.6510136,-5.3764486,-2.6954398,-1.849111
45,1747638623.5679145,3.3428473,1.2684886,2.1933901,-5.378281,-3.166403,-2.116662
46,1747638623.5836372,3.797264,1.2962952,2.6421664,-3.7296042,-2.3826098,-4.337779
47,1747638623.5846372,3.797264,1.2962952,2.6421664,-3.7296042,-2.3826098,-4.337779
48,1747638623.598912,3.797264,1.2962952,2.6421664,-3.2884963,-1.7485503,-5.2833705
49,1747638623.6141152,3.4201994,1.4170948,3.566885,-3.0548472,-1.9134791,-5.659118
50,1747638623.6151762,3.4648669,1.2950755,4.24726,-3.0548472,-1.9134791,-5.659118
51,1747638623.6292558,3.4797456,1.1259499,5.4838567,-1.0940274,-3.5164187,-6.7164946
52,1747638623.6441362,3.4714525,0.9839294,5.853116,0.5441122,-3.28674,-6.9956517
53,1747638623.645139,3.4714525,0.9839294,5.853116,0.5441122,-3.28674,-6.9956517
54,1747638623.6597946,3.6376512,0.4482274,6.0463896,3.7934377,-2.5151637,-7.6339874
55,1747638623.6797645,3.5407553,-0.4520386,5.6612754,6.5543146,-3.1077619,-9.13797
56,1747638623.6797645,3.5407553,-0.4520386,5.6612754,6.5543146,-3.1077619,-9.13797
57,1747638623.6945822,3.3128152,-0.8137365,5.462148,7.359335,-3.6257603,-9.72988
58,1747638623.6956582,3.3128152,-0.8137365,5.462148,7.359335,-3.6257603,-9.72988
59,1747638623.7121248,2.916725,-1.3105948,5.0155363,8.056617,-4.3997035,-10.049965
60,1747638623.7142158,2.916725,-1.3105948,5.0155363,8.056617,-4.3997035,-10.049965
61,1747638623.7279906,2.8708687,-1.7559866,3.7721102,8.247278,-4.3569446,-10.503824
62,1747638623.7428765,2.8876991,-1.8382475,3.1839664,7.758142,-4.1761336,-10.791533
63,1747638623.7440407,2.8876991,-1.8382475,3.1839664,7.758142,-4.1761336,-10.791533
64,1747638623.7583065,2.527983,-1.8204112,2.321751,6.424739,-2.9226751,-11.15995
65,1747638623.7735696,1.6415898,-1.7398881,1.8944093,4.7342954,-2.9660451,-10.790922
66,1747638623.77465,1.6415898,-1.7398881,1.8944093,4.7342954,-2.9660451,-10.790922
67,1747638623.7887423,1.3804768,-1.731351,1.652078,4.1585717,-3.3484356,-10.453124
68,1747638623.80464,1.0954298,-1.6534806,1.1805872,3.598425,-3.5994937,-10.096389
69,1747638623.8056412,1.0954298,-1.6534806,1.1805872,3.173504,-3.555513,-9.759201
70,1747638623.8194416,0.92703575,-1.601252,0.8459944,2.4401057,-2.7131546,-9.1538515
71,1747638623.8345723,0.6182983,-1.4555727,0.5721675,1.8233027,-1.477945,-8.33776
72,1747638623.8356218,0.6182983,-1.4555727,0.5721675,1.8233027,-1.477945,-8.33776
73,1747638623.850123,0.33471465,-1.3701409,0.47676563,1.3328687,-1.265981,-7.3609385
74,1747638623.865006,0.20732918,-1.4057833,0.1533931,0.7004891,-1.4669497,-6.291345
75,1747638623.8660073,0.20732918,-1.4057833,0.1533931,0.7004891,-1.4669497,-6.291345
76,1747638623.8808033,-0.050124876,-1.5321931,-0.13019052,0.25311983,-0.20066333,-5.667059
77,1747638623.8956702,-0.7097975,-1.5829582,-0.043569613,-0.21112408,1.7321337,-4.2571473
78,1747638623.8967037,-0.7097975,-1.5829582,-0.043569613,-0.21112408,1.7321337,-4.2571473
79,1747638623.910435,-1.0985701,-1.6510415,0.19245026,-0.04909685,1.8139873,-3.2681856
80,1747638623.9265146,-1.3662688,-1.7584258,0.056009363,0.401403,1.6466151,-2.1808012
81,1747638623.9275436,-1.3662688,-1.7584258,0.056009363,0.401403,1.6466151,-2.1808012
82,1747638623.94161,-1.3374865,-1.8658102,-0.30224323,1.1615261,1.7419074,-0.92673165
83,1747638623.9426107,-1.3374865,-1.8658102,-0.30224323,1.1615261,1.7419074,-0.92673165
84,1747638623.9564922,-1.531004,-1.9219414,-0.6739418,2.6301556,1.1988641,-0.4050681
85,1747638623.9724898,-1.6276559,-2.0151784,-1.3831295,3.904383,-0.77730316,-0.0684149
86,1747638623.9734907,-1.6276559,-2.0151784,-1.3831295,3.904383,-0.77730316,-0.0684149
87,1747638623.9879522,-1.5961602,-2.1110682,-1.7904397,4.0875607,-1.5451381,0.052532863
88,1747638624.0031948,-1.9920064,-2.077164,-2.1343014,4.0270867,-1.8053591,0.17286977
89,1747638624.0042486,-1.9920064,-2.077164,-2.1343014,3.9006414,-1.6483713,0.8612946
90,1747638624.0184507,-2.182871,-2.0095685,-2.106495,3.9000306,-1.5549117,1.5393351
91,1747638624.034414,-2.261443,-1.9931955,-2.1857984,3.741745,-1.7913096,2.1941633
92,1747638624.0354156,-2.261443,-1.9931955,-2.1857984,3.741745,-1.7913096,2.1941633
93,1747638624.0498676,-1.9246551,-1.9870977,-2.4913344,3.0495021,-1.9446323,3.148994
94,1747638624.0652251,-1.6581761,-1.8906897,-2.3710225,1.6369942,-1.5830107,3.7983246
95,1747638624.0662932,-1.6581761,-1.8906897,-2.3710225,1.6369942,-1.5830107,3.7983246
96,1747638624.080558,-1.1634825,-1.923161,-1.684763,-0.35879642,-1.4626738,4.5185137
97,1747638624.0963817,-0.5987544,-1.914136,-0.90285754,-1.4990191,-1.2183349,5.398821
98,1747638624.0973847,-0.5987544,-1.914136,-0.90285754,-1.4990191,-1.2183349,5.398821
99,1747638624.1112232,-0.36081374,-1.8660539,-0.4364584,-1.5588058,-1.0851701,5.926593
100,1747638624.1259193,-0.055277612,-1.8308995,-0.23464784,-1.3693669,-0.9110787,6.47269
101,1747638624.1269195,0.2666314,-1.836784,-0.23318435,-1.2011548,-0.741874,6.830647
102,1747638624.1405468,0.70568144,-1.7767195,-0.3413004,-1.1719105,-0.5012002,7.1385136
103,1747638624.155922,1.5937514,-1.6590908,-0.3808149,-2.1401796,0.9526926,7.641241
104,1747638624.1570272,1.5937514,-1.6590908,-0.3808149,-2.1401796,0.9526926,7.641241
105,1747638624.171267,1.820472,-1.685708,-0.2016886,-2.826772,1.5177264,7.6033688
106,1747638624.1866405,1.8783108,-1.6593347,0.36279556,-3.2766612,0.44630027,7.413395
107,1747638624.187702,1.8783108,-1.6593347,0.36279556,-3.2766612,0.44630027,7.413395
108,1747638624.2025967,1.8104715,-1.5839338,0.5631426,-3.2510817,-0.44439137,7.371247
109,1747638624.2028158,1.8104715,-1.5839338,0.5631426,-3.2510817,-0.44439137,7.371247
110,1747638624.2181642,1.7633651,-1.5573469,0.6524771,-2.8186784,-0.95200545,7.4640956
111,1747638624.2337916,1.6557368,-1.671317,0.6651608,-2.3501585,-0.58855134,7.7494373
112,1747638624.2337916,1.6557368,-1.671317,0.6651608,-2.3501585,-0.58855134,7.7494373
113,1747638624.2490168,1.6564686,-1.7228138,0.59707755,-2.2547898,-0.48776153,7.8086896
114,1747638624.265085,1.7021115,-1.7406199,0.54826367,-2.2660143,-0.36009446,7.822739
115,1747638624.2660875,1.7021115,-1.7406199,0.54826367,-2.2660143,-0.36009446,7.822739
116,1747638624.280495,1.7560476,-1.7989464,0.5660696,-2.405593,-0.3155026,7.6052012
117,1747638624.2954793,1.6735734,-1.8923969,0.8743193,-2.3576415,-0.9306258,7.197155
118,1747638624.2969153,1.6735734,-1.8923969,0.8743193,-2.3576415,-0.9306258,7.197155
119,1747638624.3104024,1.671134,-1.9817314,0.95533013,-2.115822,-1.3429477,7.2319736
120,1747638624.3259804,1.8702615,-2.0485952,1.0078027,-1.5619365,-1.7369442,7.4140058
121,1747638624.3270526,1.8702615,-2.0485952,1.0078027,-1.5619365,-1.7369442,7.4140058
122,1747638624.3417454,1.9861829,-1.9880733,0.9589889,-1.3332505,-1.6624209,7.4072866
123,1747638624.342844,1.9861829,-1.9880733,0.9589889,-1.3332505,-1.6624209,7.4072866
124,1747638624.3568013,2.0186543,-1.9431622,0.84257966,-1.2952253,-1.2238325,7.498914
125,1747638624.3724704,2.1706755,-1.9680722,0.6148834,-1.850409,-0.08765658,7.820296
126,1747638624.3734708,2.250497,-1.9736823,0.49652287,-2.5239446,0.5629721,8.013934
127,1747638624.3872619,2.5042925,-1.9941713,0.5963458,-3.6249967,1.3656254,8.269879
128,1747638624.4026096,2.7417452,-1.9124286,0.89212525,-4.4262757,1.6997589,8.3224125
129,1747638624.4036987,2.7417452,-1.9124286,0.89212525,-4.4262757,1.6997589,8.3224125
130,1747638624.417968,2.9740758,-1.7286679,1.4497797,-5.0817146,1.9660883,8.034703
131,1747638624.4334764,3.167136,-1.3533107,1.8502603,-4.6667204,1.6960938,7.1666126
132,1747638624.4344757,3.167136,-1.3533107,1.8502603,-4.6667204,1.6960938,7.1666126
133,1747638624.4490154,3.155672,-1.0192058,1.9229782,-4.205683,1.3472999,6.4586406
134,1747638624.464457,3.3687027,-0.5540567,2.0784445,-3.610031,0.83235574,5.522212
135,1747638624.465531,3.3687027,-0.5540567,2.0784445,-3.610031,0.83235574,5.522212
136,1747638624.4796429,3.5439262,-0.094517715,2.2165623,-2.8934307,0.12003148,4.8031683
137,1747638624.495485,3.8153143,0.16635117,2.2216845,-2.4909587,-0.3814741,4.3346486
138,1747638624.4962702,3.8153143,0.16635117,2.2216845,-2.4909587,-0.3814741,4.3346486
139,1747638624.510113,3.9707804,0.788918,2.2033908,-2.411167,-0.6038225,3.5057287
140,1747638624.5252872,4.5479484,1.4451759,2.8901381,-2.8667061,0.39926505,3.5277193
141,1747638624.5252872,4.5479484,1.4451759,2.8901381,-2.8667061,0.39926505,3.5277193
142,1747638624.5408564,5.169783,1.4917943,3.2869601,-2.9152687,0.8909971,2.993228
143,1747638624.5561125,5.8025947,1.3436455,4.11646,-2.7794313,1.5299433,1.9486028
144,1747638624.5561125,5.8025947,1.3436455,4.11646,-2.3127441,2.2489104,0.6139015
145,1747638624.570841,6.072763,0.49484593,4.6384716,-1.3282874,2.984447,-1.2248251
146,1747638624.5861773,5.2337203,-0.56503296,4.8883953,1.88622,3.7547255,-4.2217183
147,1747638624.5872185,5.2337203,-0.56503296,4.8883953,1.88622,3.7547255,-4.2217183
148,1747638624.6021178,4.7956457,-0.94160986,4.67509,3.4202101,3.2458897,-5.2601585
149,1747638624.603198,4.7956457,-0.94160986,4.67509,3.4202101,3.2458897,-5.2601585
150,1747638624.6173453,4.1540537,-1.9668525,3.7323215,5.3168907,2.3875728,-6.1062584
151,1747638624.6328776,4.125515,-2.235039,3.2293653,5.655224,2.0968096,-6.4171796
152,1747638624.6338785,4.125515,-2.235039,3.2293653,5.655224,2.0968096,-6.4171796
153,1747638624.648872,4.062524,-2.3519664,2.9948394,6.019136,1.9190531,-7.139201
154,1747638624.6644037,4.4100437,-2.707536,2.508439,6.540647,1.3821182,-8.085403
155,1747638624.665404,4.4100437,-2.707536,2.508439,6.540647,1.3821182,-8.085403
156,1747638624.6804256,4.5108423,-2.8144326,2.3695896,6.585468,1.6435609,-8.681666
157,1747638624.6962721,4.432271,-2.9232802,2.2907436,6.819117,1.9056144,-9.221656
158,1747638624.6972756,4.291683,-2.911542,2.1208858,7.0534534,1.8543032,-9.574115
159,1747638624.7111228,4.115728,-2.9276707,1.7255275,7.3188663,1.7040348,-9.988269
160,1747638624.7262871,3.4255657,-2.770497,0.6463792,6.951213,1.5934714,-10.521539
161,1747638624.7273571,3.4255657,-2.770497,0.6463792,6.951213,1.5934714,-10.521539
162,1747638624.7420068,3.0114257,-2.6492095,0.42087823,6.389233,1.6282897,-10.492218
163,1747638624.743122,3.0114257,-2.6492095,0.42087823,6.389233,1.6282897,-10.492218
164,1747638624.7573044,2.0449972,-2.3021772,0.26687533,5.374845,1.1518289,-10.03958
165,1747638624.772436,1.6835738,-2.1362221,0.11384811,5.0520887,0.8903862,-9.59244
166,1747638624.773436,1.6835738,-2.1362221,0.11384811,5.0520887,0.8903862,-9.59244
167,1747638624.7877035,1.5290831,-2.0024643,-0.12628786,4.086339,0.6906392,-8.610808
168,1747638624.802892,1.2489144,-1.7642797,-0.29053524,3.057596,0.33207184,-7.7054563
169,1747638624.8041096,0.97853273,-1.5993006,-0.102384016,3.057596,0.33207184,-7.7054563
170,1747638624.819173,0.82404196,-1.4772813,0.0052442085,2.8320405,-0.11270132,-7.225941
171,1747638624.834923,0.86627007,-1.3860259,-0.039148625,2.7522488,-0.4010212,-6.775136
172,1747638624.8349428,0.86627007,-1.3860259,-0.039148625,2.7522488,-0.4010212,-6.775136
173,1747638624.8497376,1.0736908,-1.3057165,-0.43231183,2.3036578,0.23372543,-6.3921347
174,1747638624.865006,0.74690336,-1.3391635,-0.3473983,0.9166527,1.0369896,-6.119697
175,1747638624.8655763,0.74690336,-1.3391635,-0.3473983,0.9166527,1.0369896,-6.119697
176,1747638624.879831,0.4982303,-1.2974232,-0.2107135,0.6094729,1.12373,-5.795948
177,1747638624.895235,0.3193479,-1.1680864,-0.048204035,0.3858264,0.975294,-5.1721964
178,1747638624.8962357,0.3193479,-1.1680864,-0.048204035,0.3858264,0.975294,-5.1721964
179,1747638624.9104693,0.2563869,-1.0585068,-0.023050126,0.25311983,1.0669211,-4.6987896
180,1747638624.9261491,0.22440335,-1.0338409,-0.0506432,0.11293039,1.2538403,-4.4037504
181,1747638624.9287927,0.16485718,-0.97502637,-0.030367626,0.0051158457,1.5696484,-4.0946617
182,1747638624.9415867,0.13729459,-0.9147485,-0.0477162,-0.03229855,1.75107,-3.8607073
183,1747638624.9427168,0.13729459,-0.9147485,-0.0477162,-0.14690876,2.1475098,-3.3653102
184,1747638624.957013,0.0018293752,-0.85178757,-0.009146876,-0.16439427,2.1737764,-2.9835308
185,1747638624.972393,0.0064942813,-0.86620915,0.20879267,0.08926006,1.7199168,-2.6285522
186,1747638624.972393,0.0064942813,-0.86620915,0.20879267,0.08926006,1.7199168,-2.6285522
187,1747638624.987777,-0.010610376,-0.84032345,0.3603564,0.70171076,1.0968527,-2.260822
188,1747638625.0036585,0.07433361,-0.7671179,-0.6771127,2.4962273,0.18485765,-1.4483953
189,1747638625.004658,0.07433361,-0.7671179,-0.6771127,2.4962273,0.18485765,-1.4483953
190,1747638625.0197823,0.00085370836,-0.8024858,-1.1490915,2.1385763,0.49272466,-1.4227396
191,1747638625.035025,-0.50161463,-0.96746504,-1.347975,1.0226346,1.3815074,-1.429459
192,1747638625.036085,-0.50161463,-0.96746504,-1.347975,1.0226346,1.3815074,-1.429459
193,1747638625.0501523,-1.1375968,-1.043384,-1.1044242,0.6512395,1.0602018,-1.0953255
194,1747638625.0653138,-1.4426757,-1.0472867,-1.027316,0.7060631,0.32779592,-0.729428
195,1747638625.0663216,-1.4426757,-1.0472867,-1.027316,0.7060631,0.32779592,-0.729428
196,1747638625.08047,-1.7945863,-0.90426004,-1.1454327,0.8306759,-0.5665608,-0.17225893
197,1747638625.0963693,-1.9951774,-0.9350241,-1.2650129,0.5341096,-0.47065783,0.1783674
198,1747638625.0977569,-1.9951774,-0.9350241,-1.2650129,0.5341096,-0.47065783,0.1783674
199,1747638625.111964,-2.149424,-0.91990125,-1.1764101,0.5596888,-0.65513366,0.19669282
200,1747638625.1129687,-2.149424,-0.91990125,-1.1764101,0.5596888,-0.65513366,0.19669282
201,1747638625.1270838,-2.4715772,-0.88035625,-1.065367,1.0163735,-1.5500249,0.1643179
202,1747638625.1428263,-2.5589297,-0.9638063,-1.2018079,1.3484453,-2.4919515,0.6187883
203,1747638625.1439862,-2.5589297,-0.9638063,-1.2018079,1.3484453,-2.4919515,0.6187883
204,1747638625.1579285,-2.5589297,-0.9638063,-1.2018079,1.3484453,-2.4919515,0.6187883
205,1747638625.1733847,-2.26998,-1.1424447,-1.2837944,0.52723753,-1.601947,0.7110262
206,1747638625.1743853,-2.26998,-1.1424447,-1.2837944,0.52723753,-1.601947,0.7110262
207,1747638625.1895053,-2.018624,-1.2825444,-0.7586113,-0.7320241,0.31680065,1.1520579
208,1747638625.2047162,-1.8577913,-1.3633112,-0.5482332,-0.76378816,1.1341143,1.6560069
209,1747638625.2057247,-1.8577913,-1.3633112,-0.5482332,-0.76378816,1.1341143,1.6560069
210,1747638625.2206335,-1.5146616,-1.3733119,-0.38987032,-0.32138202,1.1921448,2.7177358
211,1747638625.2356315,-0.74763507,-1.2425115,-0.8115718,-0.122627586,-0.37292224,4.320599
212,1747638625.237066,-0.74763507,-1.2425115,-0.8115718,-0.122627586,-0.37292224,4.320599
213,1747638625.2514462,-0.40279788,-1.274739,-0.94847,-0.49272466,-0.38697174,4.867307
214,1747638625.2667341,-0.10552445,-1.4279797,-0.66439855,-1.453511,0.42003384,5.4067616
215,1747638625.2678204,-0.10552445,-1.4279797,-0.66439855,-1.453511,0.42003384,5.4067616
216,1747638625.2821436,-0.0711322,-1.4924346,-0.14165461,-1.7370205,0.58313006,6.4555864
217,1747638625.283184,0.14949043,-1.5978371,0.11701902,-1.7370205,0.58313006,6.4555864
218,1747638625.2968612,0.14949043,-1.5978371,0.11701902,-1.7370205,0.58313006,6.4555864
219,1747638625.312373,0.9099311,-1.7598894,0.046496615,-1.6217232,1.2287956,7.9082575
220,1747638625.3133752,1.2206199,-1.8077275,-0.006219875,-1.6217232,1.2287956,7.9082575
221,1747638625.3271267,1.6086609,-1.9163314,0.12311694,-2.8174567,2.063824,8.348679
222,1747638625.343029,1.6530536,-2.0298135,0.43941587,-3.3445415,2.1218543,8.188637
223,1747638625.344102,1.6530536,-2.0298135,0.43941587,-3.3445415,2.1218543,8.188637
224,1747638625.3586583,1.6894279,-2.2399478,1.264769,-3.2741413,1.5281107,7.855114
225,1747638625.3736396,1.7626333,-2.1921096,1.6015568,-1.1145672,-0.51891476,7.352921
226,1747638625.3746727,1.7626333,-2.1921096,1.6015568,-1.1145672,-0.51891476,7.352921
227,1747638625.3891525,1.8012025,-2.1118,1.3638601,-0.21112408,-1.1920685,7.2154803
228,1747638625.4047208,1.7594624,-1.9707551,0.7115354,0.36215606,-1.5084873,7.166002
229,1747638625.4057238,1.7594624,-1.9707551,0.7115354,0.36215606,-1.5084873,7.166002
230,1747638625.4195378,1.731168,-1.9024282,0.38182107,0.13660072,-0.9226848,7.565496
231,1747638625.4347024,1.7709265,-1.8760546,0.21684194,-0.38491014,-0.4291202,7.8654985
232,1747638625.4361475,1.7709265,-1.8760546,0.21684194,-0.38491014,-0.4291202,7.8654985
233,1747638625.4507127,1.8944398,-1.9112091,0.16412543,-1.6498221,0.46890163,8.31386
234,1747638625.465877,2.2565951,-2.049083,0.6822349,-3.0168219,0.843351,8.382886
235,1747638625.4668758,2.2565951,-2.049083,0.6822349,-3.0168219,0.843351,8.382886
236,1747638625.4811296,2.3949568,-2.0215204,0.8867591,-3.3240018,0.50921756,8.092733
237,1747638625.4968836,2.4435267,-1.9421866,1.0805204,-3.2461188,0.27770644,7.5679393
238,1747638625.4978867,2.4435267,-1.9421866,1.0805204,-3.2461188,0.27770644,7.5679393
239,1747638625.5116868,2.527983,-1.7320828,1.0829595,-3.1881645,0.35100812,7.601536
240,1747638625.5270514,2.9626117,-1.5021913,0.8110839,-3.7066212,0.39926505,7.606423
241,1747638625.5280929,2.9626117,-1.5021913,0.8110839,-3.7066212,0.39926505,7.606423
242,1747638625.5422876,3.515632,-1.112443,0.84038436,-4.735288,0.5745782,7.158672
243,1747638625.5434194,3.515632,-1.112443,0.84038436,-4.735288,0.5745782,7.158672
244,1747638625.5576503,4.046669,-0.6390007,1.0197546,-5.4692974,0.951471,6.63823
245,1747638625.573322,4.8386054,0.5160972,1.6022886,-6.6767898,2.5714378,5.0805693
246,1747638625.5743885,4.8386054,0.5160972,1.6022886,-6.6767898,2.5714378,5.0805693
247,1747638625.5889008,5.079961,0.8638614,1.9676453,-7.1298094,3.3717241,3.8893409
248,1747638625.604467,4.9049816,1.40807,3.6095703,-7.256942,3.1670904,1.4764178
249,1747638625.6054668,4.9049816,1.40807,3.6095703,-7.256942,3.1670904,1.4764178
250,1747638625.619601,4.9047375,1.6191798,4.809061,-5.89857,2.3698583,0.5192202
251,1747638625.6342707,4.685334,2.0542967,5.870678,-3.9707363,1.4596959,-0.06474981
252,1747638625.6352973,4.685334,2.0542967,5.870678,-3.9707363,1.4596959,-0.06474981
253,1747638625.6500442,5.2376227,2.4108725,6.5505958,0.42881477,-0.64291674,-0.58710057
254,1747638625.665121,6.1059356,2.11802,5.125848,4.1149726,-0.22815146,-3.554673
255,1747638625.666124,6.1059356,2.11802,5.125848,4.1149726,-0.22815146,-3.554673
256,1747638625.680916,5.777197,1.7146122,4.585511,4.3785534,0.207459,-4.4251304
257,1747638625.6965592,4.934526,0.8265117,4.0720363,4.8178287,1.3436348,-5.828323
258,1747638625.6975598,4.934526,0.8265117,4.0720363,4.8178287,1.3436348,-5.828323
259,1747638625.7124043,3.7201257,-0.10622571,3.2186024,5.554892,1.6264572,-6.6248674
260,1747638625.7134078,3.7201257,-0.10622571,3.2186024,5.554892,1.6264572,-6.6248674
261,1747638625.7273352,3.7201257,-0.10622571,3.2186024,5.9393444,1.423045,-6.899138
262,1747638625.7424784,2.9877658,-0.35980758,2.3014758,5.689508,0.7602758,-6.9541144
263,1747638625.7435362,2.7888517,-0.4364279,2.0349967,5.689508,0.7602758,-6.9541144
264,1747638625.7580404,2.634361,-0.46865538,1.7501935,5.4545608,0.71507305,-6.873482
265,1747638625.7733095,2.5130734,-0.5018281,1.3809342,5.0589604,0.991176,-6.848438
266,1747638625.7743168,2.5130734,-0.5018281,1.3809342,5.0589604,0.991176,-6.848438
267,1747638625.7880054,2.2848895,-0.55576414,0.9336215,4.3274713,1.5250565,-6.9412866
268,1747638625.8034766,1.9986227,-0.6331162,0.86331254,3.5996466,1.7119758,-7.0487957
269,1747638625.8045137,1.8270577,-0.6926929,0.922127,3.5996466,1.7119758,-7.0487957
270,1747638625.8186345,1.6899157,-0.7783381,0.9563058,3.7255573,1.4627501,-7.092777
271,1747638625.8345003,1.637931,-0.95209825,0.7330001,4.2065234,0.8732825,-7.2302175
272,1747638625.836119,1.637931,-0.95209825,0.7330001,4.2065234,0.8732825,-7.2302175
273,1747638625.8498526,1.5647255,-1.0048147,0.45649004,4.3355646,0.65765345,-7.3517756
274,1747638625.865084,1.5185946,-1.0428962,0.26004565,4.1978188,0.5929036,-7.434851
275,1747638625.8660913,1.5185946,-1.0428962,0.26004565,4.1978188,0.5929036,-7.434851
276,1747638625.8806999,1.4209671,-0.9445368,0.087992944,3.49313,0.5605287,-7.4855514
277,1747638625.8963604,1.3162658,-0.8852346,0.017470533,2.37841,0.9496384,-7.144088
278,1747638625.897361,1.3162658,-0.8852346,0.017470533,2.37841,0.9496384,-7.144088
279,1747638625.9114783,1.1852217,-0.8386161,0.20293866,1.8943137,0.923372,-6.9541144
280,1747638625.92684,1.11226,-0.7995589,0.4674663,1.4313679,0.39682165,-6.5136933
281,1747638625.9278874,1.11226,-0.7995589,0.4674663,1.4313679,0.39682165,-6.5136933
282,1747638625.9426684,1.2250104,-0.77906984,0.6056146,1.4767996,-0.37047887,-6.127638
283,1747638625.9438033,1.2928499,-0.7397688,0.4982303,1.4767996,-0.37047887,-6.127638
284,1747638625.9577532,1.2928499,-0.7397688,0.4982303,1.4767996,-0.37047887,-6.127638
285,1747638625.9726093,1.4080395,-0.62775004,0.3618199,1.1409863,0.16531055,-5.8490915
286,1747638625.9736123,1.4080395,-0.62775004,0.3618199,1.1409863,0.16531055,-5.8490915
287,1747638625.9879673,1.4134057,-0.5879916,0.67223436,0.99079424,1.0656995,-5.7134833
288,1747638626.0039828,1.4234062,-0.60872453,0.7522695,1.2350568,1.0266051,-5.6364403
289,1747638626.0053446,1.4234062,-0.60872453,0.7522695,1.2350568,1.0266051,-5.6364403
290,1747638626.019772,1.3074849,-0.6655876,0.8481897,1.735417,0.26610035,-5.5319853
291,1747638626.0352256,0.8650505,-0.50865775,0.56387436,2.6177096,-0.14385453,-4.9718385
292,1747638626.0362413,0.8650505,-0.50865775,0.56387436,2.6177096,-0.14385453,-4.9718385
293,1747638626.050467,0.7434885,-0.6055536,0.33569032,2.9610057,0.15614784,-4.6963463
294,1747638626.0661707,0.31617698,-0.8461774,-0.014513042,3.448233,0.507385,-4.483161
295,1747638626.0672596,0.31617698,-0.8461774,-0.014513042,3.448233,0.507385,-4.483161
296,1747638626.0817382,-0.016220458,-0.94575644,-0.36105764,3.4850364,0.69186085,-4.3481636
297,1747638626.0828042,-0.54481834,-1.2940085,-0.8579464,3.4850364,0.69186085,-4.3481636
298,1747638626.0968869,-0.89282644,-1.4760617,-1.0936918,2.582815,0.9197069,-3.690281
299,1747638626.1120422,-1.0539029,-1.7654994,-1.2342489,2.1410196,0.90626824,-3.5284064
300,1747638626.1130455,-1.0539029,-1.7654994,-1.2342489,2.1410196,0.90626824,-3.5284064
301,1747638626.1268568,-2.0771945,-2.671406,-0.9472504,1.7902406,1.287437,-3.4532723
302,1747638626.1416097,-2.6099389,-3.079448,-0.73812234,2.607707,0.7517239,-3.4111238
303,1747638626.1568928,-3.0216396,-3.4448044,-0.77056324,3.7697675,0.051616594,-3.150292
304,1747638626.1578963,-3.3552568,-3.761561,-1.0744225,4.908158,-0.5396836,-2.6511536
305,1747638626.1727226,-3.539261,-3.8630912,-1.9095322,5.4826593,-0.8243384,-2.089174
306,1747638626.173723,-3.539261,-3.8630912,-1.9095322,5.733718,-1.0491302,-0.65307206
307,1747638626.187893,-3.4519088,-3.6573477,-2.2111657,5.10256,-1.4351857,0.46607646
308,1747638626.2028928,-3.0533793,-3.2551594,-2.5413678,3.858264,-1.5103198,1.8753011
309,1747638626.2040803,-3.0533793,-3.2551594,-2.5413678,3.858264,-1.5103198,1.8753011
310,1747638626.2181134,-2.0376494,-2.511305,-2.555271,0.89924353,0.0015271181,4.581431
311,1747638626.2341478,-0.29468182,-2.0735052,-1.6954952,-2.5775464,1.4041088,6.805602
312,1747638626.2351913,-0.29468182,-2.0735052,-1.6954952,-2.5775464,1.4041088,6.805602
313,1747638626.2500246,0.36084422,-1.8477603,-1.2059544,-3.5782669,1.4346511,7.0316157
314,1747638626.2655902,1.2757757,-1.4680125,-0.53384215,-4.2692113,1.5384952,6.7946067
315,1747638626.266659,1.2757757,-1.4680125,-0.53384215,-4.2692113,1.5384952,6.7946067
316,1747638626.2816243,1.6003373,-1.2454386,-0.055033702,-4.1539903,0.91237676,6.1764293
317,1747638626.29761,1.5827752,-1.0663122,0.0638147,-3.9296567,0.114533864,5.8477936
318,1747638626.2986088,1.5129846,-0.9872528,0.097749606,-3.7620556,-0.30023143,5.7109637
319,1747638626.312528,1.38316,-0.91523635,0.10823802,-3.6218662,-0.5873296,5.701801
320,1747638626.313529,1.38316,-0.91523635,0.10823802,-3.6218662,-0.5873296,5.701801
321,1747638626.3282192,1.2838249,-0.9813987,0.11823861,-3.6704285,-0.5115846,6.0316586
322,1747638626.3441336,1.1932709,-1.0721662,0.16046669,-3.8112288,-0.48776153,6.1629906
323,1747638626.3451343,1.1932709,-1.0721662,0.16046669,-3.8112288,-0.48776153,6.1629906
324,1747638626.3594542,1.3328826,-1.2966914,0.1533931,-4.154601,-0.44133714,6.4751334
325,1747638626.3747132,1.7248262,-1.4609389,0.5470441,-4.487284,-0.4199575,6.3633485
326,1747638626.3757489,1.7248262,-1.4609389,0.5470441,-4.487284,-0.4199575,6.3633485
327,1747638626.3896644,1.7946168,-1.4309067,0.73519534,-4.358319,-0.6270347,6.157493
328,1747638626.4048731,1.7614138,-1.4001732,0.8508729,-3.798172,-1.1908467,5.7079096
329,1747638626.405873,1.6511024,-1.3540424,0.9360608,-3.798172,-1.1908467,5.7079096
330,1747638626.4204557,1.4229183,-1.3001063,1.0063392,-3.3009422,-1.6196615,5.6101737
331,1747638626.4356236,1.3162658,-1.3216015,0.9706969,-2.904655,-1.8798825,5.5997896
332,1747638626.4366257,1.3162658,-1.3216015,0.9706969,-2.904655,-1.8798825,5.5997896
333,1747638626.4507997,1.2623297,-1.3616039,0.8208711,-2.2641816,-2.2622728,5.6914167
334,1747638626.4667728,1.1164066,-1.3642869,0.6270793,-2.0809276,-2.6844447,6.001727
335,1747638626.4678524,1.1164066,-1.3642869,0.6270793,-2.0809276,-2.6844447,6.001727
336,1747638626.4824436,1.1103088,-1.4133447,0.56094736,-2.1264358,-2.4833996,6.345023
337,1747638626.4835193,1.1103088,-1.4133447,0.56094736,-2.1264358,-2.4833996,6.345023
338,1747638626.4967918,1.4995692,-1.5041426,0.61098075,-2.3501585,-2.02221,6.9479294
339,1747638626.5126724,1.8441625,-1.5502734,0.8598978,-2.5420408,-2.125443,6.9754176
340,1747638626.5136726,1.8441625,-1.5502734,0.8598978,-2.5457823,-2.080851,6.9027267
341,1747638626.5282967,1.8441625,-1.5502734,0.8598978,-2.5457823,-2.080851,6.9027267
342,1747638626.5439665,1.9588642,-1.3316021,1.0812521,-1.8361305,-1.8102459,6.889899
343,1747638626.5450437,1.9588642,-1.3316021,1.0812521,-1.8361305,-1.8102459,6.889899
344,1747638626.5592418,2.2665956,-1.1675986,0.78108215,-1.6311148,-1.5188717,7.30894
345,1747638626.574673,2.5511549,-1.0094491,0.62098134,-1.9663173,-1.0210311,7.5129633
346,1747638626.5756736,2.5511549,-1.0094491,0.62098134,-1.9663173,-1.0210311,7.5129633
347,1747638626.5894477,3.1310058,-0.77224016,0.7237313,-3.0404923,-0.32771957,7.4427156
348,1747638626.604804,3.4362981,0.09021868,1.5732626,-4.0716786,-1.0882244,6.9118896
349,1747638626.6058085,3.4362981,0.09021868,1.5732626,-4.0716786,-1.0882244,6.9118896
350,1747638626.6205013,3.80385,0.51975596,1.929076,-3.9545488,-1.3142378,6.733522
351,1747638626.6365886,4.324887,1.008321,2.2190013,-3.4641912,-1.2110047,5.933312
352,1747638626.6375914,4.8651924,1.2699522,2.2556195,-3.4641912,-1.2110047,5.933312
353,1747638626.6524165,5.368667,1.8293141,2.323215,-3.381345,-0.003970507,4.384738
354,1747638626.6534176,5.368667,1.8293141,2.323215,-3.381345,-0.003970507,4.384738
355,1747638626.667619,5.017,2.5658205,3.3555312,-4.1962914,0.9093225,2.4361353
356,1747638626.682858,4.885468,2.6556427,4.0178566,-4.350836,0.63810635,1.7054856
357,1747638626.683962,4.885468,2.6556427,4.0178566,-4.350836,0.63810635,1.7054856
358,1747638626.6981423,4.16503,2.8352568,5.681307,-2.5881598,0.38949147,0.054365408
359,1747638626.7137887,4.425197,2.7520509,5.9292483,-1.1064734,0.3442888,-0.28098974
360,1747638626.714852,4.425197,2.7520509,5.9292483,-1.1064734,0.3442888,-0.28098974
361,1747638626.7293632,5.1465807,2.0906708,5.5407195,1.6151565,1.7767256,-1.7770311
362,1747638626.7441444,4.7754006,0.78574705,4.734636,5.043384,2.707046,-4.1899543
363,1747638626.7451465,4.7754006,0.78574705,4.734636,5.043384,2.707046,-4.1899543
364,1747638626.7594292,4.4784017,0.39063254,4.209697,6.1000733,2.5665512,-4.8600535
365,1747638626.7746298,3.734791,-0.1870231,1.9341983,7.2484665,2.3765776,-5.627278
366,1747638626.7756789,3.734791,-0.1870231,1.9341983,7.1824183,2.766298,-5.8454266
367,1747638626.7898612,3.3299198,-0.21873227,1.243792,6.0221906,3.1970217,-5.96332
368,1747638626.8050845,3.106858,-0.22287886,1.1290903,4.9168625,3.0143785,-6.0091333
369,1747638626.806087,3.106858,-0.22287886,1.1290903,4.9168625,3.0143785,-6.0091333
370,1747638626.8207743,2.9011145,-0.17016236,1.3934045,3.2837622,2.5793788,-5.951103
371,1747638626.8358874,2.8830645,-0.31074983,1.5842388,2.9616165,2.730869,-6.075105
372,1747638626.8368874,2.8830645,-0.31074983,1.5842388,2.9616165,2.730869,-6.075105
373,1747638626.8514016,2.8916016,-0.40005383,1.4834403,3.1068456,2.9520721,-6.2895126
374,1747638626.8667903,2.4332821,-0.59116256,1.1805872,3.466329,3.66432,-6.8093433
375,1747638626.8678071,2.4332821,-0.59116256,1.1805872,3.466329,3.66432,-6.8093433
376,1747638626.8825443,1.7165027,-0.82983494,0.97777045,4.4426923,3.560476,-7.0206966
377,1747638626.883584,1.7165027,-0.82983494,0.97777045,4.4426923,3.560476,-7.0206966
378,1747638626.8972342,1.5315223,-0.95234215,0.7564161,4.8857093,3.1194441,-7.031692
379,1747638626.9128268,1.3370292,-1.0240841,0.56363046,5.1698294,2.6209166,-7.0286374
380,1747638626.913832,1.3370292,-1.0240841,0.56363046,5.1698294,2.6209166,-7.0286374
381,1747638626.9288347,1.1344564,-1.021889,0.26907057,5.2421384,1.4816864,-6.867985
382,1747638626.9447987,1.0910088,-0.99627763,-0.007927292,4.3112073,0.61122906,-6.520413
383,1747638626.9447987,1.1842458,-0.97673386,-0.15580177,4.3112073,0.61122906,-6.520413
384,1747638626.9599245,1.2381821,-0.9647819,-0.24513626,3.877582,0.69186085,-6.539349
385,1747638626.9752126,1.157415,-0.9843257,-0.20120077,2.7983677,1.1976424,-6.695115
386,1747638626.9758134,1.157415,-0.9843257,-0.20120077,2.7983677,1.1976424,-6.695115
387,1747638626.9905605,0.97828877,-1.0018877,-0.008902958,2.239519,1.438927,-6.695115
388,1747638627.0065477,0.82892036,-0.9708798,0.12043386,2.0345032,1.4053304,-6.574778
389,1747638627.0065477,0.82892036,-0.9708798,0.12043386,2.0345032,1.4053304,-6.574778
390,1747638627.0217283,0.6285428,-0.8757219,0.35252056,1.9858644,1.039433,-6.0854893
391,1747638627.0363944,0.74422026,-0.733183,0.2080609,2.1042924,0.35039726,-5.3438444
392,1747638627.0380044,0.74422026,-0.733183,0.2080609,2.1042924,0.35039726,-5.3438444
393,1747638627.0521963,0.8245299,-0.7053765,0.17290643,1.8787371,0.45240876,-5.1599793
394,1747638627.0531964,0.8245299,-0.7053765,0.17290643,1.8787371,0.45240876,-5.1599793
395,1747638627.067528,0.80745566,-0.63336015,0.33227548,1.5291798,0.587406,-5.0756826
396,1747638627.083513,0.4603927,-0.4564291,0.8135231,1.9902167,0.22639526,-4.369543
397,1747638627.0845904,0.4603927,-0.4564291,0.8135231,1.9902167,0.22639526,-4.369543
398,1747638627.099573,0.54119015,-0.439111,0.724463,2.5522726,0.024128467,-3.9272897
399,1747638627.115616,0.7769356,-0.43935493,0.3530084,3.0469825,0.24410984,-3.2804024
400,1747638627.1166997,0.7769356,-0.43935493,0.3530084,3.0469825,0.24410984,-3.2804024
401,1747638627.1308987,0.76205665,-0.45277032,0.30959123,3.0120878,0.18791188,-3.133799
402,1747638627.1459892,0.4794487,-0.49085182,0.30251765,3.1329591,-0.09193251,-2.913818
403,1747638627.1470191,0.4794487,-0.49085182,0.30251765,3.1329591,-0.09193251,-2.913818
404,1747638627.161057,0.2034265,-0.46450883,0.21635409,3.3080432,-0.14141114,-2.7299528
405,1747638627.1762583,-0.36252114,-0.63558584,-0.33934906,3.1903026,0.21478917,-1.9810541
406,1747638627.1773083,-0.36252114,-0.63558584,-0.33934906,3.1903026,0.21478917,-1.9810541
407,1747638627.1919646,-0.52408546,-0.77614284,-0.52530503,2.8251686,0.34917557,-1.5754515
408,1747638627.1930554,-0.52408546,-0.77614284,-0.52530503,2.8251686,0.34917557,-1.5754515
409,1747638627.2074904,-0.83547556,-1.1190287,-0.8862408,1.9915148,0.22639526,-1.3482163
410,1747638627.2234821,-1.110766,-1.3235528,-1.0356092,1.3877686,0.39682165,-1.3781477
411,1747638627.2245579,-1.110766,-1.3235528,-1.0356092,1.3877686,0.39682165,-1.3781477
412,1747638627.2390478,-1.9720054,-1.5907636,-0.9682577,0.85503346,1.2507861,-1.7904696
413,1747638627.254191,-2.4637718,-1.8038248,-0.8935582,0.96277165,1.2550621,-1.6591375
414,1747638627.2552245,-2.4637718,-1.8038248,-0.8935582,0.96277165,1.2550621,-1.6591375
415,1747638627.269071,-2.5447826,-2.007373,-1.1444571,1.5304015,-0.013744064,-0.89985436
416,1747638627.2842524,-2.6333854,-2.0266426,-1.3826417,1.8032975,-0.11880979,-0.6793385
417,1747638627.2852495,-2.6333854,-2.0266426,-1.3826417,1.8032975,-0.11880979,-0.6793385
418,1747638627.2997167,-2.7456481,-2.0776517,-1.9209963,1.9148535,-0.29045787,-0.36597386
419,1747638627.3151226,-2.729031,-1.9763654,-2.2302217,0.4244625,-0.7156076,0.6536066
420,1747638627.3161323,-2.729031,-1.9763654,-2.2302217,0.4244625,-0.7156076,0.6536066
421,1747638627.3304236,-2.495237,-1.9702673,-2.22266,-0.18928629,-0.40957308,1.1630532
422,1747638627.3461046,-2.0852437,-1.9739261,-1.8602304,-1.5688084,0.49089214,2.2466962
423,1747638627.347178,-2.0852437,-1.9739261,-1.8602304,-1.5688084,0.49089214,2.2466962
424,1747638627.3613508,-1.7467482,-1.9426744,-1.6479315,-2.5114985,0.38765895,3.2051919
425,1747638627.3633723,-1.7467482,-1.9426744,-1.6479315,-3.0442336,0.42003384,4.0188403
426,1747638627.3763537,-1.0077722,-1.7550108,-1.2022958,-3.4698415,0.35955995,5.007802
427,1747638627.3924642,-0.5724114,-1.7769635,-0.98874676,-3.8997252,0.33695862,5.8361874
428,1747638627.3935995,-0.5724114,-1.7769635,-0.98874676,-3.8997252,0.33695862,5.8361874
429,1747638627.408398,-0.0045124586,-1.9299905,-0.44795296,-4.448037,1.2410126,6.2387357
430,1747638627.4231343,0.012592198,-1.814313,-0.054789785,-4.1988115,1.3607386,6.225908
431,1747638627.4242096,0.012592198,-1.814313,-0.054789785,-4.1988115,1.3607386,6.225908
432,1747638627.4384146,0.3940169,-1.6840007,-0.12043386,-3.6049914,0.30152947,6.397556
433,1747638627.4539466,0.95557404,-1.674488,-0.30834118,-3.8361971,-0.3735331,6.657166
434,1747638627.454947,0.95557404,-1.674488,-0.30834118,-3.8361971,-0.3735331,6.657166
435,1747638627.469106,1.252817,-1.7835797,-0.3032189,-4.22126,-0.23120569,6.8685193
436,1747638627.4842317,1.3975511,-1.9243805,-0.16851594,-4.7197113,0.057725064,7.1024737
437,1747638627.485302,1.4619756,-2.0261548,0.098725274,-4.7197113,0.057725064,7.1024737
438,1747638627.49956,1.5964346,-2.2208917,0.5831438,-5.2374806,0.28320405,7.728058
439,1747638627.5150087,1.7047945,-2.350747,0.9626477,-4.8019466,0.06933116,7.8282366
440,1747638627.5160382,1.7047945,-2.350747,0.9626477,-4.8019466,0.06933116,7.8282366
441,1747638627.5303404,1.8929459,-2.3219342,1.3902336,-3.289718,-1.1065499,7.5441165
442,1747638627.5456655,1.9420036,-2.1742733,0.91651684,-1.7151828,-2.6978834,6.829425
443,1747638627.5467417,1.9420036,-2.1742733,0.91651684,-1.7151828,-2.6978834,6.829425
444,1747638627.5609818,1.8709933,-2.1169221,0.7344636,-1.5607147,-3.110816,6.688319
445,1747638627.5763757,1.7370222,-2.0686269,0.63854337,-1.6553961,-3.2757447,6.6877084
446,1747638627.5773776,1.7370222,-2.0686269,0.63854337,-1.6553961,-3.2757447,6.6877084
447,1747638627.5916135,1.5456694,-2.133783,0.6024437,-2.0603878,-2.9770405,7.3034425
448,1747638627.606608,1.8959033,-2.2555585,0.5616791,-2.9426804,-2.225622,8.617452
449,1747638627.6076777,1.8959033,-2.2555585,0.5616791,-2.9426804,-2.225622,8.617452
450,1747638627.6220233,2.182658,-2.3109581,0.558996,-3.361416,-1.9238634,8.717019
451,1747638627.6230257,2.182658,-2.3109581,0.558996,-3.361416,-1.9238634,8.717019
452,1747638627.637998,2.516976,-2.3453503,0.89261305,-3.8468106,-1.737555,8.223454
453,1747638627.6532342,2.4728272,-2.1381736,1.2967526,-3.698451,-1.9354695,7.7604327
454,1747638627.6542363,2.4728272,-2.1381736,1.2967526,-3.698451,-1.9354695,7.7604327
455,1747638627.6689277,2.56579,-1.7166854,1.2840688,-2.7669854,-1.9996085,7.747605
456,1747638627.6845891,2.8559594,-1.3516033,0.8586781,-2.320227,-1.9507407,7.406065
457,1747638627.685589,2.8559594,-1.3516033,0.8586781,-2.320227,-1.9507407,7.406065
458,1747638627.6997757,3.0944183,-1.1395177,0.5346044,-2.5582283,-1.8224628,7.04933
459,1747638627.7154956,3.3174496,-0.99115545,0.43453756,-3.1731987,-1.9140899,6.757345
460,1747638627.7165234,3.3174496,-0.99115545,0.43453756,-3.1731987,-1.9140899,6.757345
461,1747638627.7241879,3.4597445,-0.8339815,0.4223417,-4.6798534,-1.9226418,6.494681
462,1747638627.7337549,3.692563,-0.33001924,1.1744893,-6.109847,-1.1193776,6.437261
463,1747638627.7444782,3.8807144,-0.13772145,1.8856283,-6.6070004,-0.20371756,6.2448444
464,1747638627.756278,3.8807144,-0.13772145,1.8856283,-6.6070004,-0.20371756,6.2448444
465,1747638627.7638335,4.1225576,-0.008140719,2.619482,-6.374649,0.84457266,5.814197
466,1747638627.773344,4.194574,0.17687008,3.1073458,-5.807019,1.5983582,5.3114696
467,1747638627.7828767,4.7192693,0.9348716,4.2743654,-4.609453,2.2440238,4.485528
468,1747638627.7937496,4.7192693,0.9348716,4.2743654,-0.28152424,-1.4883293,1.9296665
469,1747638627.8043091,4.8051586,1.5198448,4.268999,-0.28152424,-1.4883293,1.9296665
470,1747638627.81403,4.69314,1.9293504,3.8770556,0.65001786,-3.1578512,1.2638429
471,1747638627.823532,5.251038,2.3771813,3.3120832,1.189625,-3.763201,0.79165804
472,1747638627.8412278,5.9873314,2.0340514,3.481697,1.5416257,-0.8829797,-0.5767162
473,1747638627.8563664,6.0012345,1.3180343,3.4982834,2.0021284,1.0449306,-1.7935239
474,1747638627.8573673,6.0012345,1.3180343,3.4982834,2.0021284,1.0449306,-1.7935239
475,1747638627.8714142,5.3759847,1.0156385,3.421663,2.8077595,3.8579586,-3.8448253
476,1747638627.8866174,4.5533147,0.22470824,3.2774475,4.2707386,5.173113,-4.8441715
477,1747638627.8876648,4.5533147,0.22470824,3.2774475,4.2707386,5.173113,-4.8441715
478,1747638627.9018376,4.4693766,-0.045216054,3.181771,4.900064,3.9098806,-5.417757
479,1747638627.9034991,4.4693766,-0.045216054,3.181771,4.900064,3.9098806,-5.417757
480,1747638627.917731,3.8265343,-0.49036402,2.785437,5.3729362,0.6161158,-6.4135146
481,1747638627.9324765,3.792386,-0.6194569,2.2851334,5.534963,-1.1871816,-6.7568107
482,1747638627.9334798,3.9729755,-0.6619289,1.8319361,5.3056664,-1.0234746,-7.070175
483,1747638627.947252,4.0620356,-0.6165299,1.1354321,4.713145,0.46279314,-7.264425
484,1747638627.9623587,3.9954162,-0.6399763,0.8826125,3.9286642,1.9654775,-7.36216
485,1747638627.9634354,3.9954162,-0.6399763,0.8826125,3.9286642,1.9654775,-7.36216
486,1747638627.977587,3.0971014,-0.7270851,1.1310416,2.125443,4.444983,-7.324288
487,1747638627.9931762,2.7071092,-0.89157635,1.4087713,1.9229472,4.3466363,-7.2699223
488,1747638627.9941878,2.7071092,-0.89157635,1.4087713,1.9229472,4.3466363,-7.2699223
489,1747638628.0089023,2.1433568,-1.0987836,1.6725671,2.744155,3.3191912,-7.447068
490,1747638628.0248353,1.5639937,-1.3245285,1.252817,4.520575,1.8622442,-7.659032
491,1747638628.0258365,1.5639937,-1.3245285,1.252817,4.520575,1.8622442,-7.659032
492,1747638628.040673,1.2957767,-1.3608721,0.95191526,5.158605,1.5103962,-7.4452353
493,1747638628.0564446,1.2386699,-1.4138325,0.53875095,5.609716,1.2825502,-7.121486
494,1747638628.0574841,1.2386699,-1.4138325,0.53875095,5.609716,1.2825502,-7.121486
495,1747638628.0717103,1.3399562,-1.4133447,0.30202982,5.4227967,1.223298,-7.07384
496,1747638628.0869286,1.3204124,-1.406515,0.18168743,5.087594,1.1707652,-7.1703544
497,1747638628.0880058,1.3204124,-1.406515,0.18168743,4.79538,1.1255624,-7.286415
498,1747638628.1025665,1.1798553,-1.3928556,0.24663025,4.462621,0.98934346,-7.4012547
499,1747638628.1039877,1.0536895,-1.3659943,0.30520073,4.3105965,0.79448324,-7.397589
500,1747638628.1176388,0.88310033,-1.2937646,0.300048,4.113064,0.2679329,-7.235104
501,1747638628.132896,0.7732768,-1.2590978,0.25199643,3.8445199,-0.021685077,-7.0775056
502,1747638628.133904,0.7732768,-1.2590978,0.25199643,3.8445199,-0.021685077,-7.0775056
503,1747638628.1479821,0.63000625,-1.1317123,0.29053524,3.1877828,-0.22326468,-6.644415
504,1747638628.1635387,0.6707708,-0.91990125,0.1665646,2.1753035,0.044897273,-6.0005817
505,1747638628.164565,0.6707708,-0.91990125,0.1665646,2.1753035,0.044897273,-6.0005817
506,1747638628.1787014,0.72275555,-0.8583732,0.13680676,1.5397933,0.38216132,-5.748302
507,1747638628.1939611,0.6822349,-0.77248406,0.25248423,0.823193,0.57030225,-5.44891
508,1747638628.1950262,0.6822349,-0.77248406,0.25248423,0.823193,0.57030225,-5.44891
509,1747638628.2088895,0.5536299,-0.64192766,0.8337987,-0.14690876,0.6826982,-4.4605594
510,1747638628.2244065,0.51262134,-0.59921175,1.3394684,-0.03229855,0.41636875,-4.0433507
511,1747638628.225407,0.51262134,-0.59921175,1.3394684,-0.03229855,0.41636875,-4.0433507
512,1747638628.2396195,0.47749737,-0.48865658,1.9388326,1.5615547,0.027182704,-3.7159367
513,1747638628.2550282,0.50530386,-0.72952425,1.4707565,5.661485,0.013744064,-3.3958526
514,1747638628.2560763,0.50530386,-0.72952425,1.4707565,5.661485,0.013744064,-3.3958526
515,1747638628.270174,0.42039037,-0.85666585,0.89285696,6.546832,-0.48165306,-3.3445415
516,1747638628.285348,0.32861674,-0.9054797,0.07186395,7.1879926,-1.1566393,-3.042783
517,1747638628.2863483,0.32861674,-0.9054797,0.07186395,7.1879926,-1.1566393,-3.042783
518,1747638628.3005605,0.28955957,-0.6872962,-1.4084969,5.7343287,-1.5714046,-1.745267
519,1747638628.3158894,0.083602436,-0.4623136,-1.8694992,1.1746593,0.9013815,-0.40384638
520,1747638628.3169537,0.083602436,-0.4623136,-1.8694992,1.1746593,0.9013815,-0.40384638
521,1747638628.3319619,-0.12604393,-0.5757653,-1.399228,-0.23479441,2.1872149,-0.24861483
522,1747638628.3329618,-0.12604393,-0.5757653,-1.399228,-0.23479441,2.1872149,-0.24861483
523,1747638628.3478997,-1.0512199,-1.0043269,-0.21290876,0.40392274,2.5146291,-1.0397384
524,1747638628.363197,-1.4809706,-1.1756479,-0.34691048,1.4394616,1.6508911,-1.2187166
525,1747638628.3642519,-1.4809706,-1.1756479,-0.34691048,1.4394616,1.6508911,-1.2187166
526,1747638628.3784237,-2.0915854,-1.5034109,-1.55006,3.2744467,-1.2342169,-2.0427496
527,1747638628.3936496,-2.7432086,-1.4338336,-2.6140854,2.1616356,-2.6997159,-2.1789684
528,1747638628.394711,-2.7432086,-1.4338336,-2.6140854,2.1616356,-2.6997159,-2.1789684
529,1747638628.4086378,-2.8808389,-1.4931663,-2.5435631,1.0506573,-2.4638524,-1.6872364
530,1747638628.424237,-2.7961388,-1.6735123,-1.9468818,0.20387027,-1.9134791,-0.90840626
531,1747638628.4252374,-2.7961388,-1.6735123,-1.9468818,-0.16874656,-1.4895511,-0.31954947
532,1747638628.4400957,-2.645581,-1.6703414,-1.804587,-0.57870144,-0.8194516,0.563812
533,1747638628.455375,-1.9754201,-1.634699,-1.8785548,-1.8030684,0.33329353,1.5601039
534,1747638628.456459,-1.9754201,-1.634699,-1.8785548,-1.8030684,0.33329353,1.5601039
535,1747638628.4704773,-1.8241003,-1.6156735,-1.7919034,-2.3283207,0.3558949,1.6724998
536,1747638628.4857962,-1.3138267,-1.5949101,-1.3843491,-3.406848,-0.0387888,1.9351641
537,1747638628.4868374,-1.3138267,-1.5949101,-1.3843491,-3.406848,-0.0387888,1.9351641
538,1747638628.501588,-1.0851548,-1.5368274,-1.0914966,-3.6361446,-0.2507528,2.015185
539,1747638628.5025918,-1.0851548,-1.5368274,-1.0914966,-3.6361446,-0.2507528,2.015185
540,1747638628.5172632,-0.8479153,-1.47533,-0.6665938,-3.6997492,-0.54945713,2.1801138
541,1747638628.5324929,-0.768368,-1.3960266,-0.49185795,-3.457319,-0.87809294,2.4825597
542,1747638628.5334961,-0.7010165,-1.3657504,-0.38154665,-3.1321194,-0.8481614,2.8142498
543,1747638628.5473006,-0.7061388,-1.1963807,-0.26733267,-2.8454792,-0.7663079,3.2473404
544,1747638628.562673,-0.5067369,-1.1382982,-0.33739772,-2.5937338,-0.56533915,3.8936167
545,1747638628.5637171,-0.5067369,-1.1382982,-0.33739772,-2.5937338,-0.56533915,3.8936167
546,1747638628.578152,-0.13945936,-1.027499,-0.42401865,-2.6952872,-0.09743014,4.502021
547,1747638628.593899,0.2705341,-1.0250598,-0.33300725,-3.0136914,0.3326827,4.82577
548,1747638628.5949378,0.2705341,-1.0250598,-0.33300725,-3.231153,0.17630579,4.8666964
549,1747638628.6088195,0.35986856,-1.0211571,-0.16900377,-3.3801234,-0.30328566,4.863642
550,1747638628.6244621,0.45624614,-1.0335969,0.14973435,-3.1376934,-1.3368392,5.189911
551,1747638628.625464,0.45624614,-1.0335969,0.14973435,-3.1376934,-1.3368392,5.189911
552,1747638628.639666,0.61098075,-1.0675318,0.13827026,-2.8111954,-1.4052541,5.734787
553,1747638628.6550431,0.7927902,-1.1597934,0.046252698,-2.7937863,-1.2433796,6.0762506
554,1747638628.6561394,0.7927902,-1.1597934,0.046252698,-2.7937863,-1.2433796,6.0762506
555,1747638628.6701078,1.1891243,-1.3462372,-0.066009946,-3.2330618,-0.5427378,6.7121425
556,1747638628.6853588,1.4282845,-1.6974162,0.11726294,-4.7701826,0.19707459,6.6003575
557,1747638628.6863601,1.4282845,-1.6974162,0.11726294,-4.7701826,0.19707459,6.6003575
558,1747638628.700489,1.3389806,-1.8274847,0.47627777,-5.150893,-0.017409148,6.4268765
559,1747638628.7158625,1.2576953,-1.9163314,1.0478356,-4.756515,-1.6117204,6.1996417
560,1747638628.7159052,1.2576953,-1.9163314,1.0478356,-4.756515,-1.6117204,6.1996417
561,1747638628.7310312,1.3309313,-1.8684931,1.1359199,-3.6747808,-2.9336703,5.9950075
562,1747638628.7463286,1.4060881,-1.7938242,1.0129249,-3.1215057,-3.3258343,5.907046
563,1747638628.7473853,1.541279,-1.7354976,0.78083825,-3.1215057,-3.3258343,5.907046
564,1747638628.761736,1.7057703,-1.691562,0.61000514,-2.405593,-3.7125006,5.6474357
565,1747638628.7769523,1.700892,-1.6276255,0.7078767,-2.3881073,-4.083285,5.182581
566,1747638628.777953,1.700892,-1.6276255,0.7078767,-2.3881073,-4.083285,5.182581
567,1747638628.7920828,1.5261561,-1.4860623,0.9077358,-1.884082,-4.533479,5.106225
568,1747638628.7931576,1.5261561,-1.4860623,0.9077358,-1.884082,-4.533479,5.106225
569,1747638628.8075364,1.5105455,-1.4231013,0.90261364,-0.7326349,-4.9158697,5.162423
570,1747638628.8231845,1.7277533,-1.1761357,0.4911567,0.6973585,-5.752196,5.674313
571,1747638628.824255,1.7277533,-1.1761357,0.4911567,0.6973585,-5.752196,5.674313
572,1747638628.8384268,1.997647,-0.9220965,0.14241683,0.7466081,-5.623918,6.0316586
573,1747638628.853933,2.6370747,-0.54283655,-0.4896627,0.36276692,-4.9885607,6.5398836
574,1747638628.8549666,2.6370747,-0.54283655,-0.4896627,0.36276692,-4.9885607,6.5398836
575,1747638628.8690755,2.9413912,-0.08549279,-0.3588624,-2.535169,-2.614808,7.5667176
576,1747638628.8846855,3.6369195,0.43481195,1.0336579,-4.5826526,-1.4724473,7.545338
577,1747638628.8856885,3.6369195,0.43481195,1.0336579,-4.5826526,-1.4724473,7.545338
578,1747638628.8996198,4.0088315,0.6927843,1.6572002,-4.537144,-1.5145957,6.8581347
579,1747638628.914905,4.7654,1.5376507,2.622897,-2.7401845,-1.9599035,4.592426
580,1747638628.9159422,4.7654,1.5376507,2.622897,-2.7401845,-1.9599035,4.592426
581,1747638628.9300609,4.785157,1.966944,2.3861759,-2.0049534,-2.269603,3.5619268
582,1747638628.9451947,4.8393373,2.2119584,2.028167,-1.8410937,-2.2323413,2.6835284
583,1747638628.946198,4.920592,2.3025124,1.9598094,-2.2043188,-1.7167863,1.9162278
584,1747638628.9604964,4.88498,2.3984327,2.2695227,-2.5164616,-1.2403253,1.351805
585,1747638628.9760983,4.654357,2.4709063,3.4411764,-2.1277337,0.3406237,-0.099568106
586,1747638628.9771004,4.654357,2.4709063,3.4411764,-2.1277337,0.3406237,-0.099568106
587,1747638628.9913175,4.5918837,2.370108,3.6305776,-1.7170917,1.2202438,-0.4789806
588,1747638629.0068855,4.603104,1.9205693,3.929528,-0.9531508,2.5665512,-1.6347036
589,1747638629.0079591,4.603104,1.9205693,3.929528,-0.9531508,2.5665512,-1.6347036
590,1747638629.0220916,4.457394,1.5283818,4.2218924,1.7721442,2.502412,-3.9395068
591,1747638629.0231621,4.261925,1.201625,4.165761,1.7721442,2.502412,-3.9395068
592,1747638629.03675,4.261925,1.201625,4.165761,1.7721442,2.502412,-3.9395068
593,1747638629.0525806,3.6522863,0.2815713,2.1853104,5.43341,1.7706171,-6.3884697
594,1747638629.0535822,3.6522863,0.2815713,2.1853104,5.43341,1.7706171,-6.3884697
595,1747638629.0679789,3.444378,0.1729674,1.615704,5.5287023,1.7602327,-6.707943
596,1747638629.0837545,3.2503421,0.15561883,1.1454327,5.235266,1.8323127,-6.828891
597,1747638629.0837545,3.1290545,0.16735733,0.8755389,5.235266,1.8323127,-6.828891
598,1747638629.0988638,3.031427,0.16735733,0.68003964,4.372903,2.211649,-6.795294
599,1747638629.114776,2.5850897,-0.029849304,0.5711919,3.1186807,2.8354003,-6.7696385
600,1747638629.1158502,2.5850897,-0.029849304,0.5711919,3.1186807,2.8354003,-6.7696385
601,1747638629.130323,2.4347458,-0.105493955,0.53192127,3.0214796,2.7950842,-6.811176
602,1747638629.1458278,2.0420704,-0.25193545,0.37425965,2.8301318,2.634966,-6.9052463
603,1747638629.146424,2.0420704,-0.25193545,0.37425965,2.8301318,2.634966,-6.9052463
604,1747638629.1610992,1.6125636,-0.370296,0.3298363,2.7155216,2.5366197,-6.9516706
605,1747638629.1765492,1.1918073,-0.40029776,0.19220634,2.6451213,2.370469,-6.8539352
606,1747638629.1765492,1.1918073,-0.40029776,0.19220634,2.5317328,2.2373044,-6.673735
607,1747638629.1917396,1.0490551,-0.38566273,0.11140894,2.398339,2.2324176,-6.5057526
608,1747638629.2069035,0.8991988,-0.35663664,-0.060399864,1.7877209,2.6978834,-5.8081646
609,1747638629.2069035,0.8991988,-0.35663664,-0.060399864,1.7877209,2.6978834,-5.8081646
610,1747638629.2222257,0.8625808,-0.36541766,-0.044301365,1.6088953,2.8219616,-5.662783
611,1747638629.222785,0.8625808,-0.36541766,-0.044301365,1.6088953,2.8219616,-5.662783
612,1747638629.2379131,0.8738315,-0.40618226,0.040642615,1.4244958,2.9771168,-5.452575
613,1747638629.2530859,0.9006623,-0.4659723,0.14241683,1.6133239,2.5207376,-5.518547
614,1747638629.2540858,0.8628247,-0.4920714,0.09018819,1.7958146,2.1688895,-5.6156716
615,1747638629.26853,0.81452924,-0.5040233,-0.041099958,1.8880525,2.0363357,-5.6548424
616,1747638629.2838311,0.7164138,-0.51353604,-0.08479153,1.8581973,2.0375574,-5.6652265
617,1747638629.2843857,0.7164138,-0.51353604,-0.08479153,1.8581973,2.0375574,-5.6652265
618,1747638629.2997086,0.43600106,-0.4230125,-0.079425365,1.6076736,2.1646137,-5.142265
619,1747638629.315293,0.46210015,-0.38224792,-0.11628727,1.3602805,2.3380942,-4.6407595
620,1747638629.3162935,0.46210015,-0.38224792,-0.11628727,1.3602805,2.3380942,-4.6407595
621,1747638629.3313854,0.7725451,-0.42252466,-0.08454762,0.9665131,2.4254453,-4.1954517
622,1747638629.3472462,1.0146323,-0.46938714,0.32081142,0.9503256,2.0925336,-4.4245195
623,1747638629.34827,1.0146323,-0.46938714,0.32081142,0.9503256,2.0925336,-4.4245195
624,1747638629.36278,0.98097193,-0.49060792,0.61903,1.3927318,1.7028131,-4.7433815
625,1747638629.3638477,0.98097193,-0.49060792,0.61903,1.3927318,1.7028131,-4.7433815
626,1747638629.3779302,0.624884,-0.5506419,1.0239011,2.8775487,0.5733565,-5.3523965
627,1747638629.3938346,0.27492458,-0.8222736,0.66028243,5.275735,-1.5762913,-5.602233
628,1747638629.3949356,0.27492458,-0.8222736,0.66028243,5.275735,-1.5762913,-5.602233
629,1747638629.4095533,0.13168451,-0.86401385,0.1826631,5.9044495,-2.314195,-5.5197687
630,1747638629.4248073,-0.038172957,-0.79102176,-0.35374016,6.017838,-2.6722276,-5.1648664
631,1747638629.4258096,-0.14531335,-0.7136697,-0.74056154,5.758686,-2.6196947,-4.699401
632,1747638629.440525,-0.2719671,-0.59555304,-1.2684277,4.465141,-1.9629576,-3.5442884
633,1747638629.4559348,-0.28199816,-0.5948213,-1.3750802,3.227106,-1.5121524,-2.7287312
634,1747638629.456936,-0.28199816,-0.5948213,-1.3750802,3.227106,-1.5121524,-2.7287312
635,1747638629.469951,-0.22415942,-0.7837042,-1.4658477,1.2531532,-0.070552856,-1.5198643
636,1747638629.4858422,-0.49576062,-0.96502584,-1.1891243,-0.7936433,1.8011595,-0.7282063
637,1747638629.4869173,-0.49576062,-0.96502584,-1.1891243,-0.7936433,1.8011595,-0.7282063
638,1747638629.501667,-0.7649532,-0.9992047,-0.82986546,-1.3270657,2.0534394,-0.7098809
639,1747638629.5026717,-0.7649532,-0.9992047,-0.82986546,-1.3270657,2.0534394,-0.7098809
640,1747638629.517337,-1.1598238,-1.2698606,-0.41401803,-0.80547845,1.9654775,-0.6939988
641,1747638629.5332992,-1.507344,-1.4697199,-0.7957171,0.31351736,0.7969266,-0.7251521
642,1747638629.5342991,-1.507344,-1.4697199,-0.7957171,0.31351736,0.7969266,-0.7251521
643,1747638629.548153,-1.507344,-1.4697199,-0.7957171,0.31351736,0.7969266,-0.7251521
644,1747638629.5637324,-1.8951411,-1.4333458,-0.99167365,0.8369371,-0.3014531,-0.79478866
645,1747638629.564764,-1.8951411,-1.4333458,-0.99167365,0.8369371,-0.3014531,-0.79478866
646,1747638629.5784473,-2.3117201,-1.4660611,-1.2679398,0.98025715,-1.3649383,-0.8632035
647,1747638629.5937402,-2.4259343,-1.4958495,-1.4158448,0.7484406,-1.6111096,-0.7184327
648,1747638629.594839,-2.4259343,-1.4958495,-1.4158448,0.7484406,-1.6111096,-0.7184327
649,1747638629.6090953,-2.5606372,-1.4880137,-1.2884288,-0.17370969,-1.5402514,-0.12155861
650,1747638629.6245234,-2.5430753,-1.3647748,-0.8477019,-0.42545512,-1.454122,0.19974706
651,1747638629.6255882,-2.5430753,-1.3647748,-0.8477019,-0.6559736,-1.2000095,0.9975136
652,1747638629.640203,-2.403006,-1.2944963,-0.870874,-0.6995728,-0.8890882,1.6364598
653,1747638629.6558383,-2.1848226,-1.2710803,-0.9977716,-0.8485432,-0.37841988,2.2986183
654,1747638629.65684,-2.1848226,-1.2710803,-0.9977716,-0.8485432,-0.37841988,2.2986183
655,1747638629.670497,-1.7333329,-1.2007713,-1.090033,-1.7500774,0.3174115,3.401274
656,1747638629.685723,-1.0548787,-1.1309806,-1.1036925,-2.5389104,0.8464052,4.283948
657,1747638629.6868002,-1.0548787,-1.1309806,-1.1036925,-2.5389104,0.8464052,4.283948
658,1747638629.701528,-0.79202795,-1.0863134,-0.99996686,-2.9028225,0.92948043,4.593037
659,1747638629.702535,-0.79202795,-1.0863134,-0.99996686,-2.9028225,0.92948043,4.593037
660,1747638629.7171683,-0.38910806,-1.0082296,-0.5509163,-3.2168744,0.006413896,5.1166096
661,1747638629.7324438,-0.07381528,-0.958684,-0.43621445,-3.0049868,-0.3319955,5.296809
662,1747638629.733537,-0.07381528,-0.958684,-0.43621445,-2.7214773,-0.4266768,5.4794526
663,1747638629.7476785,-0.07381528,-0.958684,-0.43621445,-2.5825095,-0.4278985,5.602233
664,1747638629.7632186,0.21001224,-0.9972533,-0.5914369,-2.8111954,-0.11697725,5.958357
665,1747638629.7642827,0.45941702,-1.0624095,-0.7949854,-2.8111954,-0.11697725,5.958357
666,1747638629.7784688,0.6331772,-1.1404933,-0.83937824,-3.289718,-0.117588095,6.0927434
667,1747638629.793756,0.77815515,-1.2054057,-0.7388541,-3.8717027,-0.4627168,6.2387357
668,1747638629.794891,0.77815515,-1.2054057,-0.7388541,-3.8717027,-0.4627168,6.2387357
669,1747638629.809765,0.9433782,-1.3054725,-0.31224382,-4.5832634,-1.338061,6.526445
670,1747638629.825877,1.295045,-1.3525789,0.19610901,-4.3427424,-1.9715096,7.1757755
671,1747638629.826923,1.295045,-1.3525789,0.19610901,-4.3427424,-1.9715096,7.1757755
672,1747638629.841361,1.4766105,-1.3865138,0.22489117,-4.2007203,-1.8633896,7.3639164
673,1747638629.8569565,1.7985196,-1.4828913,0.15241744,-4.2082033,-0.953838,7.4671497
674,1747638629.8579586,1.7985196,-1.4828913,0.15241744,-4.2082033,-0.953838,7.4671497
675,1747638629.8724496,1.8887992,-1.5353639,0.1387581,-4.418182,-0.4718795,7.266792
676,1747638629.87345,1.8887992,-1.5353639,0.1387581,-4.418182,-0.4718795,7.266792
677,1747638629.8884754,1.8993181,-1.547316,0.47725347,-4.866162,-0.4651602,6.4317636
678,1747638629.9036593,1.7336072,-1.4318824,0.8889543,-4.2498937,-1.413806,5.285814
679,1747638629.904703,1.7336072,-1.4318824,0.8889543,-4.2498937,-1.413806,5.285814
680,1747638629.919148,1.5454255,-1.2871788,1.1161627,-3.36951,-2.2873175,4.657787
681,1747638629.9353132,1.4456332,-1.22373,1.1244558,-2.5327253,-2.9257293,4.2375236
682,1747638629.9373982,1.4456332,-1.22373,1.1244558,-2.5327253,-2.9257293,4.2375236
683,1747638629.9502003,1.3672749,-1.1788188,0.9309384,-1.1687799,-3.7888565,3.7042542
684,1747638629.9651408,1.2667508,-1.0973201,0.5160362,-0.16248538,-4.2445483,3.4434223
685,1747638629.966144,1.2667508,-1.0973201,0.5160362,-0.16248538,-4.2445483,3.4434223
686,1747638629.9804296,1.1879046,-1.0394813,0.31520134,-0.07773031,-3.954396,3.641337
687,1747638629.995894,1.1020155,-0.9867649,0.17168686,-0.7413395,-3.199389,4.6186924
688,1747638629.9968987,1.1020155,-0.9867649,0.17168686,-0.7413395,-3.199389,4.6186924
689,1747638630.0108178,1.2979721,-0.9464882,0.32105532,-1.5818653,-2.3398504,5.761664
690,1747638630.026008,1.5159116,-0.91621196,0.5807046,-2.008695,-1.9996085,6.345634
691,1747638630.0270798,1.5159116,-0.91621196,0.5807046,-2.008695,-1.9996085,6.345634
692,1747638630.0418327,2.0630474,-0.806419,0.9563058,-2.3183944,-2.0515306,6.786055
693,1747638630.042921,2.0630474,-0.806419,0.9563058,-2.3183944,-2.0515306,6.786055
694,1747638630.0567489,2.8322995,-0.32221392,1.2228153,-2.0155668,-3.0650024,5.919263
695,1747638630.0720203,3.0345979,-0.111591876,1.2142476,-1.9489082,-3.2592518,5.522823
696,1747638630.0730226,3.0345979,-0.111591876,1.2142476,-1.9489082,-3.2592518,5.522823
697,1747638630.0879238,3.1942108,0.27056456,1.3179733,-2.0660381,-3.158462,5.0610223
698,1747638630.1029465,3.4988017,0.5397571,1.5910685,-2.4243,-2.3453481,4.952826
699,1747638630.104025,3.7760131,0.62909156,1.7074777,-2.4243,-2.3453481,4.952826
700,1747638630.1182206,4.023741,0.7247374,1.8448638,-3.1315086,-0.30572906,4.425665
701,1747638630.1339962,4.092312,0.8572756,2.0237765,-3.4386883,0.50127655,4.004791
702,1747638630.1350245,4.1423454,1.002467,2.297817,-3.6885247,1.0479848,3.4947336
703,1747638630.149252,4.049108,1.4129483,3.0685327,-3.5850625,0.95086014,2.1501822
704,1747638630.1644444,3.791166,1.730223,3.5149,-2.9539046,0.51593685,1.2662864
705,1747638630.1654441,3.791166,1.730223,3.5149,-2.9539046,0.51593685,1.2662864
706,1747638630.1799712,3.6642382,2.0452719,3.6400905,-1.3681451,0.17569494,-0.02687728
707,1747638630.1952748,4.0044413,1.7072642,3.2117727,-0.044744562,0.79753745,-1.2767471
708,1747638630.1966457,4.0044413,1.7072642,3.2117727,-0.044744562,0.79753745,-1.2767471
709,1747638630.2106962,4.2958603,1.3292544,3.0236216,0.044362783,1.2208546,-1.8625497
710,1747638630.2267206,4.614324,0.6014985,3.1141756,0.12720895,2.194545,-3.2071009
711,1747638630.2277627,4.614324,0.6014985,3.1141756,0.12720895,2.194545,-3.2071009
712,1747638630.2418547,4.3509855,0.36038688,3.2522936,0.5883223,2.642296,-4.213777
713,1747638630.2429163,4.3509855,0.36038688,3.2522936,0.5883223,2.642296,-4.213777
714,1747638630.2571433,3.71232,0.026038107,2.7837296,1.8899614,3.5830772,-5.236946
715,1747638630.2731469,3.4865751,-0.23876393,2.4833157,2.548531,3.7877111,-5.577188
716,1747638630.2741485,3.3255293,-0.402493,2.2829382,2.977193,3.608122,-5.799002
717,1747638630.288921,3.025573,-0.63851285,2.0232887,3.6975348,2.7412534,-6.142909
718,1747638630.3041537,2.8142495,-0.72854865,1.8756276,4.1865945,2.1139133,-6.310892
719,1747638630.3052037,2.8142495,-0.72854865,1.8756276,4.1865945,2.1139133,-6.310892
720,1747638630.3195086,2.5792053,-0.79224133,1.4631951,4.887618,1.5830871,-6.441613
721,1747638630.3346715,2.112105,-0.63534194,0.75129384,4.919382,1.6557778,-6.362814
722,1747638630.3357093,2.112105,-0.63534194,0.75129384,4.919382,1.6557778,-6.362814
723,1747638630.3507953,1.9263929,-0.57454574,0.45649004,4.639614,1.8451405,-6.2644677
724,1747638630.3665226,1.6684511,-0.50012064,0.31178647,3.82398,2.0461092,-6.1062584
725,1747638630.3675973,1.6684511,-0.50012064,0.31178647,3.82398,2.0461092,-6.1062584
726,1747638630.3816156,1.5203022,-0.4803634,0.3266654,3.4158578,1.9666991,-6.075105
727,1747638630.396918,1.275044,-0.5218597,0.31861615,3.1803763,1.7706171,-6.059834
728,1747638630.3979235,1.275044,-0.5218597,0.31861615,3.1803763,1.7706171,-6.059834
729,1747638630.4125717,1.1808311,-0.5257624,0.27980292,3.193433,1.7608436,-6.038454
730,1747638630.4135745,1.1808311,-0.5257624,0.27980292,3.193433,1.7608436,-6.038454
731,1747638630.4277894,0.9958508,-0.52893335,0.063326865,3.1055474,1.7015914,-6.06411
732,1747638630.4433222,0.9636233,-0.510853,-0.077474035,2.9765823,1.6185162,-6.038454
733,1747638630.4443724,0.9636233,-0.510853,-0.077474035,2.9765823,1.6185162,-6.038454
734,1747638630.458808,0.980484,-0.4613074,-0.37837574,2.3422937,1.6973155,-5.8839097
735,1747638630.474247,0.9741117,-0.42642733,-0.29468182,1.2849172,1.8243717,-5.7605186
736,1747638630.4753191,0.9741117,-0.42642733,-0.29468182,1.2849172,1.8243717,-5.7605186
737,1747638630.489483,0.9328898,-0.43154958,-0.1665646,1.0063709,1.8536924,-5.6585073
738,1747638630.5054955,0.9194439,-0.4476481,0.056009363,0.92413557,1.8011595,-5.3811064
739,1747638630.506496,0.9194439,-0.4476481,0.056009363,0.92413557,1.8011595,-5.3811064
740,1747638630.5207503,0.98804545,-0.45886827,0.12701961,1.0668447,1.8249825,-5.2320595
741,1747638630.535449,1.2318401,-0.46767974,-0.041587792,1.1851964,2.2171464,-5.1679206
742,1747638630.5364912,1.2318401,-0.46767974,-0.041587792,1.1851964,2.2171464,-5.1679206
743,1747638630.5507033,1.292362,-0.47963166,0.023812365,1.1378558,2.278842,-5.183192
744,1747638630.565926,1.3345901,-0.516707,0.19684075,1.3148488,1.6185162,-5.225951
745,1747638630.5670178,1.3345901,-0.516707,0.19684075,1.3148488,1.6185162,-5.225951
746,1747638630.5818334,1.2337916,-0.50597465,0.2768759,1.4625211,1.2856044,-5.258326
747,1747638630.582838,1.2337916,-0.50597465,0.2768759,1.4625211,1.2856044,-5.258326
748,1747638630.5968995,1.0121932,-0.507926,0.39011422,1.8818676,0.9252045,-5.1514277
749,1747638630.612166,0.8967596,-0.55137366,0.42160997,2.2220333,0.923372,-4.989553
750,1747638630.613166,0.91578513,-0.6433912,0.17778477,2.2220333,0.923372,-4.989553
751,1747638630.6271586,0.8955401,-0.70244956,-0.05308236,2.718652,1.0376004,-4.533861
752,1747638630.6427584,0.761081,-0.7485803,-0.1826631,2.3690948,1.0143882,-4.3652673
753,1747638630.6439257,0.761081,-0.7485803,-0.1826631,2.3690948,1.0143882,-4.3652673
754,1747638630.658218,0.32544583,-0.8862102,-0.35691106,1.5272709,1.4627501,-3.714715
755,1747638630.673512,-0.522622,-0.9774961,-0.7017483,-0.57809055,2.5689945,-1.3805912
756,1747638630.6745145,-0.522622,-0.9774961,-0.7017483,-0.57809055,2.5689945,-1.3805912
757,1747638630.689044,-0.70394355,-0.98066694,-0.9067602,-1.8261279,3.764499,-0.24800399
758,1747638630.7042935,-0.84279305,-0.9311214,-0.64000684,-3.0753868,6.429091,1.0500464
759,1747638630.7053497,-0.84279305,-0.9311214,-0.64000684,-3.0753868,6.429091,1.0500464
760,1747638630.7195306,-0.80352247,-0.9218526,-0.4672224,-2.6841393,6.389997,0.847856
761,1747638630.7350051,-0.86819094,-0.88669807,-0.6414703,-1.6086663,5.6594234,0.23639789
762,1747638630.736093,-0.86819094,-0.88669807,-0.6414703,-1.6086663,5.6594234,0.23639789
763,1747638630.7503455,-1.2049788,-0.98066694,-1.7592186,0.596416,3.328965,-1.1118183
764,1747638630.7659492,-2.3261113,-1.12098,-2.9045293,0.8755732,-0.5012002,-2.181412
765,1747638630.7670403,-2.3261113,-1.12098,-2.9045293,0.8755732,-0.5012002,-2.181412
766,1747638630.7813618,-2.6831748,-1.1204922,-2.7051272,0.7608866,-1.5323104,-2.3023596
767,1747638630.7968924,-3.23153,-1.1109794,-2.3834622,1.2101648,-2.2873175,-2.2382207
768,1747638630.797893,-3.23153,-1.1109794,-2.3834622,1.2101648,-2.2873175,-2.2382207
769,1747638630.8127959,-3.3142788,-1.1312245,-2.38395,1.845675,-2.6447396,-0.5028036
770,1747638630.8137972,-3.1641784,-1.1253705,-2.5696926,1.845675,-2.6447396,-0.5028036
771,1747638630.8276088,-2.916725,-1.0543603,-2.796657,1.6182871,-2.6032019,0.14599249
772,1747638630.8429325,-2.3029392,-0.90426004,-3.0538673,1.1017394,-2.520661,0.7653916
773,1747638630.8440661,-2.3029392,-0.90426004,-3.0538673,0.07116371,-2.064969,1.4751961
774,1747638630.85831,-2.0393567,-0.799071,-2.4613326,-1.329509,-1.4180819,2.5827386
775,1747638630.8734472,-1.8697432,-0.7827286,-2.0623155,-1.6585267,-1.3643273,3.1715953
776,1747638630.8744543,-1.8697432,-0.7827286,-2.0623155,-1.6585267,-1.3643273,3.1715953
777,1747638630.8889139,-1.173483,-0.71562105,-1.4424318,-1.6896799,-1.5622419,4.2705097
778,1747638630.904892,-0.5518919,-0.6929368,-1.0524395,-1.3139324,-1.5988927,4.721315
779,1747638630.9058957,-0.5518919,-0.6929368,-1.0524395,-1.3139324,-1.5988927,4.721315
780,1747638630.9206014,-0.3334646,-0.698303,-0.9809414,-1.1525924,-1.6715835,4.844095
781,1747638630.935905,0.038447365,-0.70732784,-1.0797886,-1.1955808,-1.7729841,5.1312695
782,1747638630.9369054,0.038447365,-0.70732784,-1.0797886,-1.1955808,-1.7729841,5.1312695
783,1747638630.9516835,0.24711807,-0.7275729,-1.1234497,-1.5214678,-1.6642534,5.3523965
784,1747638630.9526849,0.24711807,-0.7275729,-1.1234497,-1.5214678,-1.6642534,5.3523965
785,1747638630.9670458,0.47578993,-0.7876069,-1.0124066,-2.2504377,-1.4370182,5.6547656
786,1747638630.982443,0.67564917,-0.8740144,-0.651227,-2.8560927,-1.565907,6.0078354
787,1747638630.98352,0.67564917,-0.8740144,-0.651227,-2.8560927,-1.565907,6.0078354
788,1747638630.9973662,1.0065831,-0.9906676,-0.22342768,-2.9688704,-1.9947218,6.1275616
789,1747638631.0127332,1.2133025,-1.0619217,-0.19241977,-2.8006582,-1.88538,6.093354
790,1747638631.0137377,1.2133025,-1.0619217,-0.19241977,-2.8006582,-1.88538,6.093354
791,1747638631.0279908,1.4792937,-1.1280537,-0.16705243,-2.716514,-1.7558805,5.8826118
792,1747638631.0435593,1.6303695,-1.2361697,-0.21586627,-3.342098,-2.3099189,5.5393157
793,1747638631.0446332,1.6303695,-1.2361697,-0.21586627,-3.342098,-2.3099189,5.5393157
794,1747638631.058839,1.6359795,-1.306936,-0.14945993,-3.756405,-2.3471806,5.522212
795,1747638631.074553,1.5493282,-1.4189547,0.19927992,-4.0605307,-2.3038104,5.5497003
796,1747638631.075627,1.5493282,-1.4189547,0.19927992,-4.0605307,-2.3038104,5.5497003
797,1747638631.0898232,1.5083501,-1.4719151,0.5162801,-4.3545775,-1.7625997,5.6162825
798,1747638631.105507,1.475391,-1.4841111,0.6895524,-4.085423,-1.4406832,5.541148
799,1747638631.1065109,1.475391,-1.4841111,0.6895524,-4.085423,-1.4406832,5.541148
800,1747638631.120679,1.4995692,-1.4853306,0.7793747,-3.3252234,-1.5445273,5.02063
801,1747638631.1363933,1.4361204,-1.4250526,0.76791066,-2.5507455,-2.634966,4.1996512
802,1747638631.137419,1.4361204,-1.4250526,0.76791066,-2.5507455,-2.634966,4.1996512
803,1747638631.151445,1.4046247,-1.4216379,0.6480866,-2.2566988,-2.9318378,4.041442
804,1747638631.1667798,1.2884593,-1.3811476,0.5304578,-2.0971913,-3.2085516,3.9913523
805,1747638631.167835,1.2884593,-1.3811476,0.5304578,-2.0971913,-3.2085516,3.9913523
806,1747638631.1824472,1.094942,-1.2608054,0.6490623,-2.0148797,-3.1224222,4.188656
807,1747638631.1835158,1.094942,-1.2608054,0.6490623,-1.8809514,-3.0112479,4.448877
808,1747638631.197694,1.0717393,-1.1836971,0.5407023,-1.7918441,-2.642296,4.800114
809,1747638631.2128925,1.1620495,-1.19882,0.40206614,-1.8940083,-1.9825047,5.177083
810,1747638631.2138944,1.1620495,-1.19882,0.40206614,-1.8940083,-1.9825047,5.177083
811,1747638631.2278504,1.5622863,-1.3791964,0.49432763,-2.8137152,-1.1401464,5.402486
812,1747638631.2430203,1.6159784,-1.36697,0.65296495,-3.203741,-1.7204514,5.367057
813,1747638631.244097,1.6159784,-1.36697,0.65296495,-3.203741,-1.7204514,5.367057
814,1747638631.2583642,1.8809938,-1.272056,1.0004852,-3.4499125,-3.046677,5.5161033
815,1747638631.2739716,2.0667365,-1.1656473,1.4473405,-3.2723088,-2.4369752,5.626667
816,1747638631.2750416,2.0667365,-1.1656473,1.4473405,-3.2723088,-2.4369752,5.626667
817,1747638631.28922,2.1872923,-1.0741175,1.7106487,-2.877854,-1.9922783,5.696914
818,1747638631.3047447,2.414013,-0.94160986,1.8104715,-2.3021307,-1.7943639,5.6950817
819,1747638631.3057446,2.414013,-0.94160986,1.8104715,-2.3021307,-1.7943639,5.6950817
820,1747638631.320285,3.1144195,-0.5667404,1.5429864,-1.6915125,-1.7302248,5.4037075
821,1747638631.3354282,4.095727,0.11829959,1.4580729,-3.4268532,-2.05825,4.308993
822,1747638631.3370574,4.095727,0.11829959,1.4580729,-3.4268532,-2.05825,4.308993
823,1747638631.3507397,4.3012266,0.4155425,1.8038857,-4.5041585,-1.649593,3.7720582
824,1747638631.3659484,4.426661,0.72010297,3.6705801,-5.5371776,0.2850366,2.4349136
825,1747638631.3659484,4.426661,0.72010297,3.6705801,-5.5371776,0.2850366,2.4349136
826,1747638631.3818386,4.046913,0.87971604,4.7053356,-4.876088,0.8854995,1.6724998
827,1747638631.3970692,3.6803672,1.1230228,5.494833,-1.831091,0.54403585,1.219862
828,1747638631.3976407,3.6803672,1.1230228,5.494833,-1.831091,0.54403585,1.219862
829,1747638631.4122975,4.2218924,1.3170586,5.548769,-0.7151494,0.55991787,0.9419265
830,1747638631.4133358,5.0955715,1.1388774,5.208566,0.6562027,1.2006966,-0.29259583
831,1747638631.427494,5.3315916,0.9519458,5.0963035,1.2718604,2.0173993,-1.4978738
832,1747638631.4426281,5.176125,0.53926927,5.058253,1.964103,2.7565246,-2.721401
833,1747638631.4437668,5.176125,0.53926927,5.058253,1.964103,2.7565246,-2.721401
834,1747638631.4578753,4.407117,-0.19848719,4.7961335,3.819628,3.59224,-4.1997275
835,1747638631.4735994,3.7933617,-1.0309138,3.8045816,5.379197,3.5329878,-5.0097113
836,1747638631.4746673,3.7933617,-1.0309138,3.8045816,6.4945283,3.1573167,-5.506941
837,1747638631.4885778,3.6466763,-1.1849166,3.193723,7.3263493,2.6575673,-5.9382753
838,1747638631.5038924,3.649847,-1.3433101,2.0742674,7.8790135,2.1530075,-6.3652577
839,1747638631.5049396,3.649847,-1.3433101,2.0742674,8.061581,1.8121548,-6.8624873
840,1747638631.5193481,3.495631,-1.2732755,1.1761967,7.6571994,1.9190531,-7.150196
841,1747638631.534841,3.2376585,-1.0599704,0.61927396,6.470247,2.4443817,-7.1801276
842,1747638631.535918,3.2376585,-1.0599704,0.61927396,6.470247,2.4443817,-7.1801276
843,1747638631.5503738,2.881601,-0.90377223,0.43331796,4.7000117,3.2972007,-6.8966947
844,1747638631.5654137,2.3302884,-0.9096263,0.54753196,3.6569898,3.2495546,-6.703056
845,1747638631.5664155,2.3302884,-0.9096263,0.54753196,3.6569898,3.2495546,-6.703056
846,1747638631.5806174,2.1767733,-0.97429466,0.54143405,3.6077402,2.947796,-6.6560206
847,1747638631.5958183,2.0474365,-1.0248158,0.40621272,3.7299097,2.3252664,-6.714662
848,1747638631.5969007,2.0474365,-1.0248158,0.40621272,3.7299097,2.3252664,-6.714662
849,1747638631.6108963,1.9424914,-1.0585068,0.18976717,3.468238,2.1047506,-6.8850884
850,1747638631.6267407,1.9066355,-1.078752,0.15607618,3.468238,2.1047506,-6.8850884
851,1747638631.6279123,1.7758049,-1.0953687,0.21196358,3.468238,2.1047506,-6.8850884
852,1747638631.6418583,1.674549,-1.0814351,0.24394716,3.3379748,1.9135554,-7.1886797
853,1747638631.6429129,1.674549,-1.0814351,0.24394716,3.3379748,1.9135554,-7.1886797
854,1747638631.657668,1.412674,-1.0963445,0.193182,3.4732013,1.4157149,-7.323677
855,1747638631.6724772,1.2367185,-1.0894843,0.21464668,3.4825165,0.9135984,-7.310849
856,1747638631.6734793,1.2367185,-1.0894843,0.21464668,3.4825165,0.9135984,-7.310849
857,1747638631.6876278,1.0341457,-1.0021316,0.07530928,3.4657183,0.13782242,-6.880202
858,1747638631.702949,1.2552562,-0.9379511,-0.3398369,2.236999,0.8732825,-6.4739885
859,1747638631.704112,1.5159116,-0.95844,-0.5821681,2.236999,0.8732825,-6.4739885
860,1747638631.718758,1.5034719,-0.95551306,-0.5074991,1.402658,1.3442458,-6.679233
861,1747638631.7338617,1.4092591,-0.9599036,-0.35032532,0.9378796,1.5690376,-6.8093433
862,1747638631.7348623,1.2125708,-0.9691724,-0.05552153,0.9378796,1.5690376,-6.8093433
863,1747638631.7494426,1.0297552,-0.94234157,0.18339485,0.64688724,1.0907441,-6.826447
864,1747638631.7646852,0.787424,-0.8417869,0.38621157,1.0219475,0.4853945,-6.5161366
865,1747638631.765692,0.787424,-0.8417869,0.38621157,1.0219475,0.4853945,-6.5161366
866,1747638631.7804704,0.85258025,-0.7317195,0.07433361,1.7460306,0.5977904,-5.7818985
867,1747638631.7965631,0.9697212,-0.60848063,-0.3210248,1.6201197,1.3631821,-5.0512486
868,1747638631.7975647,0.9697212,-0.60848063,-0.3210248,1.6201197,1.3631821,-5.0512486
869,1747638631.8117597,0.91237026,-0.4628014,-0.41450587,1.1845856,1.8237609,-4.3170104
870,1747638631.8278947,0.77425253,-0.5284454,-0.31931743,0.7578324,2.070543,-3.5436776
871,1747638631.8289866,0.77425253,-0.5284454,-0.31931743,0.7578324,2.070543,-3.5436776
872,1747638631.843642,0.6304941,-0.58994293,-0.24245316,0.7004891,2.2122598,-3.2290914
873,1747638631.8446693,0.6304941,-0.58994293,-0.24245316,0.7004891,2.2122598,-3.2290914
874,1747638631.8592486,-0.08479153,-0.7544343,-0.5074991,1.1920685,2.5225701,-2.376883
875,1747638631.874579,-0.40987146,-0.82739586,-0.85550725,1.0537878,2.518905,-2.076957
876,1747638631.875662,-0.6197313,-0.86718476,-1.1012533,0.50730866,2.4859192,-1.7941347
877,1747638631.8894713,-0.97337997,-1.0621656,-1.4177961,-0.6080221,2.8225725,-1.3347776
878,1747638631.9049306,-1.0829595,-1.2103145,-1.4807571,-0.946966,3.0931778,-1.1979479
879,1747638631.905938,-1.0829595,-1.2103145,-1.4807571,-0.946966,3.0931778,-1.1979479
880,1747638631.9205003,-1.5297843,-1.5182898,-1.0951554,-1.6329474,3.3613398,-0.93955946
881,1747638631.9356282,-1.9971592,-1.4126129,-0.67662483,-0.2777828,1.1206757,-0.6115345
882,1747638631.9367313,-1.9971592,-1.4126129,-0.67662483,-0.2777828,1.1206757,-0.6115345
883,1747638631.9509678,-2.1184468,-1.3865138,-0.9626477,0.49051034,0.5458684,-0.3635305
884,1747638631.966721,-2.272907,-1.3030334,-1.6654935,1.2356677,0.5257104,0.20829892
885,1747638631.9678495,-2.272907,-1.3030334,-1.6654935,1.2356677,0.5257104,0.20829892
886,1747638631.9822252,-2.3083055,-1.2815686,-1.8785548,1.2444485,0.68758494,0.45324868
887,1747638631.9832075,-2.2983048,-1.3762388,-2.1096656,1.0780691,0.8268581,0.74156857
888,1747638631.9975011,-2.2983048,-1.4482552,-2.2272944,1.0219475,0.63749546,0.88572854
889,1747638632.0071943,-2.3029392,-1.5029231,-2.2631502,1.0219475,0.63749546,0.88572854
890,1747638632.022726,-2.2690043,-1.5197533,-2.2660773,0.77715045,-1.2036746,0.96086276
891,1747638632.023785,-2.2690043,-1.5197533,-2.2660773,0.58710057,-2.2030206,1.0066763
892,1747638632.038087,-2.2104337,-1.4087102,-2.2268066,0.021303298,-3.1236439,1.3499725
893,1747638632.053343,-2.3478503,-1.3081555,-2.0708525,-0.47714806,-2.9513848,1.9363859
894,1747638632.0543425,-2.3478503,-1.3081555,-2.0708525,-0.47714806,-2.9513848,1.9363859
895,1747638632.0691032,-2.1982381,-1.328919,-1.753578,-1.2261232,-2.017323,4.0139537
896,1747638632.0846515,-1.0607326,-1.4833792,-1.4856354,-2.2591422,-0.75958854,6.380452
897,1747638632.0856538,-1.0607326,-1.4833792,-1.4856354,-2.2591422,-0.75958854,6.380452
898,1747638632.1005878,-0.5245733,-1.5524687,-1.4175522,-2.6597817,-0.33688226,6.824538
899,1747638632.1161628,0.26053348,-1.5856413,-1.2030275,-3.0055976,-0.0943759,6.95526
900,1747638632.1172419,0.26053348,-1.5856413,-1.2030275,-3.5009947,0.118198946,6.920441
901,1747638632.131443,0.5907357,-1.5707624,-0.85965383,-4.0044093,0.05955761,6.6761026
902,1747638632.1465824,0.9216696,-1.5051183,-0.3427639,-4.157045,-0.19150062,6.4830747
903,1747638632.1475923,0.9216696,-1.5051183,-0.3427639,-4.157045,-0.19150062,6.4830747
904,1747638632.1614835,1.0488112,-1.4538654,-0.16217409,-4.0044093,-0.7601994,6.174597
905,1747638632.1766996,1.4758788,-1.3955388,0.022348866,-3.6305707,-1.2733111,5.8123646
906,1747638632.1776993,1.4758788,-1.3955388,0.022348866,-3.6305707,-1.2733111,5.8123646
907,1747638632.1918552,1.569116,-1.3782207,0.08506594,-3.5732274,-1.4565653,5.5399265
908,1747638632.1929207,1.569116,-1.3782207,0.08506594,-3.5732274,-1.4565653,5.5399265
909,1747638632.2079775,1.7091851,-1.366726,0.15583226,-3.5077903,-1.8029157,5.03048
910,1747638632.2236497,1.5930197,-1.3384318,0.2754124,-3.5296283,-1.9965543,4.6394615
911,1747638632.2247918,1.5930197,-1.3384318,0.2754124,-3.5296283,-1.9965543,4.6394615
912,1747638632.238874,1.5537492,-1.355506,0.37011307,-3.4866397,-2.0637474,4.560662
913,1747638632.2541957,1.5605788,-1.3696531,0.43868414,-3.3919585,-2.2579968,4.4934688
914,1747638632.2552822,1.623052,-1.4291992,0.40426138,-3.3028512,-2.3832207,4.4555964
915,1747638632.2694554,1.6037521,-1.4828913,0.39596823,-3.3078144,-2.5848765,4.365802
916,1747638632.2847695,1.6408579,-1.6095756,0.5321652,-3.445484,-2.9159558,4.5466127
917,1747638632.2857697,1.6408579,-1.6095756,0.5321652,-3.445484,-2.9159558,4.5466127
918,1747638632.300597,1.6354917,-1.6373821,0.73543924,-3.4604497,-3.262917,4.6596193
919,1747638632.316056,1.778,-1.6337234,0.98045355,-3.1252472,-3.9611154,5.065909
920,1747638632.3170862,1.778,-1.6337234,0.98045355,-3.1252472,-3.9611154,5.065909
921,1747638632.331777,1.9132215,-1.5256073,0.9206634,-2.7987494,-3.634923,5.195409
922,1747638632.3327787,1.9132215,-1.5256073,0.9206634,-2.6143498,-3.0173564,5.1893
923,1747638632.347005,1.9346861,-1.3005941,0.81547445,-2.5476148,-2.6117537,5.0830126
924,1747638632.3627489,1.8060809,-1.1436642,0.621957,-2.5021832,-2.4632416,4.988866
925,1747638632.3638268,1.8060809,-1.1436642,0.621957,-2.5364668,-2.5475385,4.8599772
926,1747638632.3778105,1.7667799,-1.1392738,0.62342054,-2.768818,-3.1572404,4.7787347
927,1747638632.3938043,1.760438,-1.1426886,0.6348846,-2.9059532,-3.58239,4.8343215
928,1747638632.3948948,1.7723899,-1.163452,0.6334211,-2.9059532,-3.58239,4.8343215
929,1747638632.4086552,1.8065689,-1.1717452,0.7081206,-3.3265214,-3.482822,5.4605165
930,1747638632.4244497,1.7929096,-1.1051254,0.81035215,-3.3539333,-3.02713,5.668815
931,1747638632.4254522,1.7929096,-1.1051254,0.81035215,-3.3539333,-3.02713,5.668815
932,1747638632.4397047,2.0508513,-0.95478135,0.946793,-3.2249682,-2.214016,6.1593256
933,1747638632.4546123,2.5035605,-0.9455124,1.0453963,-3.1931276,-2.2396715,5.716461
934,1747638632.4556568,2.5035605,-0.9455124,1.0453963,-3.1931276,-2.2396715,5.716461
935,1747638632.4698598,2.6146038,-0.92990184,1.3470298,-3.1221168,-3.614765,4.9894767
936,1747638632.4851348,2.539447,-0.88913727,1.5098137,-2.8984702,-4.302579,4.787897
937,1747638632.48619,2.539447,-0.88913727,1.5098137,-2.8984702,-4.302579,4.787897
938,1747638632.5005903,2.5016093,-0.5672282,1.5298148,-1.9046217,-4.124212,5.4324174
939,1747638632.5153384,3.7967765,-0.48450997,1.1551894,-1.6037031,-1.6043904,6.1526065
940,1747638632.5163977,3.7967765,-0.48450997,1.1551894,-1.6037031,-1.6043904,6.1526065
941,1747638632.530727,4.3075686,-0.4454528,1.2503778,-2.171944,-0.5787778,5.8636756
942,1747638632.546584,4.7326846,-0.20068243,2.0264597,-3.3408,0.019852536,4.852647
943,1747638632.547613,4.7326846,-0.20068243,2.0264597,-3.3408,0.019852536,4.852647
944,1747638632.5621886,4.8420205,0.07387626,2.8635206,-3.6124744,-0.26907822,3.7256339
945,1747638632.5632176,4.8420205,0.07387626,2.8635206,-3.3084252,-0.108425386,2.8099737
946,1747638632.5776145,4.884492,0.15391143,3.2203403,-3.3084252,-0.108425386,2.8099737
947,1747638632.5932639,4.438369,0.5348788,3.9402604,-2.2273781,0.22028679,1.2687298
948,1747638632.5943563,4.438369,0.5348788,3.9402604,-2.2273781,0.22028679,1.2687298
949,1747638632.6087983,4.3902864,0.47142997,3.8597374,-0.20921518,0.5922928,-0.02687728
950,1747638632.6247184,4.448369,0.32279322,3.655945,0.7372163,0.9361998,-0.74347746
951,1747638632.625721,4.448369,0.32279322,3.655945,0.7372163,0.9361998,-0.74347746
952,1747638632.6394603,4.381262,-0.08280971,3.1915276,2.1304824,1.1548831,-2.5314274
953,1747638632.6551852,3.5863981,-0.4979254,2.5003898,3.245126,0.9221503,-4.6444244
954,1747638632.6562362,3.5863981,-0.4979254,2.5003898,3.245126,0.9221503,-4.6444244
955,1747638632.6703358,3.2496104,-0.5809181,2.0725598,3.5473428,0.86473066,-5.142265
956,1747638632.686202,3.2737887,-0.7517512,1.4714884,3.39402,1.1939774,-5.5020537
957,1747638632.6872747,3.2737887,-0.7517512,1.4714884,3.39402,1.1939774,-5.5020537
958,1747638632.7009459,3.204943,-0.8617881,1.1615616,2.850137,1.7119758,-5.9168954
959,1747638632.7170641,3.101248,-0.8815758,1.0575922,2.2862487,2.3930705,-6.2168217
960,1747638632.7181578,3.101248,-0.8815758,1.0575922,2.2862487,2.3930705,-6.2168217
961,1747638632.7326884,2.9233413,-1.0953687,1.2398894,1.7653486,3.355842,-6.390302
962,1747638632.7336915,2.9233413,-1.0953687,1.2398894,1.8519362,3.5855207,-6.3860264
963,1747638632.747919,3.0209386,-1.1968687,1.3384928,2.053821,3.4731247,-6.520413
964,1747638632.7635298,3.1600623,-1.3345292,1.4463649,2.6195421,3.013157,-6.9577794
965,1747638632.7645307,3.1600623,-1.3345292,1.4463649,2.6195421,3.013157,-6.9577794
966,1747638632.7793148,3.094906,-1.400661,1.361177,3.5024455,2.6288576,-7.46295
967,1747638632.7949235,2.8205912,-1.5380471,0.78108215,4.600978,2.8946524,-8.0481415
968,1747638632.7960207,2.8205912,-1.5380471,0.78108215,4.600978,2.8946524,-8.0481415
969,1747638632.8102186,2.7688506,-1.6019837,0.5929309,4.729332,2.9038153,-8.169701
970,1747638632.8254507,2.7505262,-1.6234789,0.34544697,4.7467413,2.7498052,-8.268658
971,1747638632.8264532,2.7505262,-1.6234789,0.34544697,4.678861,2.539063,-8.393347
972,1747638632.8407214,2.5306659,-1.569055,0.12506826,4.4140587,2.3002217,-8.616306
973,1747638632.8558826,2.371785,-1.5434133,-0.0020732917,4.2233977,2.418726,-8.671282
974,1747638632.8568845,2.2131474,-1.5246316,-0.13384928,4.2233977,2.418726,-8.671282
975,1747638632.870511,2.1096656,-1.5270708,-0.20266427,3.7909944,2.6135864,-8.61203
976,1747638632.8858702,1.8016906,-1.4956056,-0.16973552,3.1971745,2.0375574,-8.39518
977,1747638632.8869002,1.8016906,-1.4956056,-0.16973552,3.1971745,2.0375574,-8.39518
978,1747638632.9011455,1.6847935,-1.4606949,-0.18022393,3.0083463,1.5427711,-8.268046
979,1747638632.9165933,1.5132285,-1.3342851,-0.2866326,2.7510269,1.1622133,-8.076852
980,1747638632.9176261,1.5132285,-1.3342851,-0.2866326,2.5217302,1.067532,-7.9082575
981,1747638632.9314475,1.4231623,-1.2676655,-0.29199874,2.223255,1.0803597,-7.658421
982,1747638632.9475632,1.2086681,-1.1285415,-0.21928109,1.8182632,1.1518289,-7.0536823
983,1747638632.9485638,1.2086681,-1.1285415,-0.21928109,1.8182632,1.1518289,-7.0536823
984,1747638632.9627175,1.2152538,-1.0802155,-0.24489233,1.7348062,1.187258,-6.816063
985,1747638632.96372,1.2152538,-1.0802155,-0.24489233,1.7348062,1.187258,-6.816063
986,1747638632.9775224,1.1334808,-1.0048147,-0.19632243,1.5272709,0.8427402,-6.5479007
987,1747638632.992401,0.9958508,-0.92721874,-0.15263085,1.4730582,0.5342623,-6.2485857
988,1747638632.9935546,0.9958508,-0.92721874,-0.15263085,1.4730582,0.5342623,-6.2485857
989,1747638633.0080283,0.875295,-0.8637699,-0.1167751,1.5316995,0.46951246,-5.692104
990,1747638633.023764,0.64759874,-0.81617564,-0.13043444,1.6544034,0.53181887,-5.4256983
991,1747638633.0248291,0.64759874,-0.81617564,-0.13043444,1.9846427,0.607564,-4.881433
992,1747638633.0385623,0.5470441,-0.82959104,-0.21391493,2.145372,0.62833273,-4.604719
993,1747638633.0543373,0.35694158,-0.90377223,-0.44746515,2.2781549,0.6600968,-4.194841
994,1747638633.0553715,0.35694158,-0.90377223,-0.44746515,2.2781549,0.6600968,-4.194841
995,1747638633.0690997,0.08409027,-1.0358226,-0.8508729,2.022668,0.84884864,-3.822224
996,1747638633.0850217,-0.51188964,-1.3088874,-1.0934479,0.24067383,1.1182323,-3.3268268
997,1747638633.0871058,-0.51188964,-1.3088874,-1.0934479,0.24067383,1.1182323,-3.3268268
998,1747638633.0998702,-0.7910522,-1.5236559,-0.92993236,-0.49150297,1.4499223,-3.1838887
999,1747638633.115923,-1.4524323,-1.8091909,-0.7093097,-1.1874871,2.2495215,-2.872891
