id,timestamp,acc_x,acc_y,acc_z,gyro_x,gyro_y,gyro_z
0,1747638514.8908644,0.058936365,0.69693094,0.5941505,0.85251373,-1.2989666,0.08063184
1,1747638514.9105754,0.013323948,0.57881427,0.23440392,1.2400963,-2.0106037,0.067193195
2,1747638514.911184,0.013323948,0.57881427,0.23440392,1.2400963,-2.0106037,0.067193195
3,1747638514.9257674,0.058204614,0.272272,-0.21464668,0.6368846,-1.9079814,0.28037888
4,1747638514.9408567,0.09360302,0.11903133,-0.18876101,0.3440597,-1.649593,0.3732277
5,1747638514.9418573,0.09360302,0.11903133,-0.18876101,0.3440597,-1.649593,0.3732277
6,1747638514.9633024,0.37743056,-0.6997664,0.15144177,0.2474695,-1.6269916,0.48623443
7,1747638514.9643364,0.37743056,-0.6997664,0.15144177,0.58519167,-1.9434105,0.49967307
8,1747638514.978269,0.37743056,-0.6997664,0.15144177,0.58519167,-1.9434105,0.49967307
9,1747638514.993052,0.36108813,-0.9511226,-0.291267,0.83754796,-2.4119303,0.4446968
10,1747638514.9941616,0.36108813,-0.9511226,-0.291267,0.83754796,-2.4119303,0.4446968
11,1747638515.0083685,0.22733033,-0.9943263,-0.45380697,0.39201123,-3.042401,0.9315421
12,1747638515.023831,0.339593,-0.94331723,-0.45307523,-0.035352785,-4.00021,1.7793981
13,1747638515.024835,0.339593,-0.94331723,-0.45307523,-0.035352785,-4.00021,1.7793981
14,1747638515.0397153,0.81184614,-0.9230721,-0.47624728,-0.28526568,-4.810193,2.788594
15,1747638515.0407524,0.81184614,-0.9230721,-0.47624728,-0.28526568,-4.810193,2.788594
16,1747638515.055344,1.4256015,-0.70001036,-0.56411827,-0.9394831,-4.314796,3.8038223
17,1747638515.0705254,1.4256015,-0.70001036,-0.56411827,-0.9394831,-4.314796,3.8038223
18,1747638515.0716267,1.4256015,-0.70001036,-0.56411827,-0.9394831,-4.314796,3.8038223
19,1747638515.0857494,2.003257,-0.27437577,-0.29809666,-1.3625711,-3.9971554,4.6669493
20,1747638515.1009567,2.6514657,0.19833474,-0.004024625,-0.98995435,-4.5078235,4.9937525
21,1747638515.1019568,2.6514657,0.19833474,-0.004024625,-0.98995435,-4.5078235,4.9937525
22,1747638515.1165812,2.927244,0.7203469,0.13046493,-0.30023143,-4.9012094,4.924116
23,1747638515.1319633,2.9196522,1.4749336,-0.12189735,0.05619795,-4.49072,4.909456
24,1747638515.1329637,2.9196522,1.4749336,-0.12189735,0.05619795,-4.49072,4.909456
25,1747638515.1473587,3.1620138,2.2095191,0.07162003,-1.0024004,-2.5885415,5.179527
26,1747638515.1633472,3.2676904,2.2339413,0.46697846,-1.2535349,-2.0008302,4.808055
27,1747638515.1644235,3.2676904,2.2339413,0.46697846,-1.2535349,-2.0008302,4.808055
28,1747638515.1783273,3.164697,2.2617478,0.89017385,-0.5706077,-1.6361544,3.568646
29,1747638515.194112,2.5609117,2.395963,1.1671717,0.5085303,-2.3276334,2.580295
30,1747638515.1952503,2.085274,2.4101405,0.94020736,0.5085303,-2.3276334,2.580295
31,1747638515.2087874,1.800471,2.3281236,0.6897963,0.4201102,-2.2671597,2.212489
32,1747638515.2240105,1.4800254,2.2524788,0.6026876,-0.070247434,-1.853616,1.8142164
33,1747638515.2250118,1.4800254,2.2524788,0.6026876,-0.070247434,-1.853616,1.8142164
34,1747638515.2391655,0.92849934,2.1946402,0.69808954,-1.1563338,-0.8878665,1.3353121
35,1747638515.254903,0.5304578,2.123874,1.2620858,-1.7338899,0.38277218,0.53693473
36,1747638515.2559476,0.32837284,2.1538756,1.7760487,-1.7338899,0.38277218,0.53693473
37,1747638515.2705119,0.20220692,2.167291,2.0823472,-0.8840487,0.45729554,0.073912516
38,1747638515.2715995,0.20220692,2.167291,2.0823472,-0.8840487,0.45729554,0.073912516
39,1747638515.285739,0.18391317,2.2000065,2.112105,-0.02351762,0.39315656,-0.3354315
40,1747638515.3005793,0.4367328,2.2934875,1.1805872,2.0644348,0.27037627,-2.013429
41,1747638515.3015838,0.4367328,2.2934875,1.1805872,2.0644348,0.27037627,-2.013429
42,1747638515.3157685,0.5428975,2.3749862,0.7171455,2.0164068,0.6222243,-2.6004531
43,1747638515.3313162,0.9492323,2.303732,0.33178765,1.2170368,1.5067312,-3.4160106
44,1747638515.3324008,0.9492323,2.303732,0.33178765,1.2170368,1.5067312,-3.4160106
45,1747638515.3468115,1.4268211,2.2829685,0.29102308,0.60702944,1.9263831,-4.070228
46,1747638515.3625975,2.391298,2.189518,0.1694916,0.06306998,2.494471,-4.887542
47,1747638515.3636687,2.391298,2.189518,0.1694916,0.06306998,2.494471,-4.887542
48,1747638515.378643,3.256928,1.6931171,0.3310559,-0.042224817,3.168312,-6.1380224
49,1747638515.3938227,3.13686,0.633726,0.62951845,0.608862,3.308196,-7.3413916
50,1747638515.3949583,3.13686,0.633726,0.62951845,0.608862,3.308196,-7.3413916
51,1747638515.4089513,2.9694414,0.27495506,0.54192185,1.9815122,2.751638,-7.922918
52,1747638515.4236205,2.8740396,0.10485368,0.37035698,2.646343,2.1982102,-7.9137554
53,1747638515.4246948,2.8740396,0.10485368,0.37035698,2.646343,2.1982102,-7.9137554
54,1747638515.438723,2.7720215,-0.6143346,-0.31468302,2.821427,1.5604857,-7.648037
55,1747638515.4539843,2.4415753,-0.82812756,-0.42011598,2.3560379,1.7101432,-7.479443
56,1747638515.4550748,2.4415753,-0.82812756,-0.42011598,2.3560379,1.7101432,-7.479443
57,1747638515.4697535,1.614271,-0.96770895,-0.19534676,1.4189218,1.8915648,-6.6590753
58,1747638515.4858298,1.0160959,-1.2925448,0.29590142,1.0244672,1.8048246,-5.73242
59,1747638515.486885,1.0160959,-1.2925448,0.29590142,1.0518789,1.3925027,-4.7720914
60,1747638515.5008674,0.92996275,-1.4265162,0.31886008,1.2581162,0.9997279,-4.1551356
61,1747638515.5018682,0.92996275,-1.4265162,0.31886008,1.2581162,0.9997279,-4.1551356
62,1747638515.5160294,0.7508365,-1.560274,0.22757424,1.3846381,0.72729003,-3.7446463
63,1747638515.5311782,0.21635409,-1.6325037,-0.12506826,1.0500464,0.31435728,-2.5906796
64,1747638515.5321786,0.21635409,-1.6325037,-0.12506826,1.0500464,0.31435728,-2.5906796
65,1747638515.5460367,-0.1504356,-1.5873487,-0.16997942,0.47058147,0.34489962,-1.5962203
66,1747638515.5615811,-0.4677102,-1.5485355,-0.12677568,-0.18058172,0.24288814,0.06536066
67,1747638515.5625858,-0.4677102,-1.5485355,-0.12677568,-0.18058172,0.24288814,0.06536066
68,1747638515.5765889,-0.3161465,-1.5592983,-0.17412601,-0.71950173,-0.2947338,2.3004508
69,1747638515.5926523,-0.20876218,-1.5309734,-0.18559009,-0.84106034,-0.6374191,3.0347655
70,1747638515.593864,-0.20876218,-1.5309734,-0.18559009,-0.84106034,-0.6374191,3.0347655
71,1747638515.6086986,0.11433593,-1.4685003,-0.16973552,-0.913293,-1.321568,4.1953754
72,1747638515.624067,0.3325194,-1.4436208,-0.18656576,-0.8273163,-1.6447062,4.5453906
73,1747638515.6250675,0.3325194,-1.4436208,-0.18656576,-0.8273163,-1.6447062,4.5453906
74,1747638515.6392417,0.8194075,-1.3325777,-0.3857237,-0.17867282,-2.488897,5.241833
75,1747638515.6552477,0.8364817,-1.2932767,-0.5099383,0.047493376,-2.8035598,5.5209904
76,1747638515.6563158,0.8545315,-1.2573905,-0.5936322,0.1546207,-3.0619483,5.8105316
77,1747638515.6708484,1.040762,-1.2383649,-0.8044982,0.11293039,-3.415629,6.259505
78,1747638515.671886,1.040762,-1.2383649,-0.8044982,0.11293039,-3.415629,6.259505
79,1747638515.6864672,1.5210339,-1.2078754,-1.0292674,-0.3475721,-3.6159868,6.866687
80,1747638515.7016563,2.022557,-0.9843257,-1.0399997,-0.98873264,-3.5579562,7.2014313
81,1747638515.7026567,2.022557,-0.9843257,-1.0399997,-0.98873264,-3.5579562,7.2014313
82,1747638515.7163672,2.3617842,-0.55259323,-0.9426159,-1.5830871,-3.4980931,7.457987
83,1747638515.7317429,2.724915,0.19272466,-0.5062795,-1.8099405,-3.3514898,7.6308565
84,1747638515.7327435,2.724915,0.19272466,-0.5062795,-1.8099405,-3.3514898,7.6308565
85,1747638515.7474992,2.9391959,0.46557596,-0.37276566,-1.708387,-3.3569875,7.6620097
86,1747638515.7628863,3.355775,2.0594494,-0.04036821,-1.4635137,-3.3178933,7.389572
87,1747638515.7639303,3.355775,2.0594494,-0.04036821,-1.467866,-2.999642,7.1672235
88,1747638515.7777278,3.355775,2.0594494,-0.04036821,-1.467866,-2.999642,7.1672235
89,1747638515.792907,3.5485606,2.730068,0.43770844,-1.4042615,-2.2677705,6.5685935
90,1747638515.7940042,3.5485606,2.730068,0.43770844,-1.4042615,-2.2677705,6.5685935
91,1747638515.808513,3.6520424,3.1161575,1.1774163,-0.3986542,-1.1810732,4.5826526
92,1747638515.8238783,3.4143455,3.4102294,1.3062652,0.33718768,-0.762032,3.4037173
93,1747638515.824882,3.4143455,3.4102294,1.3062652,0.33718768,-0.762032,3.4037173
94,1747638515.8396616,2.8864794,3.65625,1.018535,1.2020711,-0.30023143,1.2204728
95,1747638515.8416471,2.8864794,3.65625,1.018535,1.2020711,-0.30023143,1.2204728
96,1747638515.8549874,2.6463435,3.6067042,0.8328229,1.2307045,-0.114533864,0.3994941
97,1747638515.869885,1.7177222,3.120792,0.49896204,0.6244386,0.8164737,-1.7202222
98,1747638515.871245,1.7177222,3.120792,0.49896204,0.6244386,0.8164737,-1.7202222
99,1747638515.8850973,1.5046915,2.8150117,0.4974985,0.44500223,1.1542722,-2.3298478
100,1747638515.900646,1.3951119,2.4850535,0.44185504,0.3795652,1.3723447,-3.1136413
101,1747638515.9012463,1.3951119,2.4850535,0.44185504,0.3795652,1.3723447,-3.1136413
102,1747638515.916195,1.817301,2.2258615,0.19830425,0.08299887,1.6136293,-3.9682164
103,1747638515.931941,2.0557299,2.1346064,0.18193135,-0.13446276,1.9422653,-4.38909
104,1747638515.9329402,2.0557299,2.1346064,0.18193135,-0.13446276,1.9422653,-4.38909
105,1747638515.9471786,2.4723394,1.8141607,0.3088595,-0.2391467,2.2189791,-4.7171154
106,1747638515.9620357,2.7993402,1.3685554,0.322031,0.1421747,2.7987494,-6.098317
107,1747638515.9631102,2.7993402,1.3685554,0.322031,0.1421747,2.7987494,-6.098317
108,1747638515.9781334,2.893309,1.0171021,0.23342825,0.5047889,2.9276383,-6.7647514
109,1747638515.9929354,2.8135178,0.4997243,0.044301365,1.1547304,3.0889018,-7.7097325
110,1747638515.9929354,2.8135178,0.4997243,0.044301365,1.1547304,3.0889018,-7.7097325
111,1747638516.00782,2.592895,-0.21458568,-0.32126877,1.7267125,2.6905532,-8.418391
112,1747638516.0235863,2.592895,-0.21458568,-0.32126877,1.6512729,2.5922067,-8.566828
113,1747638516.0236166,2.4774616,-0.44984335,-0.48405263,1.6512729,2.5922067,-8.566828
114,1747638516.038835,2.250985,-0.71074265,-0.5702162,1.2450594,2.7076569,-8.479476
115,1747638516.0541742,2.1555526,-0.7998028,-0.4777108,0.9497148,2.8201292,-8.216736
116,1747638516.055175,2.1555526,-0.7998028,-0.4777108,0.71980715,2.7351449,-7.8447294
117,1747638516.069481,2.1877801,-1.0353348,-0.2519659,0.7391252,2.55128,-7.7414966
118,1747638516.0845668,1.9886222,-1.2766904,-0.013293459,0.83754796,2.3997898,-7.6969047
119,1747638516.0855675,1.7904702,-1.3464811,0.050887115,0.83754796,2.3997898,-7.6969047
120,1747638516.099841,1.4136496,-1.4741104,0.12945877,1.4282372,1.8872889,-7.21067
121,1747638516.1008167,1.4136496,-1.4741104,0.12945877,1.4282372,1.8872889,-7.21067
122,1747638516.115008,0.9375242,-1.5297539,0.09653002,1.6762413,1.5238348,-6.775136
123,1747638516.1306174,0.2341905,-1.5919832,-0.07186395,1.7565676,0.951471,-5.397599
124,1747638516.131706,0.2341905,-1.5919832,-0.07186395,1.7565676,0.951471,-5.397599
125,1747638516.1461387,-0.35398406,-1.5788116,-0.3986513,0.5241069,0.32718506,-2.3884892
126,1747638516.1609075,-0.3988952,-1.629089,-0.46088055,-0.38368842,0.31618983,-1.0898279
127,1747638516.161909,-0.3988952,-1.629089,-0.46088055,-0.38368842,0.31618983,-1.0898279
128,1747638516.1761622,-0.35374016,-1.7279363,-0.40255398,-1.0310339,0.39376742,-0.28404397
129,1747638516.1917133,-0.55286765,-1.8394672,0.00085370836,-1.8379631,0.24472068,1.2155861
130,1747638516.1928098,-0.55286765,-1.8394672,0.00085370836,-1.8379631,0.24472068,1.2155861
131,1747638516.2066867,-0.75397694,-1.7586696,0.25126466,-1.5164284,-0.7846333,2.6780307
132,1747638516.2219224,-0.5289638,-1.7142463,0.013537374,-0.7382089,-2.1547637,5.1080575
133,1747638516.2229757,-0.5289638,-1.7142463,0.013537374,-0.7382089,-2.1547637,5.1080575
134,1747638516.2371228,0.40084654,-1.7603772,-0.297121,-0.7911999,-2.545706,7.711565
135,1747638516.2531605,1.3462981,-1.7032701,-0.3544719,-0.9687274,-2.8047814,8.377388
136,1747638516.254161,1.3462981,-1.7032701,-0.3544719,-0.9687274,-2.8047814,8.377388
137,1747638516.2689357,2.2853773,-1.4745982,-0.3413004,-1.0734113,-3.2091625,8.459853
138,1747638516.2845511,2.691224,-1.0828986,-0.4220673,-1.0946383,-2.962991,7.666286
139,1747638516.2855515,2.5613995,-0.7134258,-0.22879384,-1.0946383,-2.962991,7.666286
140,1747638516.2997556,2.268547,-0.5543006,-0.05332628,-0.67216104,-3.0564506,7.70538
141,1747638516.31522,2.106495,-0.47085062,-0.074790955,-0.020463383,-3.458388,8.062191
142,1747638516.316221,2.106495,-0.47085062,-0.074790955,-0.020463383,-3.458388,8.062191
143,1747638516.3313074,2.4986825,-0.4305739,-0.5318908,0.73034424,-4.162695,8.625392
144,1747638516.3323085,2.4986825,-0.4305739,-0.5318908,0.73034424,-4.162695,8.625392
145,1747638516.3471286,2.895992,-0.030093221,-1.1790932,0.32787228,-4.066181,8.558199
146,1747638516.3628287,3.1510072,0.2344649,-0.88111854,-0.85411716,-3.0210214,8.343181
147,1747638516.3638906,3.1510072,0.2344649,-0.88111854,-0.85411716,-3.0210214,8.343181
148,1747638516.3789043,2.9772468,1.1044852,-0.42743346,-1.2410126,-2.7974515,7.862444
149,1747638516.3942046,3.1949425,1.5054537,-0.2756563,-1.4124316,-2.6881096,7.813576
150,1747638516.395294,3.1949425,1.5054537,-0.2756563,-1.4124316,-2.6881096,7.813576
151,1747638516.409647,3.6454568,1.7929399,0.23367217,-1.5793456,-2.3850532,7.357808
152,1747638516.4249468,3.0546293,2.4525821,1.1132356,-0.13255386,-1.2910256,4.268677
153,1747638516.425951,3.0546293,2.4525821,1.1132356,-0.13255386,-1.2910256,4.268677
154,1747638516.4401615,2.7183294,2.8896809,1.0173155,0.55342764,-1.0692881,3.572922
155,1747638516.441245,2.7183294,2.8896809,1.0173155,0.55342764,-1.0692881,3.572922
156,1747638516.4555647,2.6971087,3.1605809,0.8003516,0.85999656,-0.9513946,2.9706266
157,1747638516.4707348,2.7771437,3.5071251,0.23806266,0.4325562,-0.38819343,1.8325418
158,1747638516.471825,2.7771437,3.5071251,0.23806266,0.4325562,-0.38819343,1.8325418
159,1747638516.4867585,2.6673203,3.6145096,0.579485,-0.44103172,0.7224032,-0.49364093
160,1747638516.502013,2.5997248,3.4619703,0.649794,-0.27213246,1.007058,-1.4899328
161,1747638516.5030134,2.5997248,3.4619703,0.649794,-0.27213246,1.007058,-1.4899328
162,1747638516.5172768,2.4725833,3.3140957,0.57094795,0.19760908,1.3747882,-2.8765562
163,1747638516.532654,2.7622647,3.2420793,0.28760824,0.42316443,1.4340403,-4.092829
164,1747638516.533657,2.7622647,3.2420793,0.28760824,0.42316443,1.4340403,-4.092829
165,1747638516.5479932,3.1244202,2.9489832,0.08433419,0.31168482,1.5812545,-4.9083104
166,1747638516.5638442,3.2171693,2.1902497,0.010610376,0.18829367,2.0424442,-6.2418666
167,1747638516.564923,3.2171693,2.1902497,0.010610376,0.18829367,2.0424442,-6.2418666
168,1747638516.5786278,2.8859916,1.447371,-0.074059196,0.530979,2.3643606,-7.502655
169,1747638516.5944602,2.9106271,1.0422559,-0.19802985,0.6269584,2.3570304,-7.71523
170,1747638516.5955698,2.9106271,1.0422559,-0.19802985,0.6269584,2.3570304,-7.71523
171,1747638516.609984,2.8471782,0.38477856,-0.32565925,0.6873559,2.3619173,-8.069521
172,1747638516.6110418,2.8471782,0.38477856,-0.32565925,0.6873559,2.3619173,-8.069521
173,1747638516.6254003,2.7197928,-0.09476163,-0.37300956,0.69422793,1.843308,-8.155651
174,1747638516.6405182,2.742965,-0.17186978,-0.41962814,0.69422793,1.843308,-8.155651
175,1747638516.6415186,2.742965,-0.17186978,-0.41962814,0.69422793,1.843308,-8.155651
176,1747638516.6554673,2.784949,-0.5843328,-0.37130213,0.2294495,2.0332816,-8.023707
177,1747638516.6707244,2.5757906,-0.8923082,-0.04698445,-0.14133479,2.7699633,-7.9552927
178,1747638516.6718135,2.5757906,-0.8923082,-0.04698445,-0.14133479,2.7699633,-7.9552927
179,1747638516.6859112,2.4208426,-1.1282976,0.16534501,0.09361234,2.9905555,-7.7921968
180,1747638516.70092,2.1533575,-1.56003,0.35764283,1.1341143,2.924584,-7.431797
181,1747638516.7019205,2.1533575,-1.56003,0.35764283,1.1341143,2.924584,-7.431797
182,1747638516.7160854,1.5132285,-2.0205448,0.027471114,1.8575102,2.6209166,-7.2302175
183,1747638516.7316363,1.2325718,-2.2306485,-0.31224382,2.7640839,1.611186,-6.1984963
184,1747638516.7326381,1.2325718,-2.2306485,-0.31224382,2.7640839,1.611186,-6.1984963
185,1747638516.7473252,0.69568086,-2.362211,-0.7788564,2.5609772,1.5617074,-5.7599077
186,1747638516.7623467,0.228306,-2.4014816,-0.9331032,1.044396,1.5000118,-4.137421
187,1747638516.7634053,-0.168272,-2.4200497,-0.90261364,1.044396,1.5000118,-4.137421
188,1747638516.777026,-0.168272,-2.4200497,-0.90261364,-0.12575819,1.3442458,-2.812417
189,1747638516.7927372,-0.4542948,-2.4883769,-0.71101713,-1.421747,0.93192387,-0.8485432
190,1747638516.7938654,-0.4542948,-2.4883769,-0.71101713,-1.421747,0.93192387,-0.8485432
191,1747638516.8077068,-0.6043645,-2.4093175,-0.3132195,-2.158887,-0.17073181,1.5234531
192,1747638516.8235497,-0.65561754,-2.346082,-0.22318375,-2.0803168,-0.61970454,2.1746163
193,1747638516.8245516,-0.65561754,-2.346082,-0.22318375,-2.0803168,-0.61970454,2.1746163
194,1747638516.8394935,-0.43328747,-2.1267095,-0.21708584,-1.5937005,-1.7253381,4.0548806
195,1747638516.855064,-0.25367334,-2.026399,-0.28346166,-1.4310625,-2.21707,6.0994625
196,1747638516.8560908,0.052838445,-1.6837567,-0.37057042,-1.4310625,-2.21707,6.0994625
197,1747638516.8696957,0.052838445,-1.6837567,-0.37057042,-1.4310625,-2.21707,6.0994625
198,1747638516.8848746,0.90261364,-1.1993078,-0.30931684,-1.5943114,-2.4449162,7.6949954
199,1747638516.8858745,1.2220836,-0.9996925,-0.29590142,-1.6634898,-2.631301,8.065246
200,1747638516.9006877,1.7243384,-0.772728,-0.23172083,-1.7513754,-2.7479727,8.360285
201,1747638516.9016907,1.7243384,-0.772728,-0.23172083,-1.7513754,-2.7479727,8.360285
202,1747638516.9161644,2.302482,-0.44618458,-0.0945482,-1.6753249,-2.8359346,8.075019
203,1747638516.932048,2.268059,0.3972488,0.076528855,-1.4560308,-3.043012,7.686444
204,1747638516.9330468,2.268059,0.3972488,0.076528855,-1.4560308,-3.043012,7.686444
205,1747638516.9468343,2.3251662,0.7789174,0.39987087,-1.0553913,-2.5928175,7.7995267
206,1747638516.9627132,2.3920298,1.2147965,0.8093765,-0.18119256,-2.0356486,7.8086896
207,1747638516.9637835,2.3920298,1.2147965,0.8093765,-0.18119256,-2.0356486,7.8086896
208,1747638516.9781013,2.5162444,1.7038494,0.9585011,1.0319501,-1.6489822,7.819685
209,1747638516.9928775,3.0026448,2.0252705,0.5846073,1.6101934,-1.2427688,6.505065
210,1747638516.993906,3.0026448,2.0252705,0.5846073,1.6101934,-1.2427688,6.505065
211,1747638517.0079594,3.5197787,2.3364167,0.1475391,1.6101934,-1.2427688,6.505065
212,1747638517.0232174,3.601277,2.9968212,0.35691106,1.0979979,-0.49570256,4.6718364
213,1747638517.0243938,3.601277,2.9968212,0.35691106,1.0979979,-0.49570256,4.6718364
214,1747638517.0383506,3.2088459,3.619632,0.7300731,1.553461,-0.15973656,3.177093
215,1747638517.054387,3.3211083,3.7096677,0.5348483,1.8045955,0.14698513,2.2069912
216,1747638517.0554454,3.3211083,3.7096677,0.5348483,1.8045955,0.14698513,2.2069912
217,1747638517.0702531,3.389466,3.4624581,0.10848194,1.7758857,0.90626824,-0.36597386
218,1747638517.0713398,3.389466,3.4624581,0.10848194,1.7758857,0.90626824,-0.36597386
219,1747638517.0851693,3.302327,3.2293959,0.0257637,1.7460306,0.8470161,-1.3989166
220,1747638517.0915384,2.930415,2.8474526,-0.14994776,1.7441217,0.69552594,-2.4343026
221,1747638517.101321,2.4874623,2.5721927,-0.30199933,1.6936504,0.5177694,-3.6249204
222,1747638517.1120973,1.5437181,2.158266,-0.56387436,1.304846,0.2410556,-4.522866
223,1747638517.121621,1.466366,2.049662,-0.6807714,0.973996,0.09315421,-4.498432
224,1747638517.1317358,1.6186615,1.9237403,-0.78056383,0.530979,0.0045813546,-4.4593377
225,1747638517.1418266,1.9441988,1.7065326,-0.78937536,-0.32947573,0.06566608,-4.66275
226,1747638517.1516626,2.2461066,1.2792209,-0.49502888,-0.9781192,0.3302393,-5.233892
227,1747638517.1686475,2.1616507,0.80187607,0.0086590415,-1.1756519,0.4737884,-6.098317
228,1747638517.1835167,2.0903962,0.5456111,0.21440275,-0.95131826,0.33207184,-6.4654365
229,1747638517.1846,2.0903962,0.5456111,0.21440275,-0.95131826,0.33207184,-6.4654365
230,1747638517.19913,2.006428,0.32742763,0.31788442,-0.4734066,0.09987353,-6.8404965
231,1747638517.2143211,1.9324907,-0.07378479,0.30422506,-0.11766446,0.33940202,-7.0597906
232,1747638517.2157824,1.9324907,-0.07378479,0.30422506,-0.11766446,0.33940202,-7.0597906
233,1747638517.2289703,1.7907143,-0.42081723,0.393773,0.36963895,0.7621083,-7.1251516
234,1747638517.2450418,1.7841285,-0.6162859,0.44063547,0.6076403,0.9105442,-7.086668
235,1747638517.2460468,1.7841285,-0.6162859,0.44063547,0.6076403,0.9105442,-7.086668
236,1747638517.2604992,1.6799151,-1.0099369,0.5043282,0.91046786,0.951471,-7.0457416
237,1747638517.2615001,1.6799151,-1.0099369,0.5043282,1.2594143,0.9013815,-6.999928
238,1747638517.2761607,1.266019,-1.3054725,0.36060032,1.8245244,0.659486,-6.69878
239,1747638517.2916338,1.0251209,-1.4448404,0.20367043,1.8481947,0.6985802,-6.4452786
240,1747638517.2927365,1.0251209,-1.4448404,0.20367043,1.8481947,0.6985802,-6.4452786
241,1747638517.307441,0.48286358,-1.6793664,0.048447948,1.4195327,1.1444987,-5.487394
242,1747638517.3225684,0.18927933,-1.8155328,0.025519783,1.1522106,1.2685007,-4.794082
243,1747638517.3238442,-0.1606801,-1.9995375,-0.049423616,1.1522106,1.2685007,-4.794082
244,1747638517.3378766,-0.42401865,-2.0652118,-0.10896978,0.603288,1.0931876,-2.8380728
245,1747638517.3534968,-0.56728923,-2.1586626,-0.17193076,0.38643724,0.8854995,-1.8118494
246,1747638517.3545659,-0.56728923,-2.1586626,-0.17193076,0.38643724,0.8854995,-1.8118494
247,1747638517.3688176,-0.7849543,-2.091311,-0.23464784,0.13285927,0.3846047,-0.31588438
248,1747638517.3847432,-0.9370059,-1.9226732,-0.37520483,-0.10888352,-0.10720369,1.3786823
249,1747638517.3857436,-0.9370059,-1.9226732,-0.37520483,-0.10888352,-0.10720369,1.3786823
250,1747638517.3997793,-0.85355586,-1.8316313,-0.5057917,-0.7082774,-0.4883724,3.6950915
251,1747638517.4153423,-0.12970269,-1.671561,-0.46649066,-1.1064734,-0.6575771,4.8618097
252,1747638517.4163988,-0.12970269,-1.671561,-0.46649066,-1.1064734,-0.6575771,4.8618097
253,1747638517.4303312,0.22025676,-1.5302417,-0.33154374,-1.3537903,-1.1352596,7.290004
254,1747638517.4314253,0.22025676,-1.5302417,-0.33154374,-1.3537903,-1.1352596,7.290004
255,1747638517.4456818,0.68857676,-1.3794403,-0.25952733,-1.0323318,-1.4425159,8.233229
256,1747638517.4604714,1.794129,-1.0267673,-0.42035988,-0.2422773,-2.0130472,9.304044
257,1747638517.461476,1.794129,-1.0267673,-0.42035988,-0.2422773,-2.0130472,9.304044
258,1747638517.4765627,2.707841,-0.23287943,-1.0060648,-0.24907297,-1.4498459,9.556324
259,1747638517.4917688,2.7271104,0.15196009,-1.0717089,-0.7824953,-0.97216344,9.500736
260,1747638517.4928493,2.7271104,0.15196009,-1.0717089,-0.7824953,-0.97216344,9.500736
261,1747638517.5070713,2.787632,1.1635435,-0.8352316,-1.5432292,-0.581832,9.588088
262,1747638517.521795,3.002157,1.290685,-0.49868765,-3.60942,-0.40346462,10.079208
263,1747638517.5227957,3.002157,1.290685,-0.49868765,-3.60942,-0.40346462,10.079208
264,1747638517.5373116,3.541731,1.3705069,0.30251765,-3.7863367,-0.44255883,9.644285
265,1747638517.5526743,4.232137,2.158754,1.1879046,-1.9712805,-1.0772291,7.2741218
266,1747638517.553681,4.232137,2.158754,1.1879046,-1.9712805,-1.0772291,7.2741218
267,1747638517.567717,3.409955,3.4697757,0.5221341,-0.54136336,-0.6801784,4.145286
268,1747638517.583058,3.409955,3.4697757,0.5221341,-0.8990145,0.04795151,2.8991575
269,1747638517.584154,2.86721,3.7372606,0.5704601,-0.8990145,0.04795151,2.8991575
270,1747638517.5983803,2.6846385,3.7665308,0.9106629,-0.8341883,0.51715857,1.5295615
271,1747638517.6140928,2.4288917,3.6379259,1.3714216,-0.2235701,0.6301653,0.23456535
272,1747638517.6152558,2.334435,3.2828438,1.1432374,0.3639886,0.7224032,-1.1582427
273,1747638517.6290834,2.334435,3.2828438,1.1432374,0.3639886,0.7224032,-1.1582427
274,1747638517.6446671,1.8875796,2.6763756,0.6627216,0.6612422,1.2507861,-3.1887753
275,1747638517.6456673,1.8875796,2.6763756,0.6627216,0.6612422,1.2507861,-3.1887753
276,1747638517.6597476,1.4043807,2.158266,0.38645548,0.6132143,1.7394639,-4.5711226
277,1747638517.6755977,1.6760124,1.9869453,0.3383734,0.55403847,1.9062252,-4.88632
278,1747638517.6766825,1.6760124,1.9869453,0.3383734,0.55403847,1.9062252,-4.88632
279,1747638517.690767,2.3058968,1.7509559,0.339593,0.5085303,2.1108592,-5.7122617
280,1747638517.6919487,2.3058968,1.7509559,0.339593,0.5085303,2.1108592,-5.7122617
281,1747638517.7059484,2.987278,1.2445544,0.17217468,0.20073968,2.9264164,-6.873482
282,1747638517.7213483,3.150763,0.81553537,0.26492402,0.15714046,3.300255,-7.4757776
283,1747638517.7223492,3.150763,0.81553537,0.26492402,0.15714046,3.300255,-7.4757776
284,1747638517.7372363,3.1024678,0.41749385,0.39499256,0.37276953,3.4273112,-8.040812
285,1747638517.7597125,2.6748817,-0.8256885,0.33617815,1.7839794,2.9771168,-8.613863
286,1747638517.7597125,2.6748817,-0.8256885,0.33617815,1.7839794,2.9771168,-8.613863
287,1747638517.7617505,2.6748817,-0.8256885,0.33617815,1.7839794,2.9771168,-8.613863
288,1747638517.7753367,2.2973597,-1.3005941,0.120189935,2.1840081,2.718652,-8.717707
289,1747638517.7903254,1.3912092,-1.546828,-0.12823918,2.159116,2.5219593,-8.31386
290,1747638517.7913938,1.3912092,-1.546828,-0.12823918,2.159116,2.5219593,-8.31386
291,1747638517.805642,0.24858157,-1.4199303,-0.17754084,1.6338637,2.1334605,-6.6499124
292,1747638517.8207169,-0.042807378,-1.3882213,-0.19095626,1.6338637,2.1334605,-6.6499124
293,1747638517.8217168,-0.042807378,-1.3882213,-0.19095626,1.3521868,1.8805697,-5.679276
294,1747638517.8354106,-0.19632243,-1.4235891,-0.17266251,1.1466366,1.6637188,-4.961454
295,1747638517.8506768,-0.39816347,-1.4350837,-0.15311868,0.8980218,1.2556729,-4.092829
296,1747638517.8517444,-0.6817471,-1.5929588,-0.20949392,0.48050773,0.5574745,-2.780653
297,1747638517.8660543,-0.8305972,-1.5993006,-0.15263085,0.25808296,0.20806985,-2.0476363
298,1747638517.881857,-1.0885696,-1.4919468,-0.0945482,-0.16874656,-0.81089973,0.423928
299,1747638517.8828576,-1.0885696,-1.4919468,-0.0945482,-0.16874656,-0.81089973,0.423928
300,1747638517.897129,-0.7195542,-1.4763057,-0.16485718,-0.66528904,-1.1364813,3.2674983
301,1747638517.9120476,-0.27172315,-1.4887455,-0.21168917,-0.8641198,-1.205507,4.14834
302,1747638517.9130497,-0.27172315,-1.4887455,-0.21168917,-0.8641198,-1.205507,4.14834
303,1747638517.9277632,0.2329404,-1.4441086,-0.15433827,-1.0946383,-1.4009782,5.1202745
304,1747638517.942908,0.50871867,-1.4126129,-0.099457026,-1.0877663,-1.7809252,5.414092
305,1747638517.9440994,0.50871867,-1.4126129,-0.099457026,-1.0877663,-1.7809252,5.414092
306,1747638517.9659982,0.79766846,-1.2588539,-0.0506432,-0.45469943,-2.4510245,5.554587
307,1747638517.966999,0.79766846,-1.2588539,-0.0506432,-0.45469943,-2.4510245,5.554587
308,1747638517.981426,0.77522814,-1.1046376,-0.18924884,0.21013145,-2.5573883,5.793428
309,1747638517.982427,0.77522814,-1.1046376,-0.18924884,0.21013145,-2.5573883,5.793428
310,1747638517.996236,0.9135899,-0.8832832,-0.519695,0.7945596,-2.7290366,6.218578
311,1747638518.0114136,1.0751542,-0.76272744,-0.6832106,0.6917845,-2.694829,6.27783
312,1747638518.0124948,1.0751542,-0.76272744,-0.6832106,0.6917845,-2.694829,6.27783
313,1747638518.0269914,1.2415968,-0.4539899,-0.7154076,0.22692975,-2.4797344,6.1464977
314,1747638518.0424552,1.3951119,0.16171674,-0.65878844,-0.20234315,-2.4766803,6.1593256
315,1747638518.043088,1.6018008,0.42310396,-0.66464245,-0.20234315,-2.4766803,6.1593256
316,1747638518.0573092,1.6018008,0.42310396,-0.66464245,-0.49150297,-2.4754586,6.1886463
317,1747638518.072478,2.120398,1.9684076,-0.58631474,-1.6958647,-2.1840844,6.3120375
318,1747638518.072478,2.120398,1.9684076,-0.58631474,-1.6958647,-2.1840844,6.3120375
319,1747638518.0876517,3.6818306,3.4795322,0.44746515,-2.9059532,-0.97643936,6.1727643
320,1747638518.1038208,4.455443,4.0018187,1.0180472,-2.7034574,-0.62642384,5.068352
321,1747638518.1048808,4.455443,4.0018187,1.0180472,-2.7034574,-0.62642384,5.068352
322,1747638518.1196835,4.7546678,4.335161,1.3023626,-1.64295,0.20684816,2.1611776
323,1747638518.134589,4.2909517,4.302964,1.2513535,-1.1226609,0.75111306,0.527772
324,1747638518.135626,3.4023936,3.90785,1.229401,-1.1226609,0.75111306,0.527772
325,1747638518.1506631,3.0089867,3.7772937,1.20132,0.09483404,1.0443197,-2.009764
326,1747638518.1516974,3.0089867,3.7772937,1.20132,0.09483404,1.0443197,-2.009764
327,1747638518.1657991,2.7258909,3.819735,1.0026805,0.61016005,0.82563645,-2.5069935
328,1747638518.1807063,3.0865824,3.4458718,0.38206497,0.62573665,1.2373475,-3.6236987
329,1747638518.1817088,3.0865824,3.4458718,0.38206497,0.62573665,1.2373475,-3.6236987
330,1747638518.1961174,3.0451167,2.751807,0.23781876,0.3067217,1.9502063,-4.6847405
331,1747638518.2122061,2.4830718,1.747541,0.4735947,0.5004366,2.2330284,-6.0103555
332,1747638518.2132068,2.4830718,1.747541,0.4735947,0.5004366,2.2330284,-6.0103555
333,1747638518.2294283,1.5959468,0.570765,0.3430078,1.76909,1.7131975,-6.825836
334,1747638518.2454457,1.3043139,0.1565945,0.13192843,2.0949006,1.587363,-6.686563
335,1747638518.246447,1.3043139,0.1565945,0.13192843,2.0949006,1.587363,-6.686563
336,1747638518.2608058,1.2194004,-0.30026144,-0.15360652,2.1690423,1.6741033,-6.3298283
337,1747638518.2618096,1.2194004,-0.30026144,-0.15360652,2.1690423,1.6741033,-6.3298283
338,1747638518.276858,1.2704096,-0.69440025,-0.34081256,1.4780977,2.4278889,-5.8741364
339,1747638518.2921758,1.292362,-0.8659651,-0.3430078,1.065623,2.8702185,-5.71104
340,1747638518.2932456,1.292362,-0.8659651,-0.3430078,1.065623,2.8702185,-5.71104
341,1747638518.3079262,1.2884593,-1.277666,-0.2280621,0.44935453,3.6478271,-5.424476
342,1747638518.322807,1.2921181,-1.4663051,-0.06991262,0.3870481,3.652714,-5.3798847
343,1747638518.3238378,1.2921181,-1.4663051,-0.06991262,0.3870481,3.652714,-5.3798847
344,1747638518.3375213,0.6610142,-2.1535401,0.10092052,1.3821182,2.8580017,-5.5466456
345,1747638518.3529527,0.2868765,-2.223331,0.03137378,1.780238,2.2263093,-5.424476
346,1747638518.353962,0.2868765,-2.223331,0.03137378,1.780238,2.2263093,-5.424476
347,1747638518.368829,-0.6339089,-2.4239523,-0.6834545,1.9241688,0.7052995,-4.213166
348,1747638518.3842955,-0.9357863,-2.4393191,-0.8867286,1.2917893,0.48844874,-3.2724614
349,1747638518.3852983,-0.9357863,-2.4393191,-0.8867286,1.2917893,0.48844874,-3.2724614
350,1747638518.4004123,-1.1547015,-2.537191,-0.8830698,-0.18371232,0.26487863,-1.2260468
351,1747638518.401413,-1.1547015,-2.537191,-0.8830698,-0.18371232,0.26487863,-1.2260468
352,1747638518.4159212,-1.1764101,-2.5454838,-0.7693437,-1.5039823,-0.67895675,1.479472
353,1747638518.4315484,-1.0643914,-2.3892858,-0.25269768,-1.5787348,-1.397924,2.521654
354,1747638518.4325495,-1.0643914,-2.3892858,-0.25269768,-1.5787348,-1.397924,2.521654
355,1747638518.4471107,-0.94066465,-2.2431188,-0.21217702,-1.5737716,-1.8023049,3.2943757
356,1747638518.462543,-0.43816578,-1.9148679,0.1094576,-1.2846881,-2.8353238,5.529542
357,1747638518.4636014,-0.43816578,-1.9148679,0.1094576,-1.2846881,-2.8353238,5.529542
358,1747638518.477698,0.22050068,-1.8077275,0.21562232,-0.69583136,-3.6514158,6.84714
359,1747638518.4929056,1.1295781,-1.4250526,-0.06796128,-0.18371232,-3.842611,8.265603
360,1747638518.4939983,1.1295781,-1.4250526,-0.06796128,-0.18371232,-3.842611,8.265603
361,1747638518.508859,2.364711,-1.3369682,0.20220692,-0.0029778804,-2.2885392,10.005297
362,1747638518.5241592,2.9516356,-1.0777763,0.26394835,0.5465556,-2.3160274,10.304001
363,1747638518.5251615,2.9516356,-1.0777763,0.26394835,0.5465556,-2.3160274,10.304001
364,1747638518.5396492,3.9146492,-0.8398356,-0.2133966,1.4512967,-2.5958717,10.588121
365,1747638518.5555713,4.1740546,-0.49499843,-0.5697284,1.2681189,-2.3270226,10.552081
366,1747638518.5566075,4.3639436,-0.04106947,-1.0356092,1.2681189,-2.3270226,10.552081
367,1747638518.5713913,4.5757546,0.68985736,-0.9724043,0.025655584,-1.0356915,10.9277525
368,1747638518.5724878,4.5757546,0.68985736,-0.9724043,0.025655584,-1.0356915,10.9277525
369,1747638518.5861833,4.957698,0.86483705,-0.63659203,-0.6391753,-0.4883724,10.987004
370,1747638518.6096098,5.1151156,1.3573048,0.92139524,0.32909396,-0.71805096,8.325466
371,1747638518.6107316,5.1151156,1.3573048,0.92139524,0.32909396,-0.71805096,8.325466
372,1747638518.611732,5.1151156,1.3573048,0.92139524,0.32909396,-0.71805096,8.325466
373,1747638518.6253757,5.1783204,1.9166667,0.7534891,1.5727789,-1.8157434,6.60952
374,1747638518.6408513,3.9051366,3.0544162,-0.43572664,2.2737262,-1.6593666,3.0622537
375,1747638518.6408513,3.9051366,3.0544162,-0.43572664,2.2737262,-1.6593666,3.0622537
376,1747638518.656074,2.4010546,3.4546528,-0.96508676,-0.19860171,-0.2043284,1.0842539
377,1747638518.6713226,2.213879,3.3873012,-0.8110839,-1.5749933,0.31130302,0.45813546
378,1747638518.6724079,2.213879,3.3873012,-0.8110839,-1.5749933,0.31130302,0.45813546
379,1747638518.6874542,2.271962,2.9880402,-0.039880376,-2.644205,0.71629477,-0.33848575
380,1747638518.7035034,1.9273685,2.8064747,0.68247885,-2.8735018,0.6417714,-2.3756614
381,1747638518.7045393,1.9273685,2.8064747,0.68247885,-2.0579443,0.15248275,-3.558338
382,1747638518.7187417,1.9273685,2.8064747,0.68247885,-2.0579443,0.15248275,-3.558338
383,1747638518.7340505,2.6360686,2.7290924,0.3723083,-1.2273449,-0.11392301,-4.789195
384,1747638518.7351508,2.6360686,2.7290924,0.3723083,-1.2366602,0.102316916,-5.3597264
385,1747638518.749294,3.5309987,2.4245317,0.18510225,-1.3856306,0.5892385,-6.225984
386,1747638518.7645307,3.9702928,1.9137397,0.237087,-1.5233004,1.3124816,-7.711565
387,1747638518.7655053,3.9702928,1.9137397,0.237087,-1.5233004,1.3124816,-7.711565
388,1747638518.780427,3.7167108,1.0485977,0.66955125,-0.75256383,1.9899113,-9.061614
389,1747638518.781431,3.7167108,1.0485977,0.66955125,-0.75256383,1.9899113,-9.061614
390,1747638518.795794,3.547829,-0.35785624,0.5689966,2.0257986,0.8036459,-9.891755
391,1747638518.8113756,3.518315,-0.74513495,0.27468067,2.5790734,0.367501,-10.062793
392,1747638518.8124175,3.518315,-0.74513495,0.27468067,2.5790734,0.367501,-10.062793
393,1747638518.8266065,3.3911736,-1.0833864,-0.120921694,2.7934046,0.09193251,-10.175188
394,1747638518.8419428,3.0538979,-1.526583,-0.46161228,1.8724759,0.58679515,-10.013313
395,1747638518.8441613,2.6299706,-1.7567184,-0.2397701,0.77524155,1.3582952,-9.531355
396,1747638518.8571038,2.6299706,-1.7567184,-0.2397701,0.77524155,1.3582952,-9.531355
397,1747638518.8723538,2.022313,-2.074481,0.22611076,0.1066692,2.18355,-8.703046
398,1747638518.873442,2.022313,-2.074481,0.22611076,0.1066692,2.18355,-8.703046
399,1747638518.8876119,0.9341094,-2.1435397,0.73812234,0.7191963,2.283118,-7.602834
400,1747638518.9027224,0.0623512,-2.0398142,0.706901,1.6712017,2.0424442,-6.5063634
401,1747638518.9038048,0.0623512,-2.0398142,0.706901,1.6712017,2.0424442,-6.5063634
402,1747638518.918468,-0.47795472,-1.9629498,0.4589292,2.5784626,1.7003697,-5.0347557
403,1747638518.9341452,-1.3823978,-2.5454838,-1.1754345,2.789663,0.76333,-1.6279843
404,1747638518.9352133,-1.3823978,-2.5454838,-1.1754345,2.789663,0.76333,-1.6279843
405,1747638518.9493725,-1.9205085,-2.5306048,-1.8080018,1.7921495,0.30397287,-0.3354315
406,1747638518.9645493,-2.13796,-2.485206,-2.0413082,0.4337779,-0.20249587,1.2449067
407,1747638518.9655497,-2.13796,-2.485206,-2.0413082,0.4337779,-0.20249587,1.2449067
408,1747638518.980299,-1.750651,-2.3873346,-2.0981712,-1.8149036,-0.9165763,3.7030325
409,1747638518.9813037,-1.750651,-2.3873346,-2.0981712,-1.8149036,-0.9165763,3.7030325
410,1747638518.9959025,-0.12336086,-2.3094945,-1.1622629,-4.873645,-1.4645063,6.049373
411,1747638519.0116148,0.3456909,-2.2526314,-0.6661059,-5.3776703,-1.62577,6.30654
412,1747638519.012615,0.3456909,-2.2526314,-0.6661059,-5.3776703,-1.62577,6.30654
413,1747638519.0270395,0.70982796,-2.0198128,0.26224092,-4.988866,-2.06558,6.365181
414,1747638519.0423462,0.70055914,-1.7916288,0.6507697,-3.8405495,-2.5383759,6.500789
415,1747638519.0434475,0.70055914,-1.7916288,0.6507697,-3.8405495,-2.5383759,6.500789
416,1747638519.0575924,0.7037301,-1.6093316,0.63244545,-1.9152353,-3.1163137,6.9405994
417,1747638519.0723183,0.9226453,-1.3430662,0.23562351,-1.232308,-3.1932805,7.216091
418,1747638519.0733194,0.9226453,-1.3430662,0.23562351,-1.232308,-3.1932805,7.216091
419,1747638519.087681,1.0858865,-0.93307275,-0.021098793,-0.8559497,-2.473626,7.8086896
420,1747638519.1020858,1.0858865,-0.93307275,-0.021098793,-0.8559497,-2.473626,7.8086896
421,1747638519.1031651,1.3533716,-0.83129853,0.08287069,-0.8945858,-2.1956904,8.111059
422,1747638519.1167789,2.188268,-0.60433406,0.1253122,-0.67468077,-2.2726572,7.653458
423,1747638519.1324663,2.1960733,-0.21409786,0.16095452,-0.43163994,-1.8426207,6.866687
424,1747638519.133582,2.1960733,-0.21409786,0.16095452,-0.43163994,-1.8426207,6.866687
425,1747638519.14784,1.8143742,0.105585426,0.50945044,-0.06589515,-1.4168602,6.649836
426,1747638519.1625993,1.6286621,0.59857154,0.80352247,1.3553174,-1.3154596,7.6467385
427,1747638519.163671,1.6286621,0.59857154,0.80352247,1.3553174,-1.3154596,7.6467385
428,1747638519.17816,3.855103,1.0417681,0.35252056,2.1697295,-1.0808942,8.026152
429,1747638519.193567,4.184573,1.2784892,0.339593,2.0731392,-0.60076827,7.0084033
430,1747638519.194613,4.184573,1.2784892,0.339593,2.0731392,-0.60076827,7.0084033
431,1747638519.2088187,4.286073,1.7451018,0.519695,2.001441,-0.03451287,5.1159983
432,1747638519.2235124,4.357114,2.3857183,0.7935219,2.2401297,0.019852536,4.0658755
433,1747638519.2245517,4.357114,2.3857183,0.7935219,2.2401297,0.019852536,4.0658755
434,1747638519.2388372,4.2958603,2.7652223,0.54119015,2.4962273,0.20257223,2.2094345
435,1747638519.2542245,3.797996,2.9751127,0.19830425,2.04756,0.8989381,0.10750912
436,1747638519.2553167,3.797996,2.9751127,0.19830425,1.6656277,1.2507861,-0.78990185
437,1747638519.2697432,3.3999543,2.814768,0.19781642,1.4649644,1.3656254,-1.5485742
438,1747638519.2847703,3.43581,2.5914621,0.1006766,1.5584241,1.0986851,-2.6658137
439,1747638519.2857718,3.43581,2.5914621,0.1006766,1.5584241,1.0986851,-2.6658137
440,1747638519.3006094,3.8172655,2.3657172,-0.4545387,1.1821421,0.375442,-3.8692594
441,1747638519.3016145,3.8172655,2.3657172,-0.4545387,1.1821421,0.375442,-3.8692594
442,1747638519.316096,4.0903606,1.5640242,-0.52408546,-0.8971056,0.49516806,-5.6034546
443,1747638519.3313634,3.791166,1.1596408,-0.15656401,-1.5613256,0.8164737,-6.3573165
444,1747638519.3323958,3.791166,1.1596408,-0.15656401,-1.5613256,0.8164737,-6.3573165
445,1747638519.3464134,3.0548735,0.5512212,0.5309456,-1.6005726,1.2306281,-7.0781164
446,1747638519.3615627,2.7959254,0.38526636,0.696626,-1.2535349,1.295378,-7.1367574
447,1747638519.3625655,2.7959254,0.38526636,0.696626,-1.2535349,1.295378,-7.1367574
448,1747638519.376351,2.6094816,-0.0005488125,0.74812293,-0.38368842,1.5055094,-7.0854464
449,1747638519.3923376,2.5448132,-0.52112794,0.706901,0.8699229,1.4987901,-7.371323
450,1747638519.3934495,2.5448132,-0.52112794,0.706901,0.8699229,1.4987901,-7.371323
451,1747638519.407737,2.321751,-0.90060127,0.35864896,1.6456989,1.479243,-7.6022234
452,1747638519.4236875,2.2473264,-1.0409449,0.23172083,1.6693692,1.5000118,-7.622992
453,1747638519.424723,2.2473264,-1.0409449,0.23172083,1.6693692,1.5000118,-7.622992
454,1747638519.4388628,2.1648214,-1.160769,0.14558776,1.4743562,1.8286476,-7.610775
455,1747638519.453572,1.6374432,-1.4350837,0.30276155,1.3665416,2.1291845,-7.574735
456,1747638519.454575,1.6374432,-1.4350837,0.30276155,1.3347776,2.4999688,-7.3646035
457,1747638519.468877,1.5708233,-1.5317051,0.39304122,1.6145457,2.135293,-7.10255
458,1747638519.4846604,1.5637498,-1.6283572,0.35105708,1.7902406,1.9343241,-6.9889326
459,1747638519.4856634,1.5637498,-1.6283572,0.35105708,1.7902406,1.9343241,-6.9889326
460,1747638519.49969,1.3001673,-1.8330947,0.282486,2.19088,1.6295115,-6.899749
461,1747638519.5156357,0.8230663,-1.8787377,0.124336526,2.4737787,1.4358728,-6.7036667
462,1747638519.516636,0.8230663,-1.8787377,0.124336526,2.4737787,1.4358728,-6.7036667
463,1747638519.53151,-0.13848369,-1.8196794,-0.16168626,2.6351187,1.2452885,-5.414703
464,1747638519.5325446,-0.13848369,-1.8196794,-0.16168626,2.6351187,1.2452885,-5.414703
465,1747638519.5469563,-0.5702162,-1.9048673,-0.4245065,2.4962273,0.91909605,-3.8600965
466,1747638519.5621092,-0.9748435,-2.112532,-0.6502513,2.2338684,0.45240876,-2.7659926
467,1747638519.5631745,-0.9748435,-2.112532,-0.6502513,2.2338684,0.45240876,-2.7659926
468,1747638519.5774148,-1.191045,-2.238728,-0.8703861,1.8974442,-0.38025242,-1.6267626
469,1747638519.5927,-1.6625665,-2.1579309,-1.364104,0.44316968,-0.8842014,0.31214294
470,1747638519.593791,-1.6625665,-2.1579309,-1.364104,0.44316968,-0.8842014,0.31214294
471,1747638519.6077287,-1.7130877,-2.0027084,-1.2210773,-1.5575842,-0.9856021,3.5423796
472,1747638519.623415,-1.4487735,-1.9578276,-1.0663427,-2.0871887,-1.1224319,5.026128
473,1747638519.6244156,-1.4487735,-1.9578276,-1.0663427,-2.0871887,-1.1224319,5.026128
474,1747638519.6385646,-0.61363333,-1.8106543,-0.70809007,-2.5071461,-1.4981029,7.2832847
475,1747638519.653831,0.2517525,-1.811874,-0.5575325,-2.5108876,-2.2030206,8.50811
476,1747638519.653831,0.9091994,-1.8328509,-0.551648,-2.5108876,-2.2030206,8.50811
477,1747638519.668687,0.9091994,-1.8328509,-0.551648,-2.4255219,-2.4430835,8.827582
478,1747638519.6846187,1.8126667,-1.638114,-0.31882957,-2.039848,-3.014913,9.219136
479,1747638519.68562,1.8126667,-1.638114,-0.31882957,-2.039848,-3.014913,9.219136
480,1747638519.699474,2.5274951,-1.3154731,-0.6141212,-1.2404017,-3.6098783,9.448204
481,1747638519.7146485,2.5609117,-1.0426522,-0.79108274,-1.3724974,-2.9336703,9.651005
482,1747638519.7146807,2.5609117,-1.0426522,-0.79108274,-1.3724974,-2.9336703,9.651005
483,1747638519.729945,2.514781,-0.806419,-0.4923458,-2.1277337,-1.2641484,10.582012
484,1747638519.7309978,2.514781,-0.806419,-0.4923458,-2.1277337,-1.2641484,10.582012
485,1747638519.7454531,3.4419386,-0.8125169,0.23196477,-2.3675675,-0.82372755,11.125667
486,1747638519.7606142,3.4419386,-0.8125169,0.23196477,-1.7812306,-1.1945118,10.794587
487,1747638519.76139,4.245583,-0.79833925,0.54631233,-1.7812306,-1.1945118,10.794587
488,1747638519.7758904,4.8156776,-0.45959997,0.73129267,-0.8584695,-1.8169652,9.411552
489,1747638519.790906,3.923918,0.80919355,0.71860904,1.4968048,-2.5537233,6.981526
490,1747638519.79196,3.923918,0.80919355,0.71860904,1.4968048,-2.5537233,6.981526
491,1747638519.8060431,2.833519,1.3744096,0.23025733,2.2326467,-1.773595,6.7842226
492,1747638519.8214717,2.5211227,1.4109969,0.054058034,2.2855613,-0.60199,6.902116
493,1747638519.8224766,2.5211227,1.4109969,0.054058034,2.2855613,-0.60199,6.902116
494,1747638519.8366513,3.0746307,1.6577492,0.039423034,1.4905437,-0.033291176,5.414703
495,1747638519.8526797,2.9621239,1.9584069,0.22293983,1.2176477,0.04795151,4.2424107
496,1747638519.85368,2.9621239,1.9584069,0.22293983,1.2176477,0.04795151,4.2424107
497,1747638519.868145,2.5894804,2.4367275,0.4547826,1.4637427,-0.49081576,2.0298455
498,1747638519.883136,2.296384,2.489444,0.06552211,1.3702831,-0.43889377,1.275449
499,1747638519.884183,2.0938113,2.4977372,-0.010854292,1.3702831,-0.43889377,1.275449
500,1747638519.898416,2.0938113,2.4977372,-0.010854292,0.0038941512,0.851292,-0.3690281
501,1747638519.9136841,2.1455522,2.2969022,0.33934906,-0.20234315,1.0345461,-0.75447273
502,1747638519.9147596,2.1455522,2.2969022,0.33934906,-0.20234315,1.0345461,-0.75447273
503,1747638519.9295053,2.5933828,2.038686,0.5846073,-0.11079242,1.091355,-1.8026866
504,1747638519.944512,3.0926805,2.0411253,0.57314324,0.20883341,0.61794835,-2.7403371
505,1747638519.945516,3.0926805,2.0411253,0.57314324,0.20883341,0.61794835,-2.7403371
506,1747638519.9604702,4.1931105,2.039662,0.46624672,0.00015271181,0.3870481,-3.666458
507,1747638519.9614701,4.1931105,2.039662,0.46624672,0.00015271181,0.3870481,-3.666458
508,1747638519.9755778,5.167832,1.2062594,0.26565573,-0.79738474,1.327142,-6.634641
509,1747638519.9913733,4.575999,0.708395,0.4630758,-0.9544488,1.8066571,-7.8691635
510,1747638519.992459,4.575999,0.708395,0.4630758,-0.9544488,1.8066571,-7.8691635
511,1747638520.0067472,4.155761,0.43993422,0.5135971,-0.8653415,1.8536924,-8.251554
512,1747638520.0219135,3.9941962,-0.12259862,0.43600106,-0.5176167,1.735188,-8.466038
513,1747638520.0229897,3.9941962,-0.12259862,0.43600106,-0.5176167,1.735188,-8.466038
514,1747638520.0370193,3.4983141,-0.6658315,0.25614297,-0.13446276,1.5610965,-8.92173
515,1747638520.0528336,3.2776911,-0.7710206,0.13924594,-0.15561333,1.5158938,-8.910124
516,1747638520.0538404,3.2776911,-0.7710206,0.13924594,-0.15561333,1.5158938,-8.910124
517,1747638520.06771,3.0331342,-1.1348833,0.13778242,-0.5145625,2.1255193,-8.7024355
518,1747638520.0833972,2.7705579,-1.2691289,0.26565573,-0.5145625,2.547004,-8.609587
519,1747638520.0844445,2.7705579,-1.2691289,0.26565573,-0.5145625,2.547004,-8.609587
520,1747638520.0991619,2.565546,-1.3816354,0.39182165,-0.32077116,2.9471853,-8.440382
521,1747638520.1151254,2.319312,-1.6364065,0.5231098,0.5241069,3.1389914,-8.013934
522,1747638520.1163573,2.319312,-1.6364065,0.5231098,1.1191485,3.100508,-7.8606114
523,1747638520.130619,2.1592114,-1.8128496,0.40084654,1.8550668,2.86411,-7.8093004
524,1747638520.1316893,2.1592114,-1.8128496,0.40084654,1.8550668,2.86411,-7.8093004
525,1747638520.1462283,1.8900189,-1.9866098,0.0682052,2.3018253,2.747362,-7.7964725
526,1747638520.1614375,1.338005,-2.2106473,-0.19802985,2.4694264,2.8195183,-7.659032
527,1747638520.1624386,1.338005,-2.2106473,-0.19802985,2.4694264,2.8195183,-7.659032
528,1747638520.1763892,0.23565398,-2.1203372,-0.37179,2.5784626,2.319158,-6.9962626
529,1747638520.191876,-0.028172374,-2.0466437,-0.4245065,2.7011666,1.0076689,-5.5753555
530,1747638520.1929593,-0.028172374,-2.0466437,-0.4245065,2.7011666,1.0076689,-5.5753555
531,1747638520.2069952,-0.16680852,-2.000757,-0.45941702,2.7404134,0.6796439,-5.05919
532,1747638520.222466,-0.744952,-1.9138923,-0.5838755,2.8345604,0.23677967,-3.4734302
533,1747638520.222466,-0.744952,-1.9138923,-0.5838755,2.8345604,0.23677967,-3.4734302
534,1747638520.2371511,-0.96286106,-1.8911775,-0.65293443,2.867546,-0.011300675,-2.680474
535,1747638520.2527158,-1.2950146,-2.0585957,-1.0993019,2.5964825,-0.34971005,-1.205278
536,1747638520.2532556,-1.2950146,-2.0585957,-1.0993019,2.5964825,-0.34971005,-1.205278
537,1747638520.2675009,-1.6315585,-2.2877555,-1.3709337,0.9266553,-0.7272137,1.819714
538,1747638520.2827423,-1.5978981,-2.356357,-1.2344928,0.2892362,-1.2983558,3.1581566
539,1747638520.2827423,-1.5978981,-2.356357,-1.2344928,0.2892362,-1.2983558,3.1581566
540,1747638520.298016,-1.2757452,-2.3229098,-1.3675189,-0.79929364,-2.3001454,5.605287
541,1747638520.3138251,-0.1062562,-2.3470578,-0.85599506,-2.7457585,-2.1046743,9.119568
542,1747638520.3146152,-0.1062562,-2.3470578,-0.85599506,-2.7457585,-2.1046743,9.119568
543,1747638520.322804,-0.1062562,-2.3470578,-0.85599506,-2.7457585,-2.1046743,9.119568
544,1747638520.3316126,0.364503,-2.3587961,-0.55286765,-2.8915982,-2.2964802,9.954596
545,1747638520.3414152,1.0986006,-2.4044087,-0.27001578,-2.7121618,-2.7210956,10.806805
546,1747638520.3519719,1.6860131,-2.394408,-0.1592471,-2.3750505,-3.031406,11.188583
547,1747638520.3647647,2.638782,-2.199915,-0.27785155,-1.4591614,-3.0729434,10.9277525
548,1747638520.3718987,3.2034795,-1.9824632,-0.47917432,-1.4591614,-3.0729434,10.9277525
549,1747638520.382043,3.5424626,-1.6903424,-0.6151273,-1.6211122,-2.8115008,10.37127
550,1747638520.3914711,3.5514877,-1.4531335,-0.67955184,-1.8971388,-2.7143762,9.977808
551,1747638520.4017408,3.4316638,-1.244219,-0.60924286,-2.2261565,-2.6679518,9.767676
552,1747638520.4120483,3.0111816,-0.78175294,-0.35130098,-2.6623015,-2.4901187,10.037671
553,1747638520.422005,2.8503492,-0.6963516,-0.14116678,-2.8186784,-1.9214201,10.712734
554,1747638520.442478,3.8638842,-0.7578491,1.1278707,-1.6061465,-1.525591,11.34435
555,1747638520.442512,3.8638842,-0.7578491,1.1278707,-1.6061465,-1.525591,11.34435
556,1747638520.4577277,5.062399,0.050917607,0.62659144,1.7372496,-2.5249372,9.065813
557,1747638520.4732976,4.8505573,0.82187724,0.32544583,2.5634968,-2.5879307,7.616807
558,1747638520.4743044,4.8505573,0.82187724,0.32544583,2.5634968,-2.5879307,7.616807
559,1747638520.4884596,3.887056,1.8576083,0.03088595,2.8395236,-2.6740603,6.824538
560,1747638520.503648,3.3352861,2.0140505,0.41060326,2.3478677,-1.221389,5.1911325
561,1747638520.5046873,3.3352861,2.0140505,0.41060326,2.3478677,-1.221389,5.1911325
562,1747638520.5195022,3.1510072,2.164364,0.54119015,2.0762699,-0.3051182,4.0017366
563,1747638520.5347297,3.202748,2.3744984,0.57704586,1.9858644,0.102316916,3.2791045
564,1747638520.53578,3.202748,2.3744984,0.57704586,1.9858644,0.102316916,3.2791045
565,1747638520.5498884,3.2733006,2.6888459,0.4057249,1.7509936,0.44446772,0.8686248
566,1747638520.5509615,3.2733006,2.6888459,0.4057249,1.7509936,0.44446772,0.8686248
567,1747638520.5655994,3.1990893,2.7720518,0.3561793,1.5995799,0.39254573,-0.24250636
568,1747638520.5806744,3.3367493,2.9202008,-0.021098793,0.93100756,0.3613925,-1.8937029
569,1747638520.5816748,3.3367493,2.9202008,-0.021098793,0.93100756,0.3613925,-1.8937029
570,1747638520.5958889,3.6586282,2.6619844,-0.059180282,-0.6360447,1.0119449,-4.0079217
571,1747638520.6110456,3.8279977,2.4494112,0.1724186,-1.2497935,1.3650146,-4.9174733
572,1747638520.612155,3.8279977,2.4494112,0.1724186,-1.2497935,1.3650146,-4.9174733
573,1747638520.6267538,4.1716156,2.1040862,0.4233174,-1.3893721,1.4908491,-5.4397473
574,1747638520.6424086,4.911567,1.2155282,0.62903064,-1.011105,1.5103962,-7.166689
575,1747638520.643711,4.911567,1.2155282,0.62903064,-1.011105,1.5103962,-7.166689
576,1747638520.6578548,4.8608017,0.5749116,0.56363046,-0.57496,1.4932925,-8.398233
577,1747638520.672597,4.2448516,-0.048630886,0.30154198,-0.16248538,1.2666682,-9.511197
578,1747638520.6735978,4.2448516,-0.048630886,0.30154198,-0.16248538,1.2666682,-9.511197
579,1747638520.688609,3.6625307,-0.61091983,0.06625386,-0.23662695,1.4596959,-9.770807
580,1747638520.7038865,3.3706539,-1.0265234,0.000121958336,-0.48776153,1.7981052,-9.567395
581,1747638520.7048872,3.3706539,-1.0265234,0.000121958336,-0.48776153,1.7981052,-9.567395
582,1747638520.719672,3.301595,-1.551249,0.23733091,-0.62604207,2.346646,-9.191724
583,1747638520.7349305,3.25083,-1.7228138,0.3430078,-0.47462833,2.4694264,-9.129417
584,1747638520.735977,2.998986,-1.9980739,0.45966098,0.117893524,2.6563456,-9.0158
585,1747638520.7501585,2.7517765,-2.120825,0.4748143,0.6362738,2.6966615,-8.910124
586,1747638520.7512617,2.7517765,-2.120825,0.4748143,0.6362738,2.6966615,-8.910124
587,1747638520.7658517,2.5257876,-2.1684194,0.41060326,1.0138538,2.663065,-8.774515
588,1747638520.7805579,2.0723464,-2.4356604,0.0594242,1.5883555,2.8433414,-8.294924
589,1747638520.781558,2.0723464,-2.4356604,0.0594242,1.5883555,2.8433414,-8.294924
590,1747638520.7958274,1.0339018,-2.5860045,-0.20144469,2.061915,2.7809584,-7.331618
591,1747638520.8113325,0.6568676,-2.7085118,-0.245868,2.295564,2.3814645,-6.7849097
592,1747638520.8123932,0.6568676,-2.7085118,-0.245868,2.295564,2.3814645,-6.7849097
593,1747638520.8267431,0.25077683,-2.7541544,-0.28443733,2.5934284,1.7241927,-6.194831
594,1747638520.842072,-0.5697284,-2.8012304,-0.51091397,3.1236439,0.118198946,-4.402529
595,1747638520.8432598,-0.5697284,-2.8012304,-0.51091397,3.1236439,0.118198946,-4.402529
596,1747638520.8572955,-0.82620674,-2.788303,-0.7068705,3.1896918,-0.60199,-3.4355576
597,1747638520.8733904,-1.2225409,-2.7089996,-1.0085039,2.7672145,-1.1413682,-1.5559043
598,1747638520.8743937,-1.2225409,-2.7089996,-1.0085039,2.7672145,-1.1413682,-1.5559043
599,1747638520.8883553,-1.687446,-2.5391421,-1.2113208,1.710525,-1.6166073,1.5668232
600,1747638520.9039314,-1.6937879,-2.5342636,-1.2054666,1.3148488,-1.6990716,2.6523752
601,1747638520.9049854,-1.6937879,-2.5342636,-1.2054666,1.3148488,-1.6990716,2.6523752
602,1747638520.919654,-1.4595059,-2.3819683,-1.1754345,0.3683409,-2.061915,5.3468986
603,1747638520.9206982,-1.4595059,-2.3819683,-1.1754345,0.3683409,-2.061915,5.3468986
604,1747638520.9351232,0.02356845,-2.4981334,-1.071221,-0.7780667,-2.2244003,7.661399
605,1747638520.950698,0.49530327,-2.5367029,-0.8735571,-2.2666252,-2.125443,9.815323
606,1747638520.950698,0.49530327,-2.5367029,-0.8735571,-2.2666252,-2.125443,9.815323
607,1747638520.9657292,1.878067,-2.4830105,-0.20583518,-2.5108876,-2.1443794,10.453734
608,1747638520.9813535,2.553594,-2.3822122,-0.059668116,-2.045422,-2.4565222,11.805539
609,1747638520.9823542,2.553594,-2.3822122,-0.059668116,-2.045422,-2.4565222,11.805539
610,1747638520.9967475,3.1649408,-2.2062566,-0.15311868,-1.526431,-2.6783361,11.918547
611,1747638521.0124397,3.9070878,-1.7201004,-0.45746574,-1.1793933,-2.2848742,11.713302
612,1747638521.0134408,3.9070878,-1.7201004,-0.45746574,-1.1793933,-2.2848742,11.713302
613,1747638521.0271645,3.8990386,-0.5728383,0.041618284,-0.9375742,-1.4919944,11.352901
614,1747638521.0423849,4.351229,-0.2573016,0.36084422,-0.46470204,-1.5121524,11.529437
615,1747638521.0435135,4.351229,-0.2573016,0.36084422,-0.46470204,-1.5121524,11.529437
616,1747638521.0573468,4.7546678,0.21492107,0.4984742,0.17706935,-1.4797775,11.30831
617,1747638521.0725517,4.4481254,0.6695818,0.30788383,2.4556823,-0.7785248,9.81349
618,1747638521.073552,4.4481254,0.6695818,0.30788383,2.4556823,-0.7785248,9.81349
619,1747638521.0877357,4.474743,1.2740988,-0.056009363,2.92802,-0.8335011,9.22158
620,1747638521.103493,4.834215,1.9300822,0.15266134,3.402801,-0.94834036,6.5240016
621,1747638521.1045675,4.834215,1.9300822,0.15266134,3.402801,-0.94834036,6.5240016
622,1747638521.1187196,3.563958,2.8328178,-0.2519659,3.5211527,-0.60076827,2.5912905
623,1747638521.1347167,2.8205912,2.9985287,-0.46210015,2.8731964,0.03939965,1.5423893
624,1747638521.1357977,2.8205912,2.9985287,-0.46210015,2.8731964,0.03939965,1.5423893
625,1747638521.150268,2.091128,3.0444155,-0.5882661,1.3223315,0.50066566,0.5008947
626,1747638521.1513476,2.091128,3.0444155,-0.5882661,1.3223315,0.50066566,0.5008947
627,1747638521.1660285,2.1533575,2.6275923,-0.29907233,-0.576258,0.9478059,-1.0641723
628,1747638521.1813803,2.172139,2.571461,0.046252698,-0.83044684,0.87144995,-1.8405591
629,1747638521.182382,2.172139,2.571461,0.046252698,-0.83044684,0.87144995,-1.8405591
630,1747638521.1971025,2.8091273,2.7344582,0.26443616,-0.8809181,0.6863633,-2.7873724
631,1747638521.2129865,3.7140276,2.5797544,0.31837222,-0.959412,0.72729003,-4.080612
632,1747638521.2139904,3.7140276,2.5797544,0.31837222,-0.959412,0.72729003,-4.080612
633,1747638521.2284653,4.3036656,2.4228244,0.28199816,-1.1033429,0.9710181,-5.1813593
634,1747638521.2437422,4.7788153,1.9220328,0.35544756,-1.4329714,1.6405066,-7.004204
635,1747638521.244778,4.7788153,1.9220328,0.35544756,-1.4329714,1.6405066,-7.004204
636,1747638521.2596908,4.7646685,0.8623979,0.7432446,-1.0609653,2.3014433,-8.852704
637,1747638521.2744396,4.6370087,0.28644964,0.8330669,-0.29710084,2.2647927,-9.427511
638,1747638521.2754989,4.6370087,0.28644964,0.8330669,-0.29710084,2.2647927,-9.427511
639,1747638521.2896147,4.505476,-0.63534194,0.5453367,0.20952061,2.0338924,-9.622982
640,1747638521.3047094,4.0286193,-1.2620249,-0.10701844,0.92169213,1.3723447,-9.965056
641,1747638521.3057096,4.0286193,-1.2620249,-0.10701844,0.5989357,1.3008755,-9.90275
642,1747638521.3208075,3.8433948,-1.5617375,-0.24684367,-0.107050985,1.5653725,-9.666964
643,1747638521.321811,3.8433948,-1.5617375,-0.24684367,-0.107050985,1.5653725,-9.666964
644,1747638521.336896,3.5790806,-1.8230941,-0.04698445,-0.8092199,2.1921017,-9.437284
645,1747638521.3527493,3.0170357,-2.0656998,0.5304578,-0.9207759,2.8543365,-8.941277
646,1747638521.3537483,3.0170357,-2.0656998,0.5304578,-0.9207759,2.8543365,-8.941277
647,1747638521.3677964,1.9122456,-2.7231467,0.84038436,1.1254097,2.0650456,-8.373189
648,1747638521.3837914,1.409503,-3.1582942,0.53582394,2.1441503,1.2904912,-8.012102
649,1747638521.3849034,1.409503,-3.1582942,0.53582394,2.1441503,1.2904912,-8.012102
650,1747638521.3995764,0.13802634,-3.7400963,-0.09527995,3.3460686,0.17813833,-7.047574
651,1747638521.4068027,-0.9836245,-3.6629577,-0.54408664,3.4974823,-1.0753967,-5.1153874
652,1747638521.421943,-0.9836245,-3.6629577,-0.54408664,3.0806553,-1.5469707,-3.3286595
653,1747638521.4230886,-1.4224,-3.5072777,-0.850629,3.0806553,-1.5469707,-3.3286595
654,1747638521.4376976,-1.5624998,-3.3850145,-0.95359224,2.0444293,-1.6618099,-0.42339352
655,1747638521.4526005,-1.2198578,-3.2083275,-0.76300186,1.4270155,-1.561631,1.7109832
656,1747638521.4536023,-1.2198578,-3.2083275,-0.76300186,1.4270155,-1.561631,1.7109832
657,1747638521.4678285,-0.95603144,-3.118993,-0.65171486,1.1683981,-1.7106777,3.7457917
658,1747638521.4825687,-0.548965,-2.8007426,-0.61338943,1.1908467,-2.030151,5.666372
659,1747638521.483672,-0.548965,-2.8007426,-0.61338943,1.1908467,-2.030151,5.666372
660,1747638521.4979162,0.18781583,-2.434197,-0.69150376,0.98835087,-2.265327,7.7140083
661,1747638521.5134706,0.6263475,-2.2431188,-0.67662483,0.8263236,-2.1767542,8.328521
662,1747638521.5144725,0.6263475,-2.2431188,-0.67662483,0.8263236,-2.1767542,8.328521
663,1747638521.5290203,1.2396455,-1.9268198,-0.74153715,0.713546,-2.1950796,9.098799
664,1747638521.5444605,1.5012766,-1.7830919,-0.8169379,0.5814502,-1.9928892,9.61863
665,1747638521.5454624,1.9417596,-1.5478038,-1.0085039,0.5814502,-1.9928892,9.61863
666,1747638521.5596404,2.2639124,-1.2600735,-1.2325414,0.1783674,-1.605612,9.880684
667,1747638521.5618181,2.2639124,-1.2600735,-1.2325414,0.1783674,-1.605612,9.880684
668,1747638521.575074,2.7912908,-1.0877769,-1.1234497,-0.31512082,-1.545749,10.1708355
669,1747638521.590798,3.9805372,-0.3559049,-1.0368288,-0.6615476,-2.1828628,9.685823
670,1747638521.591864,3.9805372,-0.3559049,-1.0368288,-0.6615476,-2.1828628,9.685823
671,1747638521.6055994,4.263877,0.27080846,-0.7576357,-0.74821156,-1.6465387,8.676703
672,1747638521.6214573,3.5373406,0.93706685,-0.34471524,-0.020463383,-1.3282874,8.037147
673,1747638521.6224616,3.5373406,0.93706685,-0.34471524,-0.020463383,-1.3282874,8.037147
674,1747638521.6367025,3.438036,1.1213155,-0.23513566,1.5061203,-1.1089932,8.712744
675,1747638521.6518607,4.1411257,1.1120466,-0.36496034,2.0270202,-0.9654441,8.51605
676,1747638521.6528625,4.1411257,1.1120466,-0.36496034,2.0270202,-0.9654441,8.51605
677,1747638521.66752,4.7941823,1.3780682,-0.65171486,2.2563171,-0.917798,7.509298
678,1747638521.6827705,4.4781575,2.1194835,-1.0182911,1.6163782,-0.29290125,4.6913834
679,1747638521.6838741,4.4781575,2.1194835,-1.0182911,1.6163782,-0.29290125,4.6913834
680,1747638521.6974447,3.1175904,2.925323,-0.3473983,0.026953636,0.52082366,2.195385
681,1747638521.7127645,2.9494405,2.8840706,-0.028172374,-0.09704836,0.56236124,1.5258964
682,1747638521.7137647,2.9494405,2.8840706,-0.028172374,-0.09704836,0.56236124,1.5258964
683,1747638521.7283921,2.370321,2.603414,0.36377123,0.25747213,0.667427,-0.56694263
684,1747638521.744387,1.3775194,2.432581,0.1724186,0.642535,0.7761578,-1.7073945
685,1747638521.7453883,1.3775194,2.432581,0.1724186,0.82884336,0.76271915,-2.3866565
686,1747638521.7595518,1.3775194,2.432581,0.1724186,0.73851436,0.755389,-2.8759453
687,1747638521.7744591,1.2908984,2.3913286,-0.2209885,-0.14881766,1.01561,-3.698222
688,1747638521.7754874,1.6264669,2.450143,-0.29443792,-0.14881766,1.01561,-3.698222
689,1747638521.7903228,2.4813643,2.363766,-0.23562351,-0.77501243,1.1005177,-4.665804
690,1747638521.7914002,2.4813643,2.363766,-0.23562351,-0.77501243,1.1005177,-4.665804
691,1747638521.8058484,2.7995842,2.3190987,-0.17339426,-1.110215,1.2739983,-5.3798847
692,1747638521.8207328,3.1859176,1.837851,0.15412484,-1.6847167,2.2507432,-7.115378
693,1747638521.8217337,3.1859176,1.837851,0.15412484,-1.6847167,2.2507432,-7.115378
694,1747638521.836426,3.518315,1.0044184,0.5363118,-1.0392039,2.8543365,-8.610197
695,1747638521.8513787,3.683538,0.534147,0.5760702,-0.4185831,2.9734519,-9.029239
696,1747638521.8524396,3.683538,0.534147,0.5760702,-0.4185831,2.9734519,-9.029239
697,1747638521.8671763,3.9495294,-0.32245782,0.39230946,0.75714517,2.9716191,-9.525858
698,1747638521.8827264,3.9973674,-0.94014627,0.051862784,1.4469445,2.9618456,-9.773251
699,1747638521.8838015,3.9973674,-0.94014627,0.051862784,1.4469445,2.9618456,-9.773251
700,1747638521.8980153,4.0105696,-1.3664821,-0.1501917,1.6014124,3.0015507,-9.7469845
701,1747638521.9132578,3.7779644,-2.0107882,-0.32712275,1.253764,2.8940415,-9.651081
702,1747638521.9142606,3.7779644,-2.0107882,-0.32712275,1.253764,2.8940415,-9.651081
703,1747638521.9286406,2.8259575,-2.5491426,-0.27833942,0.051234815,3.0937886,-9.141635
704,1747638521.9443443,2.196561,-2.857362,-0.06796128,-0.308936,3.552535,-8.586374
705,1747638521.9453468,2.196561,-2.857362,-0.06796128,-0.308936,3.552535,-8.586374
706,1747638521.9596698,0.624884,-3.1065533,0.5016451,0.2992388,3.0827935,-7.4733343
707,1747638521.9798887,-1.1717757,-3.0704231,-0.09869478,1.7135793,1.0522608,-3.5192437
708,1747638521.9798887,-1.1717757,-3.0704231,-0.09869478,1.7135793,1.0522608,-3.5192437
709,1747638521.9798887,-1.1717757,-3.0704231,-0.09869478,1.7135793,1.0522608,-3.5192437
710,1747638521.9895918,-1.1717757,-3.0704231,-0.09869478,1.7135793,1.0522608,-3.5192437
711,1747638522.0049546,-1.6027765,-2.8444343,-0.6810154,1.4830608,0.09804098,0.23945212
712,1747638522.0207334,-0.79742455,-2.5545087,-1.0475612,-0.3014531,-1.2311627,4.8819675
713,1747638522.0207334,-0.79742455,-2.5545087,-1.0475612,-0.3014531,-1.2311627,4.8819675
714,1747638522.0358121,-0.14921603,-2.4229767,-0.981917,-0.8665632,-1.4834425,5.7720485
715,1747638522.0517607,0.7535196,-2.1008239,-0.7061388,-1.6603593,-2.0973442,6.9925213
716,1747638522.0527632,0.7535196,-2.1008239,-0.7061388,-1.6603593,-2.0973442,6.9925213
717,1747638522.0667021,1.3402001,-1.7083925,-0.3473983,-1.3949461,-2.7320907,7.3596406
718,1747638522.08229,1.3814526,-1.6061608,-0.3732535,-1.0628742,-2.9336703,7.5508356
719,1747638522.0833511,1.3814526,-1.6061608,-0.3732535,-1.0628742,-2.9336703,7.5508356
720,1747638522.0975401,1.4629512,-1.5017034,-0.44819686,-0.75508356,-2.6746712,8.19108
721,1747638522.1130104,1.7011358,-1.4628903,-0.43450707,-0.6871268,-2.5525017,8.55881
722,1747638522.114012,2.3666625,-1.3179122,-0.42377475,-0.58557343,-2.931227,8.477568
723,1747638522.127862,2.3666625,-1.3179122,-0.42377475,-0.38865158,-3.2195468,8.105561
724,1747638522.1439338,2.6380503,-0.7148892,-0.1987616,0.036879905,-3.303233,7.638187
725,1747638522.1449668,2.6380503,-0.7148892,-0.1987616,0.42072105,-3.2012215,7.374912
726,1747638522.159226,2.557253,-0.084761046,-0.24172144,0.8793146,-3.0442336,7.196544
727,1747638522.1751306,2.7661676,0.7349819,-0.5992423,1.1185377,-2.9495523,7.1641693
728,1747638522.1751535,2.7661676,0.7349819,-0.5992423,1.1185377,-2.9495523,7.1641693
729,1747638522.1901948,3.2586353,1.3856297,-0.7283352,0.41384903,-2.1565962,6.9039483
730,1747638522.1912491,3.2586353,1.3856297,-0.7283352,0.41384903,-2.1565962,6.9039483
731,1747638522.2054057,3.6291142,2.4582226,-0.2678205,-0.6709394,-1.1407572,5.7873197
732,1747638522.2206242,4.0515475,2.891876,-0.092596866,-1.017366,-0.9355126,5.054914
733,1747638522.2206242,4.0515475,2.891876,-0.092596866,-1.017366,-0.9355126,5.054914
734,1747638522.2358334,4.3910184,3.2599158,0.076528855,-1.2404017,-0.62398046,3.7934377
735,1747638522.2518082,4.314398,3.5913072,0.7005287,-1.0248489,-0.08765658,0.9938485
736,1747638522.251851,4.314398,3.5913072,0.7005287,-1.0248489,-0.08765658,0.9938485
737,1747638522.2669642,3.552494,3.376813,0.7300731,-0.08582404,0.0051922016,-1.3384427
738,1747638522.2826257,2.4493806,2.9275184,0.09799352,0.3814741,0.23616882,-3.0049105
739,1747638522.2826257,2.4493806,2.9275184,0.09799352,0.3814741,0.23616882,-3.0049105
740,1747638522.297853,2.0357285,2.7496116,-0.35105708,-0.4708869,0.7840988,-3.5125244
741,1747638522.3136542,2.6070423,2.649057,-0.26416174,-1.5662887,1.3014865,-3.8918605
742,1747638522.3136542,2.6070423,2.649057,-0.26416174,-1.5662887,1.3014865,-3.8918605
743,1747638522.3288755,3.40215,2.4250195,0.12823918,-2.32519,2.1255193,-5.054303
744,1747638522.3446198,3.5266082,1.7299789,0.70299834,-2.2074492,2.6196947,-6.0555577
745,1747638522.3456202,3.5266082,1.7299789,0.70299834,-1.7974944,2.889155,-6.806289
746,1747638522.359489,3.0250852,0.90654683,0.7740086,-0.2216612,3.1701446,-8.000496
747,1747638522.360465,3.0250852,0.90654683,0.7740086,-0.2216612,3.1701446,-8.000496
748,1747638522.3741875,2.7666554,0.4031028,0.58143634,0.72729003,3.1793072,-8.321191
749,1747638522.3901093,2.533593,-0.19043794,0.10555494,1.7192296,3.028428,-8.495969
750,1747638522.3911438,2.533593,-0.19043794,0.10555494,1.7192296,3.028428,-8.495969
751,1747638522.4053402,2.439624,-0.99164325,-0.57704586,1.9205037,3.1224985,-8.423889
752,1747638522.4205177,2.4474294,-1.2127537,-0.61927396,1.3434821,3.6624875,-8.094566
753,1747638522.4210546,2.4474294,-1.2127537,-0.61927396,1.3434821,3.6624875,-8.094566
754,1747638522.4362829,2.5023413,-1.748913,-0.62244487,1.0562313,3.840855,-7.9766726
755,1747638522.4517634,2.4098663,-2.2665348,-0.40523705,0.38956785,4.7424655,-7.6022234
756,1747638522.4517634,2.4098663,-2.2665348,-0.40523705,0.38956785,4.7424655,-7.6022234
757,1747638522.4673831,2.2622051,-2.5679243,-0.23489174,0.6076403,4.6294584,-7.555188
758,1747638522.482625,1.2464751,-3.2954364,-0.3413004,1.4170129,3.848185,-7.36216
759,1747638522.4833653,1.2464751,-3.2954364,-0.3413004,1.4170129,3.848185,-7.36216
760,1747638522.4984982,-0.40499315,-3.5607262,-1.005577,1.7385477,2.4877517,-5.599179
761,1747638522.513592,-0.91602904,-3.611735,-1.3562682,1.1971079,1.691207,-4.2040033
762,1747638522.5146224,-0.91602904,-3.611735,-1.3562682,1.1971079,1.691207,-4.2040033
763,1747638522.529335,-1.5473769,-3.6329558,-1.5388398,-0.48150036,0.7883747,-1.4447302
764,1747638522.5446637,-1.685007,-3.4482195,-1.1817763,-1.5370444,-0.20982604,0.7922689
765,1747638522.5462244,-1.4814584,-3.3147054,-0.8628247,-1.9800614,-1.1798515,2.6389365
766,1747638522.5598783,-1.4814584,-3.3147054,-0.8628247,-1.9800614,-1.1798515,2.6389365
767,1747638522.5609646,-1.4814584,-3.3147054,-0.8628247,-1.9800614,-1.1798515,2.6389365
768,1747638522.5747225,-0.30077976,-2.893248,-0.1651011,-1.5756805,-3.1260872,6.1202316
769,1747638522.589628,1.6098806,-2.5034997,-0.21144526,0.31229568,-5.3820224,8.372501
770,1747638522.6057134,2.1172273,-2.2358012,-0.5585082,0.8387696,-5.504192,8.72435
771,1747638522.6071367,2.1172273,-2.2358012,-0.5585082,0.8387696,-5.504192,8.72435
772,1747638522.620477,2.6211896,-1.5017034,-0.8369391,0.70171076,-4.282421,9.219747
773,1747638522.6214771,2.6211896,-1.5017034,-0.8369391,0.70171076,-4.282421,9.219747
774,1747638522.6360126,3.5542011,-0.58262545,-0.59021735,0.09422319,-3.5115318,10.176333
775,1747638522.6515265,3.5542011,-0.58262545,-0.59021735,-0.057190575,-3.298346,10.28201
776,1747638522.6526124,4.103288,0.19687124,-0.58753425,-0.057190575,-3.298346,10.28201
777,1747638522.6666968,4.3236666,0.6830276,-0.37861964,-0.15439165,-2.879305,10.366384
778,1747638522.6818302,5.0184636,1.4222171,0.5721675,0.8493831,-2.1003983,9.734691
779,1747638522.68297,5.2839975,1.6201556,0.45161173,0.8493831,-2.1003983,9.734691
780,1747638522.6971865,5.2839975,1.6201556,0.45161173,2.184619,-2.061304,8.3932705
781,1747638522.712421,4.1394186,2.8740702,-0.28272992,3.0650787,-1.0570712,6.5514894
782,1747638522.7134213,4.1394186,2.8740702,-0.28272992,3.0650787,-1.0570712,6.5514894
783,1747638522.72775,4.5098667,3.5307853,-0.9001745,2.0002193,-0.39491275,5.5148816
784,1747638522.742892,4.3990674,3.759457,-0.6339089,0.5733565,0.28076068,2.825245
785,1747638522.7440157,4.3990674,3.759457,-0.6339089,0.5733565,0.28076068,2.825245
786,1747638522.7584682,3.8597374,3.805832,-0.38596764,-0.24601874,0.48844874,-0.3109976
787,1747638522.773389,2.3158975,3.5066376,0.052350618,-0.34940463,0.48356196,-1.2633085
788,1747638522.774392,1.6213446,3.1161575,0.12897095,-0.34940463,0.48356196,-1.2633085
789,1747638522.7887564,1.6213446,3.1161575,0.12897095,-0.36811182,0.2526617,-2.3805482
790,1747638522.803949,1.1974174,2.6558867,-0.10823802,-0.615505,-0.193944,-3.5510077
791,1747638522.80495,1.1974174,2.6558867,-0.10823802,-0.615505,-0.193944,-3.5510077
792,1747638522.8195212,1.6401261,2.3788888,-0.18705359,-1.1189195,-0.038177952,-4.1129875
793,1747638522.8347533,2.2041225,2.1297278,-0.19827376,-1.7837503,0.24655323,-5.081791
794,1747638522.835841,2.2041225,2.1297278,-0.19827376,-1.7837503,0.24655323,-5.081791
795,1747638522.8502445,2.813274,1.7097034,-0.036953375,-2.397499,0.89160794,-6.2058263
796,1747638522.8513181,2.813274,1.7097034,-0.036953375,-2.397499,0.89160794,-6.2058263
797,1747638522.8662121,3.0724354,1.144518,0.14192902,-2.1071177,1.8646876,-8.158705
798,1747638522.881435,2.7290616,-0.16455229,0.52725637,-1.4984083,2.0082366,-8.717095
799,1747638522.883435,2.7290616,-0.16455229,0.52725637,-1.4984083,2.0082366,-8.717095
800,1747638522.8964503,2.5062437,-0.60750496,0.54240966,-0.76936215,1.9923546,-8.882025
801,1747638522.9118028,2.2819624,-1.2654701,0.26833883,0.38765895,1.8469731,-8.557054
802,1747638522.9128046,2.2819624,-1.2654701,0.26833883,0.38765895,1.8469731,-8.557054
803,1747638522.927797,1.9461502,-2.1271973,-0.23245259,0.8144885,2.2941132,-7.7085104
804,1747638522.9424977,1.6250033,-2.5193543,-0.3940169,0.78211355,2.370469,-7.4947143
805,1747638522.943742,1.6250033,-2.5193543,-0.3940169,0.78211355,2.370469,-7.4947143
806,1747638522.9581585,1.1783919,-2.636282,-0.5384765,0.3683409,2.2366936,-6.6364737
807,1747638522.973001,-0.06552211,-2.722171,-0.554819,-0.038483378,2.314882,-4.7336082
808,1747638522.9740047,-0.06552211,-2.722171,-0.554819,-0.038483378,2.314882,-4.7336082
809,1747638522.9889216,-0.3530084,-2.7917178,-0.4340192,0.14034216,2.0198429,-3.24986
810,1747638523.0042872,-0.6768383,-2.9518187,-0.71467584,0.8848886,0.88916457,-0.6481853
811,1747638523.0052896,-0.6768383,-2.9518187,-0.71467584,0.8848886,0.88916457,-0.6481853
812,1747638523.0191255,-0.862093,-2.626495,-1.4490174,0.62382776,-0.16095825,3.4812949
813,1747638523.0345986,-0.56286824,-2.4176106,-1.501734,0.15836215,-0.5121954,5.2002954
814,1747638523.0356336,-0.56286824,-2.4176106,-1.501734,0.15836215,-0.5121954,5.2002954
815,1747638523.0503387,0.2476059,-2.1096048,-1.4390169,-0.49768782,-1.3221788,7.3229895
816,1747638523.0514407,0.2476059,-2.1096048,-1.4390169,-0.49768782,-1.3221788,7.3229895
817,1747638523.0655732,1.2128147,-1.8048005,-1.312851,-1.049741,-2.1156695,8.582633
818,1747638523.0813386,1.7846164,-1.5729576,-1.2018079,-1.3338614,-2.3484023,8.882559
819,1747638523.0823395,1.7846164,-1.5729576,-1.2018079,-1.3338614,-2.3484023,8.882559
820,1747638523.09641,2.325654,-1.0335969,-0.88111854,-1.6453935,-1.8151326,8.6596
821,1747638523.1117435,1.9715481,0.39355955,-0.23586741,-1.5089455,-1.1065499,8.496504
822,1747638523.1137445,2.1304293,0.64201915,-0.0725957,-1.5089455,-1.1065499,8.496504
823,1747638523.1267345,2.1304293,0.64201915,-0.0725957,-1.3419551,-1.1890142,8.50872
824,1747638523.142224,2.3651989,1.6923853,0.34642264,-0.7151494,-1.2073396,7.4555435
825,1747638523.1434512,2.3651989,1.6923853,0.34642264,-0.7151494,-1.2073396,7.4555435
826,1747638523.15774,2.54213,3.1730206,0.6834545,-0.044133715,-1.1627477,5.659042
827,1747638523.1733239,2.8171766,3.8043683,0.74422026,-0.05971032,-0.9623898,4.626023
828,1747638523.1743228,2.8171766,3.8043683,0.74422026,-0.05971032,-0.9623898,4.626023
829,1747638523.1885054,3.0180113,4.285372,1.244036,-0.3787253,-0.05222744,1.7928367
830,1747638523.2043736,2.1021044,4.1865554,2.0166724,-0.15691139,0.8940513,-0.51318806
831,1747638523.2053738,2.1021044,4.1865554,2.0166724,0.38956785,1.27522,-1.6273735
832,1747638523.2198074,2.1021044,4.1865554,2.0166724,1.1354123,1.4163257,-2.5625806
833,1747638523.2208865,2.0396311,3.6891787,1.9507846,1.1354123,1.4163257,-2.5625806
834,1747638523.2349107,2.136527,3.3406827,1.7082095,1.6488295,1.5281107,-3.2535253
835,1747638523.2500494,2.5784736,2.646618,0.8245299,2.3180127,1.6704382,-4.9113646
836,1747638523.2510505,2.5784736,2.646618,0.8245299,2.3180127,1.6704382,-4.9113646
837,1747638523.265293,3.007523,2.389865,0.41035932,2.0002193,1.5116179,-5.4965563
838,1747638523.2805579,3.6544814,1.9378875,0.019421864,0.7229377,1.727247,-6.422066
839,1747638523.2815588,3.6544814,1.9378875,0.019421864,0.7229377,1.727247,-6.422066
840,1747638523.2965739,3.8985507,1.0529882,0.22269592,-0.3113794,2.1316278,-7.3927026
841,1747638523.3113222,3.6998806,0.34867886,0.30227375,-0.5606814,2.1359038,-7.6981263
842,1747638523.3123987,3.6998806,0.34867886,0.30227375,-0.5606814,2.1359038,-7.6981263
843,1747638523.326489,3.3238218,-0.48304647,0.25199643,-0.87778753,2.363139,-7.5484686
844,1747638523.3417735,3.0609713,-1.0738736,0.44722122,-0.86282176,2.7944734,-7.283972
845,1747638523.3428593,3.0609713,-1.0738736,0.44722122,-0.86282176,2.7944734,-7.283972
846,1747638523.3567154,2.2761085,-1.9685601,0.7298292,0.46432027,2.8818247,-6.8404965
847,1747638523.3723845,1.7794939,-2.2465334,0.48286358,1.3684505,2.4443817,-6.299286
848,1747638523.3733861,1.7794939,-2.2465334,0.48286358,1.3684505,2.4443817,-6.299286
849,1747638523.3879807,0.8567268,-2.5288975,-0.23391607,2.1727836,2.0167885,-4.8276787
850,1747638523.4038692,0.16095452,-2.5979564,-0.7432446,2.0070913,1.579422,-3.162509
851,1747638523.4049103,0.16095452,-2.5979564,-0.7432446,2.0070913,1.579422,-3.162509
852,1747638523.418816,-0.36447248,-2.7246103,-1.1776297,0.97964627,0.9563577,-0.9872055
853,1747638523.4339657,-0.63610417,-2.8176033,-1.0236572,0.42316443,0.58679515,-0.08551861
854,1747638523.4350734,-0.63610417,-2.8176033,-1.0236572,-0.4485146,-0.4883724,1.6016415
855,1747638523.4489336,-0.6675694,-2.7411966,-0.90578455,-0.8292252,-1.1413682,2.7592735
856,1747638523.4640741,-0.5943639,-2.5999079,-0.74763507,-1.0540932,-1.6673076,3.9272134
857,1747638523.465076,-0.5943639,-2.5999079,-0.74763507,-1.0540932,-1.6673076,3.9272134
858,1747638523.4793723,-0.115799434,-2.348765,-0.47868645,-0.9998806,-2.4064329,5.9369774
859,1747638523.494719,1.0578362,-2.2208917,-0.5040843,-0.59679776,-2.9501631,7.249688
860,1747638523.4957678,1.0578362,-2.2208917,-0.5040843,-0.59679776,-2.9501631,7.249688
861,1747638523.510585,1.2508656,-2.0310333,-0.6226888,-0.18745375,-2.8127224,8.00355
862,1747638523.5116231,1.2508656,-2.0310333,-0.6226888,-0.18745375,-2.8127224,8.00355
863,1747638523.5257108,1.4541702,-1.8526386,-0.6351285,-0.2839676,-2.615419,8.5349865
864,1747638523.540799,2.8532763,-1.3740436,-0.633665,-0.67468077,-3.5292463,9.110405
865,1747638523.5417993,2.8532763,-1.3740436,-0.633665,-0.67468077,-3.5292463,9.110405
866,1747638523.5645533,3.726254,-0.2512037,-0.8279142,-1.4379344,-3.7137222,7.994998
867,1747638523.565554,3.726254,-0.2512037,-0.8279142,-1.4379344,-3.7137222,7.994998
868,1747638523.579895,3.535877,0.85410476,-0.49015057,-2.3245792,-2.8200526,7.5117416
869,1747638523.580978,3.535877,0.85410476,-0.49015057,-2.3245792,-2.8200526,7.5117416
870,1747638523.5952904,3.5246568,1.6660423,0.22537899,-2.633668,-2.088792,7.4366074
871,1747638523.6107981,3.7025638,2.501396,0.6546724,-2.346417,-1.533532,6.873406
872,1747638523.6118574,3.7025638,2.501396,0.6546724,-2.346417,-1.533532,6.873406
873,1747638523.6261618,4.2260394,3.2608914,1.2869958,-1.5077237,-1.0491302,4.58815
874,1747638523.641419,4.126003,3.588868,1.376056,-0.9219976,-0.84632885,2.9443603
875,1747638523.6424892,4.126003,3.588868,1.376056,-0.9219976,-0.84632885,2.9443603
876,1747638523.6568413,3.3142788,3.8133934,1.0919845,-0.30954686,-0.21959959,0.2443389
877,1747638523.6715834,2.67415,3.6552439,0.8872469,-0.31267744,0.35039726,-0.937116
878,1747638523.6726258,2.67415,3.6552439,0.8872469,-0.31267744,0.35039726,-0.937116
879,1747638523.6876163,1.4890503,2.8967545,0.94289035,-0.33512607,1.3662362,-2.8447921
880,1747638523.7027512,1.340444,2.7073836,0.96459895,-0.15126105,1.4364837,-3.1643414
881,1747638523.7038128,1.340444,2.7073836,0.96459895,-0.15126105,1.4364837,-3.1643414
882,1747638523.7181208,1.6630543,2.0857923,0.7229995,0.3690281,1.6484476,-4.150249
883,1747638523.7341988,1.8275458,1.9281309,0.65955067,0.41201648,1.8292584,-4.5442452
884,1747638523.7352915,1.8275458,1.9281309,0.65955067,0.41201648,1.8292584,-4.5442452
885,1747638523.7498615,2.0735662,1.5513405,0.6322015,0.5110501,2.44316,-5.608952
886,1747638523.7509222,2.0735662,1.5513405,0.6322015,0.5110501,2.44316,-5.608952
887,1747638523.7649088,2.3893468,1.150128,0.66369724,0.62573665,2.6441288,-5.9181175
888,1747638523.7806745,2.6746378,0.6583616,0.61122465,1.3291273,3.1102815,-6.7653623
889,1747638523.7816794,2.6746378,0.6583616,0.61122465,1.3291273,3.1102815,-6.7653623
890,1747638523.796311,2.788364,0.25129515,0.52530503,1.7628288,3.2477221,-7.2180004
891,1747638523.8115113,2.6895165,-0.42691517,0.282486,2.913665,3.0852368,-7.89543
892,1747638523.8125486,2.6895165,-0.42691517,0.282486,2.913665,3.0852368,-7.89543
893,1747638523.8264744,2.473315,-1.0748494,-0.0769862,3.0214796,2.9148104,-7.814187
894,1747638523.842463,2.3927615,-1.2771782,-0.23659918,2.908702,2.815853,-7.6944613
895,1747638523.8434985,2.3927615,-1.2771782,-0.23659918,2.908702,2.815853,-7.6944613
896,1747638523.8571138,2.1091778,-1.5063379,-0.40084654,2.2618911,2.9306924,-7.3859835
897,1747638523.8723516,1.8055931,-1.6774149,-0.38669938,1.5752987,3.0094917,-6.8850884
898,1747638523.873353,1.5886292,-1.8216306,-0.34520307,1.5752987,3.0094917,-6.8850884
899,1747638523.8875773,1.5886292,-1.8216306,-0.34520307,1.1764919,2.9636781,-6.443446
900,1747638523.902603,1.0068271,-2.0874085,-0.25952733,0.6817819,2.7168195,-5.624834
901,1747638523.9036531,0.45697787,-2.2462897,-0.19681026,0.6817819,2.7168195,-5.624834
902,1747638523.9182966,0.016494865,-2.3705041,-0.18876101,0.53533125,1.8066571,-3.8497121
903,1747638523.933765,-0.39349857,-2.4234645,-0.2697718,0.49799323,1.1194539,-2.6364932
904,1747638523.9348469,-0.39349857,-2.4234645,-0.2697718,0.49799323,1.1194539,-2.6364932
905,1747638523.9486992,-0.7744659,-2.3929446,-0.52408546,-0.012369657,-0.022295926,0.03787253
906,1747638523.9640265,-0.42157948,-2.35343,-0.4159694,-1.0703571,-1.1132691,3.9076662
907,1747638523.9650302,-0.42157948,-2.35343,-0.4159694,-1.0703571,-1.1132691,3.9076662
908,1747638523.9795113,-0.42157948,-2.35343,-0.4159694,-1.0703571,-1.1132691,3.9076662
909,1747638523.995252,0.513841,-2.1799138,-0.22196417,-1.2068051,-2.5567775,7.1067495
910,1747638523.9963472,0.513841,-2.1799138,-0.22196417,-1.2068051,-2.5567775,7.1067495
911,1747638524.0099843,1.1359199,-2.1188736,-0.12336086,-0.9463551,-3.1798418,8.117778
912,1747638524.0110416,1.1359199,-2.1188736,-0.12336086,-0.9463551,-3.1798418,8.117778
913,1747638524.0260077,2.0674682,-1.8645905,-0.22781818,-0.3519244,-4.0246434,9.027941
914,1747638524.0411305,3.0111816,-1.4550849,-0.63293326,-0.29710084,-4.003264,9.414607
915,1747638524.042131,3.0111816,-1.4550849,-0.63293326,-0.29710084,-4.003264,9.414607
916,1747638524.0562046,3.6347244,-0.69659555,-0.5694845,-1.6335583,-2.8261611,9.293659
917,1747638524.0716841,3.7967765,-0.25339893,-0.24220926,-2.0529048,-2.6728384,9.1226225
918,1747638524.0726864,3.7967765,-0.25339893,-0.24220926,-2.0529048,-2.6728384,9.1226225
919,1747638524.087458,3.9539502,0.6654352,0.15241744,-2.3725307,-2.4516354,9.025497
920,1747638524.1033158,4.15259,1.4281017,0.93801206,-2.2660143,-2.2567751,8.452522
921,1747638524.1043446,4.15259,1.4281017,0.93801206,-1.5027606,-2.125443,7.1837163
922,1747638524.118468,4.15259,1.4281017,0.93801206,-1.5027606,-2.125443,7.1837163
923,1747638524.1334708,3.8348274,1.8390707,0.96630645,-0.7226323,-2.0558064,6.1721535
924,1747638524.1344738,3.8348274,1.8390707,0.96630645,-0.7226323,-2.0558064,6.1721535
925,1747638524.1488721,2.980936,2.643203,0.46819806,0.20448112,-1.6825788,3.8190935
926,1747638524.1640728,2.3812973,2.7966876,0.33715382,-0.17806198,-1.1566393,2.4788945
927,1747638524.165074,2.3812973,2.7966876,0.33715382,-0.17806198,-1.1566393,2.4788945
928,1747638524.1793277,1.4744153,3.0898144,0.47530213,-0.42728767,-0.9123004,1.8826313
929,1747638524.194978,1.3372731,3.10884,0.6451596,-0.8790092,-0.39185852,0.16248538
930,1747638524.1959784,1.3372731,3.10884,0.6451596,-0.8790092,-0.39185852,0.16248538
931,1747638524.210266,1.4409987,2.8933394,0.6571115,-0.78180814,-0.23120569,-0.6677324
932,1747638524.2113602,1.4409987,2.8933394,0.6571115,-0.78180814,-0.23120569,-0.6677324
933,1747638524.2258184,1.3626405,2.7264092,0.63829947,-0.6534538,0.0027488125,-1.5516284
934,1747638524.2411175,1.1596104,2.5350869,0.4738386,-0.61298525,0.32840675,-2.708573
935,1747638524.2422163,1.1596104,2.5350869,0.4738386,-0.61298525,0.32840675,-2.708573
936,1747638524.2567139,1.3321509,2.3708396,0.35642326,-1.1812259,0.95391434,-3.63897
937,1747638524.2727852,1.557408,2.3278797,0.45844138,-1.5108544,1.3686796,-3.9700491
938,1747638524.2737863,1.557408,2.3278797,0.45844138,-1.5108544,1.3686796,-3.9700491
939,1747638524.2880168,2.3666625,1.9137397,0.91456556,-1.4547328,2.4236128,-4.985277
940,1747638524.303392,2.6009445,1.6706767,1.0412192,-0.94818765,2.868386,-5.546035
941,1747638524.304402,2.6009445,1.6706767,1.0412192,-0.94818765,2.868386,-5.546035
942,1747638524.3186655,2.8244941,1.1103392,0.9609402,0.32596338,3.308196,-6.425731
943,1747638524.3337252,2.77568,0.39968795,0.3134939,1.6344745,3.4383066,-7.09522
944,1747638524.3348022,2.77568,0.39968795,0.3134939,1.6344745,3.4383066,-7.09522
945,1747638524.3493934,2.745404,0.18662675,0.12799528,1.7535135,3.443804,-7.203951
946,1747638524.3641806,2.6641493,-0.078663126,-0.064302534,1.7752749,3.4095967,-7.314514
947,1747638524.365216,2.6641493,-0.078663126,-0.064302534,1.7752749,3.4095967,-7.314514
948,1747638524.3796713,2.4474294,-0.4801195,-0.28199816,1.6376052,3.5152733,-7.274809
949,1747638524.3950565,2.1360393,-0.8962108,-0.35959417,1.5129923,3.735789,-6.934567
950,1747638524.396058,2.1360393,-0.8962108,-0.35959417,1.4812282,3.888501,-6.610207
951,1747638524.4102905,2.0589006,-0.9996925,-0.37983924,1.4780977,3.9416447,-6.359149
952,1747638524.411375,2.0589006,-0.9996925,-0.37983924,1.4780977,3.9416447,-6.359149
953,1747638524.4259932,1.8229111,-1.3574573,-0.37374133,1.5048985,3.876895,-5.8552
954,1747638524.441612,1.671378,-1.674732,-0.4589292,1.6563123,3.327743,-5.3090262
955,1747638524.4426546,1.671378,-1.674732,-0.4589292,1.6563123,3.327743,-5.3090262
956,1747638524.4574692,1.3965753,-1.9312103,-0.6287867,1.6587558,3.0510294,-5.03048
957,1747638524.4723616,0.8486776,-2.1445153,-0.847458,1.3690615,2.7510269,-4.386036
958,1747638524.4733617,0.8486776,-2.1445153,-0.847458,1.3690615,2.7510269,-4.386036
959,1747638524.4876456,-0.31931743,-2.1965,-0.8388904,0.5173113,2.2904482,-2.3671095
960,1747638524.50293,-0.6575689,-2.1469545,-0.74739116,0.25930467,1.6918179,-1.1099858
961,1747638524.5039728,-0.6575689,-2.1469545,-0.74739116,0.25930467,1.6918179,-1.1099858
962,1747638524.518597,-0.696626,-2.1291487,-0.6312259,-0.02351762,0.36078167,1.3230952
963,1747638524.533902,-0.41450587,-2.0727735,-0.6019254,-0.17309885,-0.85915667,2.8747237
964,1747638524.5349653,0.012592198,-1.9729505,-0.6500074,-0.17309885,-0.85915667,2.8747237
965,1747638524.5493226,0.012592198,-1.9729505,-0.6500074,-0.47653723,-1.8866018,4.269288
966,1747638524.5646296,0.57655805,-1.8201672,-0.59631526,-1.1774844,-2.642907,6.1153445
967,1747638524.566769,0.86383086,-1.814313,-0.51140183,-1.487184,-2.7968404,6.8770714
968,1747638524.5796113,1.4014537,-1.6000324,-0.18095568,-1.8049009,-2.9648235,8.229564
969,1747638524.5949695,1.8422111,-1.3420905,-0.004268542,-1.753208,-3.1596837,9.166603
970,1747638524.5955477,1.8422111,-1.3420905,-0.004268542,-1.753208,-3.1596837,9.166603
971,1747638524.6110425,3.1283228,-0.9928628,0.12214127,-1.4921471,-3.5573454,10.184275
972,1747638524.6110425,3.1283228,-0.9928628,0.12214127,-1.4921471,-3.5573454,10.184275
973,1747638524.626867,4.338058,-0.010335969,0.2710219,-0.8123505,-3.9391248,9.037104
974,1747638524.6420147,4.2328687,0.44090986,0.273705,-0.62856185,-3.6398098,8.291259
975,1747638524.642082,4.2328687,0.44090986,0.273705,-0.62856185,-3.6398098,8.291259
976,1747638524.657357,3.6191137,1.2867824,0.31788442,-0.45225605,-3.1999998,7.5569444
977,1747638524.672697,3.4272733,1.6372297,0.16144235,-0.66971767,-2.7272038,7.337039
978,1747638524.6736994,3.3111076,2.138021,0.14997827,-0.66971767,-2.7272038,7.337039
979,1747638524.6879683,3.3111076,2.138021,0.14997827,-1.7987161,-1.4235796,6.4006104
980,1747638524.7028518,3.3033025,2.6746683,0.9257858,-1.8691163,-1.1462549,5.484339
981,1747638524.7038956,3.3033025,2.6746683,0.9257858,-1.8691163,-1.1462549,5.484339
982,1747638524.7183225,3.0182555,3.2235417,1.3621526,-1.0609653,-1.189625,3.2241282
983,1747638524.7338934,2.456942,3.4202302,1.207662,-0.367501,-1.1609153,1.6260754
984,1747638524.7349718,2.456942,3.4202302,1.207662,-0.367501,-1.1609153,1.6260754
985,1747638524.749086,1.9054161,3.425596,0.8877348,-0.20677179,-0.74004143,-0.32138202
986,1747638524.7637866,0.95752543,2.6534474,0.5402144,-0.74385923,-0.05955761,-2.2278364
987,1747638524.7648664,0.95752543,2.6534474,0.5402144,-0.74385923,-0.05955761,-2.2278364
988,1747638524.779398,0.7398297,2.5116405,0.61122465,-0.8485432,0.06139015,-2.7360613
989,1747638524.7947676,0.78157,2.4342883,0.6488183,-0.8584695,0.055281676,-3.0366745
990,1747638524.7958066,0.78157,2.4342883,0.6488183,-0.8584695,0.055281676,-3.0366745
991,1747638524.8100348,1.3419076,2.2644308,0.56728923,-0.953838,0.26671118,-3.6811182
992,1747638524.8110921,1.3419076,2.2644308,0.56728923,-0.953838,0.26671118,-3.6811182
993,1747638524.8258994,1.9354179,2.2844625,0.50896263,-1.2348278,0.68025476,-4.2247725
994,1747638524.8407097,2.6358244,1.8493152,0.54167795,-1.7737477,1.8042138,-5.5002213
995,1747638524.8417137,2.6358244,1.8493152,0.54167795,-1.7737477,1.8042138,-5.5002213
996,1747638524.8560052,2.9274879,1.1652509,0.92773706,-1.4815336,2.8237941,-6.962666
997,1747638524.8717015,2.9760275,0.65567845,0.98999685,-0.84915406,3.013157,-7.5050983
998,1747638524.8727932,2.9760275,0.65567845,0.98999685,-0.84915406,3.013157,-7.5050983
999,1747638524.8866186,2.7515326,-0.12162295,0.6880889,-0.09460497,3.0986755,-7.9479628
