id,timestamp,acc_x,acc_y,acc_z,gyro_x,gyro_y,gyro_z
0,1747638479.6886876,-0.005732042,0.48216227,1.0404875,0.1752368,-0.29962057,0.01099525
1,1747638479.7096367,-0.029879792,0.45630714,1.0068271,0.58954394,-0.8787038,0.017714571
2,1747638479.7096367,-0.029879792,0.45630714,1.0068271,0.58954394,-0.8787038,0.017714571
3,1747638479.7245615,-0.017927876,0.4482274,0.9626477,0.7484406,-1.049741,0.038483378
4,1747638479.739878,0.0035367915,0.43993422,0.88358814,0.9210813,-1.205507,0.13621894
5,1747638479.7409074,0.0035367915,0.43993422,0.88358814,0.9210813,-1.205507,0.13621894
6,1747638479.7549145,0.0418622,0.43237278,0.79742455,0.97216344,-1.2189457,0.17286977
7,1747638479.7710283,0.17290643,0.34428838,0.61903,0.75844324,-0.70277977,0.19180603
8,1747638479.7720666,0.17290643,0.34428838,0.61903,0.75844324,-0.70277977,0.19180603
9,1747638479.7867663,0.1504661,0.31132913,0.62683535,0.68552333,-0.62398046,0.19180603
10,1747638479.8018324,0.14485602,0.16439983,0.5785094,0.6474981,-0.92451733,0.3463504
11,1747638479.8029163,0.14485602,0.16439983,0.5785094,0.6474981,-0.92451733,0.3463504
12,1747638479.817242,0.18586451,0.075339764,0.56363046,0.66994673,-1.1951227,0.42209545
13,1747638479.8327994,0.31520134,-0.029605385,0.5499711,0.8899281,-1.9232526,0.5045598
14,1747638479.8337998,0.31520134,-0.029605385,0.5499711,0.8899281,-1.9232526,0.5045598
15,1747638479.8482337,0.4355132,-0.13162352,0.44063547,1.0550096,-2.2488341,0.5436541
16,1747638479.8492339,0.4355132,-0.13162352,0.44063547,1.0550096,-2.2488341,0.5436541
17,1747638479.8634453,0.4704238,-0.15772262,0.3940169,1.0861628,-2.2555535,0.6297835
18,1747638479.8792794,0.5797594,-0.12869653,0.29370615,0.9789591,-2.393605,0.84968853
19,1747638479.8803508,0.5797594,-0.12869653,0.29370615,0.80830365,-2.6111429,1.0433271
20,1747638479.8948045,0.98121583,0.010427438,0.28834,0.45935714,-2.9220643,1.2540694
21,1747638479.9099503,0.98121583,0.010427438,0.28834,0.06681142,-3.0674458,1.2925528
22,1747638479.9109507,0.98121583,0.010427438,0.28834,-0.4341597,-2.9373355,1.1819894
23,1747638479.924607,1.3219063,0.11903133,0.40816402,-0.95880115,-2.5555558,0.9736905
24,1747638479.9397476,1.2711413,0.25446606,0.69443077,-1.6553961,-2.0069387,0.6377245
25,1747638479.9407516,1.2711413,0.25446606,0.69443077,-1.6553961,-2.0069387,0.6377245
26,1747638479.9548767,1.1852217,0.37331447,0.8960279,-1.988766,-1.7516046,0.58885676
27,1747638479.970378,1.109089,0.54048884,1.2518413,-2.0317543,-1.9464648,0.64688724
28,1747638479.9714427,1.109089,0.54048884,1.2518413,-2.0317543,-1.9464648,0.64688724
29,1747638479.9859917,0.961428,0.73815286,1.5173751,-1.4335822,-2.7241497,0.7782194
30,1747638480.0020974,0.92947495,0.80894965,1.549816,-1.0379058,-3.0118587,0.88511765
31,1747638480.0031724,0.92947495,0.80894965,1.549816,-1.0379058,-3.0118587,0.88511765
32,1747638480.0175152,0.9231332,0.8709349,1.5210339,-0.6615476,-3.0240757,0.9822424
33,1747638480.033167,0.7569344,1.0488417,1.2628176,-0.07711947,-2.077797,0.95231086
34,1747638480.0341692,0.7569344,1.0488417,1.2628176,-0.07711947,-2.077797,0.95231086
35,1747638480.0487769,0.6817471,1.0610375,1.207662,0.0013744063,-1.8994296,0.87778753
36,1747638480.0497768,0.6817471,1.0610375,1.207662,0.0013744063,-1.8994296,0.87778753
37,1747638480.064417,0.5565569,1.0488417,1.1842458,0.091703445,-1.8829367,0.8020424
38,1747638480.0798643,0.28492516,1.0034426,0.9838684,0.42942563,-2.1944687,0.6267293
39,1747638480.0808973,0.28492516,1.0034426,0.9838684,0.42942563,-2.1944687,0.6267293
40,1747638480.0952256,0.24077624,0.9380426,0.8711179,0.4388174,-2.0961223,0.555871
41,1747638480.1106346,0.07238227,0.86581266,0.8086447,0.3129065,-1.605612,0.3243599
42,1747638480.111708,0.07238227,0.86581266,0.8086447,0.3129065,-1.605612,0.3243599
43,1747638480.1254334,-0.15653352,0.76037973,0.8216028,0.22883865,-1.393648,0.1783674
44,1747638480.1407416,-0.19022451,0.7435495,0.8044982,0.06490252,-0.8829797,-0.14110571
45,1747638480.1417437,-0.19022451,0.7435495,0.8044982,0.06490252,-0.8829797,-0.14110571
46,1747638480.155919,-0.26562527,0.6905891,0.80718124,-0.050318543,-0.51524967,-0.36841726
47,1747638480.1711738,-0.40279788,0.6276281,0.8974914,-0.14813046,-0.14629792,-0.65001786
48,1747638480.172243,-0.40279788,0.6276281,0.8974914,-0.14813046,-0.14629792,-0.65001786
49,1747638480.186966,-0.5204267,0.61515784,1.0253648,0.03000787,0.37605286,-0.7679114
50,1747638480.2028246,-0.49039447,0.6749479,1.1364079,0.18516308,0.59717953,-0.72026527
51,1747638480.2038596,-0.49039447,0.6749479,1.1364079,0.18516308,0.59717953,-0.72026527
52,1747638480.2184772,-0.20412776,0.8099253,1.2347672,0.5266267,0.64910156,-0.7056049
53,1747638480.2195175,-0.20412776,0.8099253,1.2347672,0.5266267,0.64910156,-0.7056049
54,1747638480.23408,0.06555261,1.0192972,1.3140706,0.9341382,0.7761578,-0.8002863
55,1747638480.250053,0.4867662,1.3402306,1.3990146,1.1515998,0.9245937,-0.84548897
56,1747638480.2511587,0.4867662,1.3402306,1.3990146,1.1515998,0.9245937,-0.84548897
57,1747638480.2655063,0.70616925,1.4478588,1.4146252,1.3341668,1.3631821,-1.0678374
58,1747638480.2803085,1.4797815,1.7426627,1.7633651,1.392121,2.0125127,-1.7232765
59,1747638480.2813094,1.4797815,1.7426627,1.7633651,1.392121,2.0125127,-1.7232765
60,1747638480.2983196,1.7767805,1.7826954,1.9869148,1.5771313,2.2403586,-2.1191056
61,1747638480.2994242,1.9522786,1.8126972,2.1084464,1.8980552,2.3380942,-2.5222647
62,1747638480.3136246,2.1963172,1.7185148,2.1848226,2.1902692,2.4058983,-2.7892048
63,1747638480.3291342,2.2761085,1.4217292,2.1243007,3.4775534,2.8427305,-3.334157
64,1747638480.3302028,2.2761085,1.4217292,2.1243007,3.4775534,2.8427305,-3.334157
65,1747638480.3450341,2.2726934,1.2260166,2.057437,4.0276976,2.8299026,-3.417843
66,1747638480.3600092,2.1696997,0.4911872,1.2508656,5.8352714,1.9905221,-3.5351257
67,1747638480.3610117,2.1696997,0.4911872,1.2508656,5.8352714,1.9905221,-3.5351257
68,1747638480.3752708,2.0906403,0.2769064,0.85038495,6.0602155,1.6050775,-3.5839937
69,1747638480.3901975,1.7665361,-0.1647962,0.0696687,6.017838,1.2006966,-3.6762316
70,1747638480.3912523,1.7665361,-0.1647962,0.0696687,5.6688914,0.87206084,-3.7837405
71,1747638480.405585,1.5930197,-0.2809615,-0.13897152,5.286959,0.7376744,-3.8509338
72,1747638480.42105,0.7456837,-0.54576355,-0.4545387,3.6159103,1.4474789,-3.5644464
73,1747638480.4220586,0.7456837,-0.54576355,-0.4545387,3.6159103,1.4474789,-3.5644464
74,1747638480.4361906,0.5135971,-0.60604143,-0.38645548,3.1535754,1.5158938,-3.241919
75,1747638480.4518158,-0.041099958,-0.75321466,-0.269284,2.921148,0.9331455,-2.681696
76,1747638480.4529195,-0.041099958,-0.75321466,-0.269284,2.921148,0.9331455,-2.681696
77,1747638480.4677174,-0.21607967,-0.8554462,-0.34764224,2.867546,0.34795386,-2.2296689
78,1747638480.4828317,-0.5228659,-0.9313653,-0.7151637,1.8700325,-0.14507623,-0.9175689
79,1747638480.4840562,-0.5228659,-0.9313653,-0.7151637,1.8700325,-0.14507623,-0.9175689
80,1747638480.4983778,-0.5355495,-0.9403902,-0.62317663,0.6612422,-0.20127417,0.1575986
81,1747638480.4994154,-0.5355495,-0.9403902,-0.62317663,0.6612422,-0.20127417,0.1575986
82,1747638480.5135593,-0.44767857,-0.9579522,-0.5585082,0.05932854,-0.37292224,0.679873
83,1747638480.5294902,-0.2329404,-0.99822897,-0.43597054,-0.6815528,-0.49448085,1.2607888
84,1747638480.5304918,-0.11945819,-1.00701,-0.38032708,-0.6815528,-0.49448085,1.2607888
85,1747638480.5444674,-0.03670946,-1.0160348,-0.29882842,-1.3208045,-0.47982052,1.6621153
86,1747638480.5599883,-0.06015595,-0.9606353,-0.12677568,-1.682197,-1.1725214,2.0768807
87,1747638480.5609891,-0.06015595,-0.9606353,-0.12677568,-1.682197,-1.1725214,2.0768807
88,1747638480.5752583,-0.060887698,-0.9230721,-0.1753456,-1.7500774,-1.5121524,2.3903217
89,1747638480.5904233,0.09896919,-0.89377165,-0.24098967,-1.9594452,-1.6929631,3.0469825
90,1747638480.5914514,0.09896919,-0.89377165,-0.24098967,-1.9594452,-1.6929631,3.0469825
91,1747638480.6058693,0.22659859,-0.86401385,-0.2133966,-2.0697796,-1.901262,3.4226534
92,1747638480.6213465,0.78083825,-0.79833925,-0.27590024,-2.32519,-2.373447,4.1342907
93,1747638480.622355,0.78083825,-0.79833925,-0.27590024,-2.32519,-2.373447,4.1342907
94,1747638480.6374414,1.0871061,-0.7141575,-0.23684308,-2.4467487,-2.3838315,4.2118683
95,1747638480.6528301,1.6242716,-0.29196826,-0.13897152,-2.9943733,-2.3068647,4.289446
96,1747638480.6538322,1.6242716,-0.29196826,-0.13897152,-3.3109448,-2.3471806,4.4720893
97,1747638480.6676958,1.91688,-0.0017683958,0.045277033,-3.3109448,-2.3471806,4.4720893
98,1747638480.6835089,2.5723758,0.71644425,0.4367328,-3.810618,-2.4760695,4.902126
99,1747638480.684586,2.5723758,0.71644425,0.4367328,-3.810618,-2.4760695,4.902126
100,1747638480.6990669,3.3601656,1.4339557,1.2506217,-3.9521055,-2.2237895,5.1715856
101,1747638480.700168,3.3601656,1.4339557,1.2506217,-3.9521055,-2.2237895,5.1715856
102,1747638480.7143292,3.5854225,1.5659755,1.5217656,-3.499086,-2.1339948,4.9076233
103,1747638480.7294197,3.5751781,1.8734629,1.9856951,-1.9501299,-2.0558064,3.952258
104,1747638480.7304199,3.5751781,1.8734629,1.9856951,-1.9501299,-2.0558064,3.952258
105,1747638480.7448537,3.2608304,1.9849938,2.0230448,0.55839074,-2.7528596,3.1660976
106,1747638480.7603796,2.460357,2.1389966,1.734095,0.55839074,-2.7528596,3.1660976
107,1747638480.7623804,2.460357,2.1389966,1.734095,1.4562598,-3.066835,3.1715953
108,1747638480.776227,1.9227341,1.9713346,0.93776816,1.684335,-2.9892573,3.136777
109,1747638480.7913966,1.665768,1.761932,0.5538738,1.4917654,-2.325801,2.6749766
110,1747638480.7914374,1.665768,1.761932,0.5538738,1.4917654,-2.325801,2.6749766
111,1747638480.8061557,1.2096437,1.5291137,0.47627777,1.1391538,-2.0496979,2.1666753
112,1747638480.8218896,0.4486847,1.201625,0.40596882,0.48486,-1.6666968,1.4312152
113,1747638480.8218896,0.4486847,1.201625,0.40596882,0.48486,-1.6666968,1.4312152
114,1747638480.8372424,-0.13970327,0.91096777,0.55436164,-0.17309885,-1.1651912,0.87167907
115,1747638480.8528137,-0.61948735,0.8636175,0.68833286,-0.48898324,-1.0717316,0.6255076
116,1747638480.8538158,-0.61948735,0.8636175,0.68833286,-0.48898324,-1.0717316,0.6255076
117,1747638480.8677392,-0.7439763,0.77818567,0.9565497,-0.7718819,-0.8903099,0.5387673
118,1747638480.8828473,-0.64561695,0.6952235,1.2323279,-1.0273688,-0.14446537,0.14232741
119,1747638480.8842227,-0.64561695,0.6952235,1.2323279,-1.0273688,-0.14446537,0.14232741
120,1747638480.8985014,-0.5089321,0.79452807,1.3462981,-0.61794835,-0.022906773,-0.38429928
121,1747638480.8999856,-0.5089321,0.79452807,1.3462981,-0.61794835,-0.022906773,-0.38429928
122,1747638480.9138885,-0.39621213,0.91560215,1.2259862,-0.41736138,0.095597595,-0.605426
123,1747638480.9293876,-0.023781875,1.1232667,1.024389,-0.36994436,0.74683714,-0.9517764
124,1747638480.9303958,-0.023781875,1.1232667,1.024389,-0.36994436,0.74683714,-0.9517764
125,1747638480.944639,0.36328337,1.2619029,0.90139407,-0.3768164,1.2116919,-1.2779688
126,1747638480.9607482,0.7181212,1.4324921,0.8569707,-0.31512082,1.9184421,-2.037252
127,1747638480.9617484,0.7181212,1.4324921,0.8569707,-0.31512082,1.9184421,-2.037252
128,1747638480.9764364,0.7666911,1.5467061,0.82623726,-0.27091077,2.054661,-2.2883103
129,1747638480.991584,1.2598907,1.8693163,0.9875271,-0.17248799,2.275177,-2.7421696
130,1747638480.9925842,1.2598907,1.8693163,0.9875271,-0.17248799,2.275177,-2.7421696
131,1747638481.006658,1.7130877,2.0060012,1.0958872,-0.029778805,2.2715118,-2.9785676
132,1747638481.0218549,2.199976,2.1797612,1.2367185,0.20639002,2.559221,-3.5027509
133,1747638481.0234802,2.199976,2.1797612,1.2367185,0.20639002,2.559221,-3.5027509
134,1747638481.037505,2.7146707,2.090183,1.5081062,0.89733464,3.0021615,-4.0818343
135,1747638481.052731,2.7564108,1.9315456,1.4592924,1.3783768,3.2171798,-4.357937
136,1747638481.052731,2.7564108,1.9315456,1.4592924,1.3783768,3.2171798,-4.357937
137,1747638481.0686324,2.7239394,1.525211,1.2330598,2.1310933,3.2190123,-4.5210333
138,1747638481.084374,2.7146707,1.1339991,0.9089555,2.6096158,3.2678802,-4.5717335
139,1747638481.085375,2.6775646,0.9377987,0.8115718,2.6096158,3.2678802,-4.5717335
140,1747638481.100184,2.6775646,0.9377987,0.8115718,2.8227253,3.2550523,-4.6083846
141,1747638481.1011858,2.5574968,0.66811824,0.624884,2.8227253,3.2550523,-4.6083846
142,1747638481.1155574,2.4078844,0.4309093,0.43429363,3.3018584,2.8744946,-4.622434
143,1747638481.130692,1.9117578,-0.015214303,0.1651011,3.748617,2.4737024,-4.5369153
144,1747638481.1318016,1.9117578,-0.015214303,0.1651011,3.748617,2.4737024,-4.5369153
145,1747638481.1462393,1.6169541,-0.15381996,0.013293459,3.8445199,2.1817174,-4.4911017
146,1747638481.1614308,1.0666171,-0.37663785,-0.23879443,3.759154,1.8365886,-4.2980742
147,1747638481.162435,1.0666171,-0.37663785,-0.23879443,3.759154,1.8365886,-4.2980742
148,1747638481.1765604,0.48847362,-0.6255548,-0.37813184,3.2345126,1.4548091,-3.4856472
149,1747638481.1917524,0.27785155,-0.6658315,-0.40596882,3.0276644,1.3088166,-3.1490703
150,1747638481.1928496,0.27785155,-0.6658315,-0.40596882,3.0276644,1.3088166,-3.1490703
151,1747638481.2072105,0.087017275,-0.6851009,-0.42987266,2.366575,1.0504283,-2.2351665
152,1747638481.2226293,-0.14921603,-0.73562217,-0.29638925,1.8681237,0.9557469,-1.4386216
153,1747638481.223663,-0.14921603,-0.73562217,-0.29638925,1.8681237,0.9557469,-1.4386216
154,1747638481.2381644,-0.21656752,-0.7373296,-0.21022569,1.6986135,0.8225822,-0.9713235
155,1747638481.2539544,-0.24440451,-0.74955595,-0.1931515,1.5902644,0.59351444,-0.54800636
156,1747638481.2550228,-0.24440451,-0.74955595,-0.1931515,1.5902644,0.59351444,-0.54800636
157,1747638481.2697387,-0.0755227,-0.78175294,-0.26660094,0.8824452,-0.26968905,0.21013145
158,1747638481.2708166,-0.0755227,-0.78175294,-0.26660094,0.8824452,-0.26968905,0.21013145
159,1747638481.2853107,-0.11506769,-0.76248354,-0.2998041,0.6381827,-0.4627168,0.32802498
160,1747638481.3011734,-0.16580236,-0.74147624,-0.31809783,-0.07711947,-0.625813,0.81487024
161,1747638481.302177,-0.16580236,-0.74147624,-0.31809783,-0.07711947,-0.625813,0.81487024
162,1747638481.316638,-0.016220458,-0.78541166,-0.21757366,-1.2291774,-0.54518116,1.8093296
163,1747638481.3321085,0.11604336,-0.8215419,-0.097231284,-1.6061465,-0.57999945,2.1581233
164,1747638481.3331103,0.11604336,-0.8215419,-0.097231284,-1.6061465,-0.57999945,2.1581233
165,1747638481.3475363,0.28638867,-0.8556901,0.039179116,-1.864764,-0.63619745,2.445298
166,1747638481.362793,0.44722122,-0.847397,0.12287302,-2.066649,-0.9037485,3.0604212
167,1747638481.3638768,0.5309456,-0.8449578,0.14388034,-2.066649,-0.9037485,3.0604212
168,1747638481.378644,0.5309456,-0.8449578,0.14388034,-1.8286476,-1.6031686,3.596745
169,1747638481.379702,0.5309456,-0.8449578,0.14388034,-1.8286476,-1.6031686,3.596745
170,1747638481.3939183,0.66296554,-0.7802894,-0.056497198,-1.7563386,-1.8133001,3.8875084
171,1747638481.409518,1.007071,-0.7744354,-0.38057098,-2.0548139,-2.1003983,4.96321
172,1747638481.4105186,1.007071,-0.7744354,-0.38057098,-2.0548139,-2.1003983,4.96321
173,1747638481.4245698,1.3443466,-0.8069068,-0.47527164,-2.5002742,-2.1504877,5.437304
174,1747638481.4403672,2.091372,-0.8002906,-0.273705,-3.3987541,-2.1199455,5.8807793
175,1747638481.4413693,2.091372,-0.8002906,-0.273705,-3.3987541,-2.1199455,5.8807793
176,1747638481.4553814,2.4952674,-0.7258655,-0.061131615,-3.6455364,-2.2622728,5.845961
177,1747638481.4706707,2.784949,-0.3392881,0.17363818,-3.2778828,-3.019189,5.8294683
178,1747638481.4717078,2.784949,-0.3392881,0.17363818,-3.2778828,-3.019189,5.8294683
179,1747638481.485821,2.8381534,-0.24071527,0.11823861,-3.1644943,-3.1682358,6.062201
180,1747638481.501377,3.1405187,0.002866021,0.23220867,-3.1725879,-3.1175354,6.770173
181,1747638481.5023775,3.1405187,0.002866021,0.23220867,-3.1725879,-3.1175354,6.770173
182,1747638481.5168786,3.7513773,0.43578765,0.65345275,-2.7407954,-2.8970194,6.8355336
183,1747638481.5321436,3.8136067,0.61759704,0.7796187,-2.4610271,-2.8921328,6.513006
184,1747638481.5331452,3.8136067,0.61759704,0.7796187,-2.4610271,-2.8921328,6.513006
185,1747638481.547492,3.5646899,1.0034426,0.8594099,-1.9183658,-3.2800207,5.8923855
186,1747638481.563482,3.4148333,1.1776907,0.87895375,-1.3308071,-3.410742,5.373165
187,1747638481.564545,3.4148333,1.1776907,0.87895375,-1.3308071,-3.410742,5.373165
188,1747638481.5785284,3.3018389,1.342426,0.8882226,-0.82418567,-3.4168506,4.8660855
189,1747638481.5796194,3.139299,1.4983801,0.7791308,-0.5974086,-3.3081198,4.556997
190,1747638481.593465,3.0204506,1.5820739,0.6802836,-0.4883724,-3.074776,4.229583
191,1747638481.6089628,2.3349228,1.6865313,0.68564975,-0.65719527,-2.0167122,3.0030015
192,1747638481.609963,2.3349228,1.6865313,0.68564975,-0.65719527,-2.0167122,3.0030015
193,1747638481.6249049,2.0457292,1.7158319,0.81035215,-0.75943583,-1.7699299,2.6224437
194,1747638481.6397913,1.6364673,1.653816,1.0431706,-0.6341358,-1.7345008,1.9211147
195,1747638481.6408305,1.6364673,1.653816,1.0431706,-0.6341358,-1.7345008,1.9211147
196,1747638481.6555297,1.3199246,1.651133,1.0456402,-0.5207473,-1.594006,1.3799039
197,1747638481.671033,0.9502079,1.5954895,1.099546,-0.47905695,-1.1432006,0.76722413
198,1747638481.672125,0.9502079,1.5954895,1.099546,-0.47905695,-1.1432006,0.76722413
199,1747638481.6862519,0.56070346,1.5430473,1.2520853,-0.41797224,-0.81212145,0.43492326
200,1747638481.7011535,0.45844138,1.5108198,1.2362306,0.0013744063,-0.34360158,-0.25105822
201,1747638481.7021542,0.45844138,1.5108198,1.2362306,0.0013744063,-0.34360158,-0.25105822
202,1747638481.7168212,0.3940169,1.479812,1.1490915,0.16462334,-0.21043688,-0.5822138
203,1747638481.7322216,0.39913917,1.4031916,0.9699651,0.1752368,0.13293563,-1.1722922
204,1747638481.7332244,0.39913917,1.4031916,0.9699651,0.1752368,0.13293563,-1.1722922
205,1747638481.7481012,0.55509335,1.3255956,0.91724867,-0.044744562,0.5580853,-1.7923023
206,1747638481.7628686,0.74836683,1.248701,0.9338655,-0.09269607,0.8580113,-2.157589
207,1747638481.7643745,0.74836683,1.248701,0.9338655,-0.09269607,0.8580113,-2.157589
208,1747638481.7786386,0.9567936,1.1911061,0.877978,-0.075286925,1.0266051,-2.4025385
209,1747638481.7797427,0.9567936,1.1911061,0.877978,-0.075286925,1.0266051,-2.4025385
210,1747638481.7939556,1.154976,1.1815933,0.821115,-0.07154548,1.5733135,-3.1215823
211,1747638481.8096058,1.5454255,1.1715927,0.8459944,-0.13011047,1.8952299,-3.613925
212,1747638481.810703,1.5454255,1.1715927,0.8459944,-0.13011047,1.8952299,-3.613925
213,1747638481.825114,1.7189418,1.1891547,0.8857834,-0.104531236,1.9715859,-3.7874057
214,1747638481.8404834,2.385932,1.2282119,0.98655146,0.3148154,2.3955138,-4.2956305
215,1747638481.8414876,2.385932,1.2282119,0.98655146,0.3148154,2.3955138,-4.2956305
216,1747638481.855636,2.6641493,1.216016,0.9067602,0.48486,2.7204847,-4.5002646
217,1747638481.8714693,3.1564035,1.1830568,0.7764478,1.0157627,3.6740935,-4.9999375
218,1747638481.8724806,3.1564035,1.1830568,0.7764478,1.0157627,3.6740935,-4.9999375
219,1747638481.8865898,3.5824957,0.9560924,0.32764107,1.3983058,3.8781166,-5.731198
220,1747638481.9021754,3.564446,0.8069983,0.078480184,1.2855281,4.088248,-6.11481
221,1747638481.9033513,3.564446,0.8069983,0.078480184,1.2855281,4.088248,-6.11481
222,1747638481.9172573,3.3579702,0.5309761,0.07015654,1.1260206,4.4181056,-6.3096704
223,1747638481.932196,3.2325363,0.17052823,0.3620638,1.4886348,5.1108065,-6.5210238
224,1747638481.9331963,3.2325363,0.17052823,0.3620638,1.4886348,5.1108065,-6.5210238
225,1747638481.9479234,3.14247,-0.013019053,0.3942608,2.0189266,4.9147243,-6.588217
226,1747638481.9637396,2.6919558,-0.51231647,0.19659685,3.6214843,3.788322,-6.69145
227,1747638481.964774,2.6919558,-0.51231647,0.19659685,3.6214843,3.788322,-6.69145
228,1747638481.979081,2.1060069,-0.81544393,-0.41328633,4.1903358,2.4236128,-6.319444
229,1747638481.9802551,2.1060069,-0.81544393,-0.41328633,4.1903358,2.4236128,-6.319444
230,1747638481.9946592,1.7279972,-0.8703556,-0.6685451,3.8732297,2.1713328,-6.027459
231,1747638482.0099187,1.4514871,-0.93014574,-0.7344636,3.3510318,2.0381682,-5.667059
232,1747638482.0110235,1.1966857,-0.90011346,-0.7190664,2.9154975,1.9599798,-5.370111
233,1747638482.025121,0.5043282,-0.8530071,-0.38913855,2.4874463,1.9050035,-5.03781
234,1747638482.0399091,0.5043282,-0.8530071,-0.38913855,1.8793479,1.774893,-4.306626
235,1747638482.0410006,0.5043282,-0.8530071,-0.38913855,1.8793479,1.774893,-4.306626
236,1747638482.0552435,0.072138354,-1.0221329,-0.17876044,1.9310409,0.97407234,-3.0959265
237,1747638482.0709116,-0.11921428,-1.0421644,-0.38447365,1.76909,0.06872032,-1.7208331
238,1747638482.0719872,-0.11921428,-1.0421644,-0.38447365,1.76909,0.06872032,-1.7208331
239,1747638482.086385,-0.106012285,-1.0116444,-0.47966215,1.00576,-0.2403684,-0.73431474
240,1747638482.1011236,-0.106012285,-1.0116444,-0.47966215,1.00576,-0.2403684,-0.73431474
241,1747638482.102034,-0.106012285,-1.0116444,-0.47966215,1.00576,-0.2403684,-0.73431474
242,1747638482.1164143,-0.332245,-0.8854785,-0.38889465,0.38208497,-0.24342263,-0.11728267
243,1747638482.132192,-0.443532,-0.7676058,-0.2619665,-0.2036412,-0.54945713,0.8674031
244,1747638482.1331944,-0.443532,-0.7676058,-0.2619665,-0.2036412,-0.54945713,0.8674031
245,1747638482.1479063,-0.3939864,-0.75321466,-0.21144526,-0.40178478,-0.6807893,1.3120999
246,1747638482.1626492,-0.248795,-0.73611003,-0.15311868,-0.68834853,-0.9196305,1.9889187
247,1747638482.1637473,-0.083084114,-0.7385492,-0.16729634,-0.68834853,-0.9196305,1.9889187
248,1747638482.1784365,-0.0086590415,-0.7463545,-0.19827376,-1.1824476,-1.2189457,2.697578
249,1747638482.1795387,-0.0086590415,-0.7463545,-0.19827376,-1.1824476,-1.2189457,2.697578
250,1747638482.1937869,0.044057447,-0.7549221,-0.22879384,-1.465957,-1.1774081,2.97307
251,1747638482.209198,0.18684018,-0.82715195,-0.23903833,-1.7121285,-1.1205993,3.1972508
252,1747638482.2101989,0.18684018,-0.82715195,-0.23903833,-1.7121285,-1.1205993,3.1972508
253,1747638482.224108,0.42990315,-0.96770895,-0.07966928,-2.391238,-1.0949438,3.9992933
254,1747638482.2388508,0.42990315,-0.96770895,-0.07966928,-2.5314274,-1.2800305,4.412226
255,1747638482.239947,0.42990315,-0.96770895,-0.07966928,-2.5314274,-1.2800305,4.412226
256,1747638482.2534926,0.802059,-1.0753372,-0.015000875,-2.548302,-1.7949747,5.1440973
257,1747638482.2688417,1.5727748,-1.1756479,-0.007927292,-2.1581998,-2.4766803,5.9950075
258,1747638482.2699132,1.5727748,-1.1756479,-0.007927292,-2.1581998,-2.4766803,5.9950075
259,1747638482.2845092,1.9190754,-1.138542,-0.10482319,-2.078484,-2.5041683,6.1678777
260,1747638482.3001745,2.3268735,-0.94185376,-0.15336262,-2.3769593,-2.3019779,6.529499
261,1747638482.3011782,2.3268735,-0.94185376,-0.15336262,-2.3769593,-2.3019779,6.529499
262,1747638482.3156576,3.121493,-0.52356714,0.13753851,-2.8772433,-2.2036314,7.1556177
263,1747638482.3312473,3.4983141,-0.22970851,0.28346166,-2.8772433,-2.2036314,7.1556177
264,1747638482.3322477,3.4983141,-0.22970851,0.28346166,-2.814326,-2.3862748,7.2319736
265,1747638482.3464599,3.930016,0.16269243,0.25565517,-2.652986,-2.7351449,7.216091
266,1747638482.3619874,4.1831098,0.43383628,0.37694272,-2.6747475,-2.6380203,6.8563023
267,1747638482.363046,4.1831098,0.43383628,0.37694272,-2.6747475,-2.6380203,6.8563023
268,1747638482.3766356,4.251681,0.7125416,0.6646729,-2.5644896,-2.6080887,6.485518
269,1747638482.3926997,4.1325884,1.0192972,0.9816731,-1.9893768,-2.707046,5.7268457
270,1747638482.393824,4.1325884,1.0192972,0.9816731,-1.9893768,-2.707046,5.7268457
271,1747638482.4083118,3.4292245,1.3321813,1.0478356,-0.6423059,-2.4357533,4.489193
272,1747638482.4093144,3.4292245,1.3321813,1.0478356,-0.6423059,-2.4357533,4.489193
273,1747638482.4253972,3.4292245,1.3321813,1.0478356,-0.6423059,-2.4357533,4.489193
274,1747638482.440909,2.614116,1.58183,0.60415107,0.29549736,-1.605612,3.564981
275,1747638482.4419622,2.614116,1.58183,0.60415107,0.29549736,-1.605612,3.564981
276,1747638482.4566648,1.8321801,1.5520722,0.3764549,0.2680856,-1.5054331,3.0860767
277,1747638482.4718852,1.5137163,1.483989,0.34910575,-0.22418094,-1.6917415,2.055501
278,1747638482.4728875,1.5137163,1.483989,0.34910575,-0.22418094,-1.6917415,2.055501
279,1747638482.4868124,1.0717393,1.3992889,0.46600276,-0.41484165,-1.62577,1.8191031
280,1747638482.5021803,0.8377014,1.3326691,0.5807046,-0.82609457,-1.2806413,1.2522368
281,1747638482.5032723,0.8377014,1.3326691,0.5807046,-0.82609457,-1.2806413,1.2522368
282,1747638482.5168965,0.64076906,1.2550733,0.7334879,-0.8977164,-1.1884034,0.94070476
283,1747638482.5321586,0.45039213,1.1457375,0.9973143,-0.6447493,-1.2110047,0.52288526
284,1747638482.5331607,0.45039213,1.1457375,0.9973143,-0.6447493,-1.2110047,0.52288526
285,1747638482.5479589,0.2839495,1.1242424,0.9956069,0.061848287,-0.9813261,-0.17531316
286,1747638482.5636778,0.22367159,1.1481768,0.90456504,0.13721156,-0.67101574,-0.40934402
287,1747638482.5647774,0.22367159,1.1481768,0.90456504,0.13721156,-0.67101574,-0.40934402
288,1747638482.5787184,0.33203158,1.2055277,0.89456433,-0.041003123,-0.24525517,-0.7697439
289,1747638482.5797765,0.33203158,1.2055277,0.89456433,-0.041003123,-0.24525517,-0.7697439
290,1747638482.5939927,0.6566237,1.2508961,1.0797886,-0.22418094,0.4010976,-1.5113125
291,1747638482.6003678,0.6566237,1.2508961,1.0797886,-0.22418094,0.4010976,-1.5113125
292,1747638482.6157992,0.7701059,1.2750744,1.1937587,-0.18058172,0.7737144,-1.8857619
293,1747638482.631265,0.9856063,1.3375475,1.2276936,0.04497363,1.1591591,-2.5442553
294,1747638482.631309,0.9856063,1.3375475,1.2276936,0.04497363,1.1591591,-2.5442553
295,1747638482.6467953,1.4575851,1.6091793,1.0922284,0.10483666,1.8384212,-3.3506498
296,1747638482.6554668,1.4575851,1.6091793,1.0922284,0.10483666,1.8384212,-3.3506498
297,1747638482.6710908,1.7736096,1.8986169,1.0819839,-0.19615832,2.2489104,-3.9028559
298,1747638482.672167,1.7736096,1.8986169,1.0819839,-0.19615832,2.2489104,-3.9028559
299,1747638482.6869178,3.497826,2.2087874,0.9018819,-1.2404017,4.3741245,-5.234503
300,1747638482.7021854,3.497826,2.2087874,0.9018819,-1.6142403,6.301424,-6.251029
301,1747638482.703278,3.497826,2.2087874,0.9018819,-1.6142403,6.301424,-6.251029
302,1747638482.717908,3.803606,1.7138804,1.6789393,-1.310191,6.9916816,-6.7103863
303,1747638482.732893,3.6544814,1.3019053,2.217294,1.480541,6.558591,-6.8716497
304,1747638482.7338972,3.6544814,1.3019053,2.217294,1.480541,6.558591,-6.8716497
305,1747638482.7481039,4.047157,0.16220458,1.1161627,4.8582973,4.4914074,-7.0500174
306,1747638482.7638185,3.9727318,-0.13747753,0.60293156,5.3330784,4.0503755,-7.2448773
307,1747638482.7648969,3.9727318,-0.13747753,0.60293156,5.3330784,4.0503755,-7.2448773
308,1747638482.779358,3.210096,-0.8552023,-0.66220325,4.4757543,3.4810658,-7.801359
309,1747638482.7803998,3.210096,-0.8552023,-0.66220325,4.4757543,3.4810658,-7.801359
310,1747638482.7945006,2.6661007,-1.0470427,-0.7844665,3.6918845,3.4297547,-7.638263
311,1747638482.810527,1.8070567,-1.1539392,-0.65244657,3.1928222,3.280097,-7.2528186
312,1747638482.8115947,1.8070567,-1.1539392,-0.65244657,2.7017775,2.8390653,-6.4898705
313,1747638482.825313,1.6469558,-1.1461035,-0.66147155,2.4376624,2.4144502,-5.883299
314,1747638482.8405302,1.4514871,-1.0824107,-0.5860708,1.3397408,1.4945142,-4.3231187
315,1747638482.841533,1.4514871,-1.0824107,-0.5860708,1.3397408,1.4945142,-4.3231187
316,1747638482.8557913,1.306753,-1.0499698,-0.44331855,1.0388222,1.2849935,-4.0048676
317,1747638482.8710618,0.907248,-0.9957898,-0.1972981,0.88305604,0.71873814,-3.398296
318,1747638482.8721204,0.907248,-0.9957898,-0.1972981,0.88305604,0.71873814,-3.398296
319,1747638482.8868613,0.5026208,-1.0653365,-0.113116354,0.7615738,0.37788537,-2.0684052
320,1747638482.9018002,0.41160935,-1.0711906,-0.056009363,0.74034685,0.3729986,-1.6224867
321,1747638482.9027982,0.41160935,-1.0711906,-0.056009363,0.74034685,0.3729986,-1.6224867
322,1747638482.9170341,0.2080609,-1.0658244,-0.07357136,0.95719767,0.12743801,-0.47836977
323,1747638482.932406,0.11848252,-1.0092052,-0.18583402,1.0014077,0.10048437,-0.025044737
324,1747638482.9334095,0.11848252,-1.0092052,-0.18583402,1.0014077,0.10048437,-0.025044737
325,1747638482.9482915,-0.005000292,-0.93990237,-0.42694563,0.9142093,0.111479625,0.40132666
326,1747638482.9492917,-0.005000292,-0.93990237,-0.42694563,0.9142093,0.111479625,0.40132666
327,1747638482.9634566,-0.017683959,-0.9269748,-0.47136897,0.49486265,0.12003148,1.0928057
328,1747638482.9785655,0.067503944,-0.9145046,-0.45770964,-0.26281703,-0.24708772,1.8026103
329,1747638482.9796014,0.067503944,-0.9145046,-0.45770964,-0.26281703,-0.24708772,1.8026103
330,1747638482.9937642,0.16388151,-0.9372194,-0.3808149,-0.56312484,-0.5360185,2.0524468
331,1747638483.0098317,0.21123183,-0.9713676,-0.26343,-1.0017895,-0.7650862,2.5021067
332,1747638483.010887,0.21123183,-0.9713676,-0.26343,-1.0017895,-0.7650862,2.5021067
333,1747638483.0251038,0.20171909,-1.0001804,-0.10555494,-1.2435323,-0.8170082,2.9663506
334,1747638483.0404773,0.20171909,-1.0001804,-0.10555494,-1.3974658,-1.0301939,3.5735328
335,1747638483.041556,0.32764107,-1.0477746,-0.112140685,-1.4921471,-1.289804,4.14101
336,1747638483.055826,0.69125986,-1.0541164,-0.061131615,-1.5494905,-1.4926053,4.5698247
337,1747638483.0707572,1.2716291,-1.0323772,0.022348866,-1.5688084,-2.3154166,5.6956925
338,1747638483.0718157,1.2716291,-1.0323772,0.022348866,-1.5688084,-2.3154166,5.6956925
339,1747638483.0862014,1.655249,-0.9755142,0.05137495,-1.5749933,-2.643518,6.0646443
340,1747638483.1009035,2.2126596,-0.72879255,0.019665781,-1.8585027,-2.818831,6.6437273
341,1747638483.1019034,2.2126596,-0.72879255,0.019665781,-1.8585027,-2.818831,6.6437273
342,1747638483.1165314,3.1502752,-0.13211136,0.12238518,-2.9513848,-2.4803452,7.3767443
343,1747638483.1318111,3.5514877,0.15025267,0.27711985,-3.4691544,-2.2744899,7.5825996
344,1747638483.132903,3.5514877,0.15025267,0.27711985,-3.4691544,-2.2744899,7.5825996
345,1747638483.1471066,3.8690062,0.32303715,0.5028647,-3.7770214,-2.1559854,7.558166
346,1747638483.162628,4.1877446,0.6383604,1.2818736,-3.568875,-2.074132,6.5411053
347,1747638483.1636894,4.1877446,0.6383604,1.2818736,-2.8741126,-2.209129,6.031048
348,1747638483.178212,3.9166005,0.9565802,1.6086304,-2.8741126,-2.209129,6.031048
349,1747638483.1933913,3.5688362,1.236749,1.6215886,-2.8741126,-2.209129,6.031048
350,1747638483.194051,3.5688362,1.236749,1.6215886,-2.8741126,-2.209129,6.031048
351,1747638483.2094617,3.3338225,1.6701889,1.0602753,-0.8067765,-2.5194395,5.417146
352,1747638483.2094617,3.3338225,1.6701889,1.0602753,-0.8067765,-2.5194395,5.417146
353,1747638483.2250717,3.1341767,1.7568097,1.0512503,-0.61985725,-2.1407142,4.680999
354,1747638483.2402701,2.577254,1.8244052,1.0156081,-0.14255647,-2.0955114,3.6590514
355,1747638483.2402701,2.577254,1.8244052,1.0156081,-0.14255647,-2.0955114,3.6590514
356,1747638483.2555227,2.340045,1.8354119,0.87627065,0.040010497,-1.7644323,2.5442553
357,1747638483.270727,1.6296377,1.7609563,0.49774244,-0.14072394,-1.3924264,2.0890977
358,1747638483.2718165,1.6296377,1.7609563,0.49774244,-0.14072394,-1.3924264,2.0890977
359,1747638483.286609,1.3592256,1.7016541,0.5235976,-0.27717194,-1.1682454,1.6578394
360,1747638483.3020835,0.91383386,1.5464622,0.5921992,-0.2858765,-0.9397885,0.96880376
361,1747638483.3031542,0.91383386,1.5464622,0.5921992,-0.2858765,-0.9397885,0.96880376
362,1747638483.31793,0.70909625,1.4605426,0.5763141,-0.17684028,-0.7534801,0.5326588
363,1747638483.3195088,0.70909625,1.4605426,0.5763141,-0.17684028,-0.7534801,0.5326588
364,1747638483.3333821,0.28199816,1.3546216,0.46502712,-0.10766183,-0.51097375,-0.012216945
365,1747638483.3487868,0.10262794,1.2680008,0.45234346,-0.23166382,-0.56900424,-0.66101307
366,1747638483.3497906,0.10262794,1.2680008,0.45234346,-0.23166382,-0.56900424,-0.66101307
367,1747638483.3645318,0.05625328,1.2499205,0.5155484,-0.3164189,-0.48592898,-0.9725452
368,1747638483.3794208,0.064820856,1.2252849,0.57728976,-0.38865158,-0.34115818,-1.2663627
369,1747638483.3804543,0.12631835,1.1935452,0.65906286,-0.43790114,-0.1615691,-1.5888901
370,1747638483.3953285,0.34349567,1.198942,0.8186758,-0.45347774,-0.019241689,-1.849111
371,1747638483.4114175,0.48237568,1.2079668,0.9194439,-0.43599224,0.62161344,-2.6493208
372,1747638483.412448,0.48237568,1.2079668,0.9194439,-0.43599224,0.62161344,-2.6493208
373,1747638483.4266977,0.6654047,1.2216262,0.9853319,-0.37437302,0.79753745,-2.8765562
374,1747638483.4414408,0.9728921,1.2201626,1.0056075,-0.13072132,1.2061943,-3.57422
375,1747638483.4425192,0.9728921,1.2201626,1.0056075,-0.13072132,1.2061943,-3.57422
376,1747638483.4575355,1.1493354,1.2594638,0.96679425,-0.034741938,1.4236559,-4.0207496
377,1747638483.4728622,1.5883853,1.473714,0.8735875,-0.08712209,1.9514279,-4.6804643
378,1747638483.473865,1.5883853,1.473714,0.8735875,-0.08712209,1.9514279,-4.6804643
379,1747638483.4887154,1.9488332,1.7233932,0.84257966,-0.36811182,2.8182964,-5.036588
380,1747638483.4897182,1.9488332,1.7233932,0.84257966,-0.36811182,2.8182964,-5.036588
381,1747638483.503664,2.3630037,1.895202,0.84672624,-0.8217423,3.864678,-5.1648664
382,1747638483.5193164,2.878674,1.8349241,1.0588118,-1.4248776,5.8805504,-5.624834
383,1747638483.5204427,2.878674,1.8349241,1.0588118,-1.4248776,5.8805504,-5.624834
384,1747638483.534459,2.8679419,1.7409552,1.1442132,-1.506502,6.81026,-5.920561
385,1747638483.5496845,2.7566547,1.4295651,2.0393872,-0.46157146,8.402815,-6.0085225
386,1747638483.550783,2.7566547,1.4295651,2.0393872,-0.46157146,8.402815,-6.0085225
387,1747638483.5656848,2.9972785,1.1076561,2.3176045,0.99392486,7.613524,-5.672557
388,1747638483.5808308,3.5566404,0.32450065,1.949809,4.0047145,5.558023,-5.2198424
389,1747638483.5818322,3.5566404,0.32450065,1.949809,4.0047145,5.558023,-5.2198424
390,1747638483.5956774,3.3487012,-0.40371257,0.45380697,6.375489,3.4034882,-5.7000446
391,1747638483.6108596,2.9628558,-0.65266,-0.25660032,6.21728,3.1328828,-5.795337
392,1747638483.6119306,2.9628558,-0.65266,-0.25660032,6.21728,3.1328828,-5.795337
393,1747638483.6255064,2.4755104,-0.81666344,-0.7308048,5.7997656,3.0632463,-5.723257
394,1747638483.6416204,1.3343462,-0.95478135,-1.153238,3.56605,2.9056478,-4.528363
395,1747638483.642731,1.3343462,-0.95478135,-1.153238,3.56605,2.9056478,-4.528363
396,1747638483.6576035,1.1754649,-1.0240841,-0.9331032,2.276246,2.3234339,-3.7880166
397,1747638483.6728823,0.99292374,-1.1515001,-0.363009,1.4107517,1.7095324,-3.1790018
398,1747638483.6738849,0.99292374,-1.1515001,-0.363009,1.4107517,1.7095324,-3.1790018
399,1747638483.68838,0.570704,-1.2339745,0.08238286,1.6232502,0.69613683,-2.1478152
400,1747638483.6893792,0.570704,-1.2339745,0.08238286,1.6232502,0.69613683,-2.1478152
401,1747638483.7036242,0.48627836,-1.3311143,-0.019635292,1.7348062,0.025961008,-1.6456989
402,1747638483.7197099,0.36523473,-1.4009049,-0.31712216,1.1871053,-0.6801784,-0.7929561
403,1747638483.7207105,0.36523473,-1.4009049,-0.31712216,1.1871053,-0.6801784,-0.7929561
404,1747638483.734884,0.31325,-1.3799281,-0.2531855,0.26121357,-0.7461499,-0.1227803
405,1747638483.7501066,0.31325,-1.3799281,-0.2531855,-0.17057909,-0.69728214,0.1795891
406,1747638483.7511132,0.31325,-1.3799281,-0.2531855,-0.6323033,-0.653912,0.5546493
407,1747638483.7653742,0.2388249,-1.3208698,-0.07601053,-0.91146046,-0.7302679,0.9126058
408,1747638483.7804446,0.12022042,-1.226413,-0.025245376,-1.1195303,-1.4474026,1.7922258
409,1747638483.7814453,0.12022042,-1.226413,-0.025245376,-1.1195303,-1.4474026,1.7922258
410,1747638483.7964337,0.13802634,-1.1985761,-0.049911447,-1.173743,-1.8493401,2.267465
411,1747638483.811073,0.26394835,-1.2039422,-0.056009363,-1.350736,-2.4241474,3.293154
412,1747638483.8121455,0.26394835,-1.2039422,-0.056009363,-1.350736,-2.4241474,3.293154
413,1747638483.8262308,0.7100719,-1.2190956,-0.12726352,-1.9862462,-2.7736282,4.75369
414,1747638483.8420112,0.7100719,-1.2190956,-0.12726352,-1.9862462,-2.7736282,4.75369
415,1747638483.8430605,0.7100719,-1.2190956,-0.12726352,-1.9862462,-2.7736282,4.75369
416,1747638483.8572183,1.6179298,-1.1195166,0.09067602,-2.7096422,-3.0094154,6.3633485
417,1747638483.8723357,2.1199102,-0.9752703,0.267851,-2.828681,-3.2054973,6.8831797
418,1747638483.8734167,2.1199102,-0.9752703,0.267851,-2.828681,-3.2054973,6.8831797
419,1747638483.8876534,2.7017431,-0.8286154,0.39060205,-2.7962296,-3.7375453,7.3883505
420,1747638483.9032965,3.333091,-0.4147193,0.3696252,-2.9432912,-4.1352067,7.6644535
421,1747638483.9043393,3.5839593,-0.10451829,0.35691106,-2.9432912,-4.1352067,7.6644535
422,1747638483.918993,3.8446147,0.33474514,0.54753196,-4.0748096,-3.6966186,8.102507
423,1747638483.9200397,3.8446147,0.33474514,0.54753196,-4.0748096,-3.6966186,8.102507
424,1747638483.934642,4.137467,0.64226305,0.98999685,-4.5682974,-3.2519217,8.275988
425,1747638483.9500434,4.622861,1.1083878,2.0833228,-3.8281033,-3.0814953,7.520904
426,1747638483.9511466,4.622861,1.1083878,2.0833228,-3.8281033,-3.0814953,7.520904
427,1747638483.9652023,3.8333638,1.7792807,2.0615835,-0.87221354,-3.6135433,5.5875726
428,1747638483.9808843,3.2696419,1.9200815,1.5220095,0.04497363,-3.5561237,5.112944
429,1747638483.981884,3.2696419,1.9200815,1.5220095,0.04497363,-3.5561237,5.112944
430,1747638483.9965298,2.9245608,2.0262463,1.1735137,0.4711923,-3.1975563,4.781789
431,1747638484.0119905,2.6431725,2.2163486,0.58119243,0.2836622,-3.0656133,4.608919
432,1747638484.0130596,2.6431725,2.2163486,0.58119243,0.2836622,-3.0656133,4.608919
433,1747638484.0267313,2.5003898,2.1372895,0.43502536,-0.3986542,-2.6062562,3.7873294
434,1747638484.0426826,1.7997391,1.9874331,0.6346407,-1.1108258,-1.8682764,2.4440763
435,1747638484.043825,1.7997391,1.9874331,0.6346407,-1.1108258,-1.8682764,2.4440763
436,1747638484.0578182,1.1012838,1.8124534,0.8581903,-1.0790616,-1.4974921,1.4892457
437,1747638484.0731332,0.65320885,1.7119291,0.96703815,-0.7799756,-1.4486243,1.0372187
438,1747638484.0741339,0.65320885,1.7119291,0.96703815,-0.7799756,-1.4486243,1.0372187
439,1747638484.089094,0.4782291,1.6862874,0.96898943,-0.33069745,-1.3117945,0.3695626
440,1747638484.0900962,0.36596647,1.6801896,0.9304506,-0.33069745,-1.3117945,0.3695626
441,1747638484.1045334,0.25541124,1.664091,0.88139284,-0.2702999,-0.8371662,-0.5925982
442,1747638484.1198866,-0.057960697,1.5715857,0.96655035,-0.36811182,-0.5207473,-0.937116
443,1747638484.1208863,-0.057960697,1.5715857,0.96655035,-0.36811182,-0.5207473,-0.937116
444,1747638484.135208,-0.059912033,1.5486574,1.1068939,-0.4130091,-0.21104772,-1.2358204
445,1747638484.1503947,0.10823802,1.4676162,1.3016309,-0.22853324,0.36322504,-1.745267
446,1747638484.1515021,0.10823802,1.4676162,1.3016309,-0.22853324,0.36322504,-1.745267
447,1747638484.1662366,0.4979864,1.3675493,1.4314555,0.12720895,0.69552594,-2.2522702
448,1747638484.1815686,0.7796187,1.3485239,1.2796783,0.71041536,1.2208546,-3.2248154
449,1747638484.1826394,0.7796187,1.3485239,1.2796783,0.71041536,1.2208546,-3.2248154
450,1747638484.1964397,1.0190228,1.3980694,1.0817399,0.8874084,1.7364097,-3.8539882
451,1747638484.2116818,1.403649,1.4478588,0.9917042,0.88305604,2.2727337,-4.2082796
452,1747638484.2126846,1.403649,1.4478588,0.9917042,0.88305604,2.2727337,-4.2082796
453,1747638484.2276387,1.7726339,1.4864283,0.96459895,0.93849045,2.6490154,-4.450175
454,1747638484.2432249,2.5101466,1.5701221,0.8911496,1.1851964,3.1982436,-4.922971
455,1747638484.2442875,2.5101466,1.5701221,0.8911496,1.1851964,3.1982436,-4.922971
456,1747638484.2588112,3.265465,1.6491816,0.487498,1.507342,3.5262685,-5.863141
457,1747638484.2598882,3.265465,1.6491816,0.487498,1.507342,3.5262685,-5.863141
458,1747638484.2741654,3.4743795,1.5791471,0.34813008,1.4170129,3.8652887,-6.175284
459,1747638484.2892425,3.7745495,1.1161932,0.3293485,1.350965,4.442539,-6.747648
460,1747638484.290244,3.7745495,1.1161932,0.3293485,1.350965,4.442539,-6.747648
461,1747638484.3053052,3.558348,0.4426173,0.5350922,1.6973919,4.4150515,-7.171576
462,1747638484.3200865,3.3094003,0.22983049,0.6351285,2.5385284,3.7528927,-7.3493323
463,1747638484.3210862,3.3094003,0.22983049,0.6351285,2.5385284,3.7528927,-7.3493323
464,1747638484.335303,2.8940408,-0.13162352,0.5014012,3.7784722,2.5256243,-7.0854464
465,1747638484.351418,2.670979,-0.30367625,0.26150915,4.2582927,1.8133764,-6.8130083
466,1747638484.3524306,2.670979,-0.30367625,0.26150915,4.2582927,1.8133764,-6.8130083
467,1747638484.3668966,2.5191712,-0.43374482,-0.10579886,4.395962,0.931313,-6.558285
468,1747638484.3818822,2.0637789,-0.58238155,-0.62976235,3.4420478,0.18180342,-6.3725877
469,1747638484.382979,2.0637789,-0.58238155,-0.62976235,3.4420478,0.18180342,-6.3725877
470,1747638484.397233,1.3675189,-0.7258655,-0.46673456,1.4619102,0.2966427,-5.975537
471,1747638484.4124115,1.1630253,-0.91990125,-0.248795,0.81639737,0.4206447,-5.6358294
472,1747638484.4134154,1.1630253,-0.91990125,-0.248795,0.81639737,0.4206447,-5.6358294
473,1747638484.4279118,0.8037664,-1.1639398,0.18510225,0.34528142,0.31252474,-4.9993267
474,1747638484.4431124,0.6148834,-1.2622688,0.28638867,0.74531,0.06139015,-3.5968213
475,1747638484.4442494,0.6148834,-1.2622688,0.28638867,0.74531,0.06139015,-3.5968213
476,1747638484.4587414,0.1768091,-1.2996185,0.44526988,0.74531,0.06139015,-3.5968213
477,1747638484.4598365,0.1768091,-1.2996185,0.44526988,0.74531,0.06139015,-3.5968213
478,1747638484.474066,-0.13653237,-1.2622688,0.22074458,1.0954782,-0.06383354,-2.3891
479,1747638484.4893496,-0.31468302,-1.3105948,-0.21976891,0.95719767,-0.4407263,-0.97804284
480,1747638484.4903498,-0.31468302,-1.3105948,-0.21976891,0.95719767,-0.4407263,-0.97804284
481,1747638484.5045555,-0.3795953,-1.3276994,-0.38889465,0.5621322,-0.60137916,-0.37880164
482,1747638484.5205693,-0.4337753,-1.3596525,-0.4674663,-0.3974325,-0.60137916,0.75683975
483,1747638484.521573,-0.4337753,-1.3596525,-0.4674663,-0.3974325,-0.60137916,0.75683975
484,1747638484.5364573,-0.408408,-1.3337973,-0.20388384,-1.4030398,-0.49997848,2.4752295
485,1747638484.5516338,-0.408408,-1.3337973,-0.20388384,-1.538877,-0.57999945,3.1996944
486,1747638484.5526347,-0.363009,-1.3298947,-0.15263085,-1.538877,-0.57999945,3.1996944
487,1747638484.5677223,-0.09771912,-1.3452613,-0.09284078,-1.6721944,-0.8090672,4.5221786
488,1747638484.5836072,0.24150799,-1.3501397,-0.029148044,-1.6124077,-1.1633586,5.328573
489,1747638484.5846486,0.24150799,-1.3501397,-0.029148044,-1.6124077,-1.1633586,5.328573
490,1747638484.5982754,0.5631426,-1.3264798,0.011586042,-1.4398433,-1.594006,5.8551235
491,1747638484.5993311,0.8718801,-1.2708364,-0.0594242,-1.4398433,-1.594006,5.8551235
492,1747638484.6141086,1.1259193,-1.2007713,-0.20876218,-1.1307546,-2.3398504,6.6828218
493,1747638484.6289446,1.6037521,-1.1453718,-0.4220673,-1.5351355,-2.385664,7.498914
494,1747638484.629948,1.6037521,-1.1453718,-0.4220673,-1.5351355,-2.385664,7.498914
495,1747638484.6444545,2.1440885,-1.0087174,-0.24098967,-2.0274022,-2.2042422,8.208183
496,1747638484.6599858,3.055605,-0.70708394,0.13363585,-2.0049534,-2.4607983,8.727404
497,1747638484.6619859,3.055605,-0.70708394,0.13363585,-2.0049534,-2.4607983,8.727404
498,1747638484.6751974,3.4341028,-0.47865596,0.20391434,-1.4629028,-2.8316588,8.572248
499,1747638484.6903574,4.1779575,0.42603093,-0.044301365,-1.5980527,-2.5438733,8.42137
500,1747638484.6914134,4.1779575,0.42603093,-0.044301365,-1.5980527,-2.5438733,8.42137
501,1747638484.7056653,4.3258624,0.7149807,0.032837283,-1.8815622,-2.2524993,8.161759
502,1747638484.7205486,4.2911954,1.1013142,0.4225856,-2.1494951,-1.9898349,7.4036217
503,1747638484.7215521,4.2911954,1.1013142,0.4225856,-2.1494951,-1.9898349,7.4036217
504,1747638484.7363648,3.6635063,1.4073381,0.8364817,-1.5071129,-1.9757855,6.466582
505,1747638484.751184,3.4777944,1.4595668,0.973136,-1.173743,-2.0051062,6.189257
506,1747638484.7530546,3.4777944,1.4595668,0.973136,-1.173743,-2.0051062,6.189257
507,1747638484.767232,2.8737957,1.5376507,0.94020736,-0.15500249,-1.6886872,4.9387765
508,1747638484.783394,2.4469416,1.6147894,0.9062724,0.21692713,-1.5072656,4.435438
509,1747638484.7843945,2.4469416,1.6147894,0.9062724,0.21692713,-1.5072656,4.435438
510,1747638484.7985349,1.8041297,1.7890373,0.74178106,0.48799062,-1.4883293,4.053659
511,1747638484.8133469,1.6423213,1.8839818,0.667356,0.7440883,-1.4241904,3.4195993
512,1747638484.8143497,1.6423213,1.8839818,0.667356,0.7440883,-1.4241904,3.4195993
513,1747638484.8290603,1.2674825,2.241015,0.5436293,0.7608866,-1.0729532,2.2943423
514,1747638484.8290603,1.2674825,2.241015,0.5436293,0.7608866,-1.0729532,2.2943423
515,1747638484.8443468,1.1444571,2.3747423,0.5192071,0.6762079,-1.0705098,1.6999879
516,1747638484.8597171,0.9987778,2.4389226,0.37694272,0.24067383,-0.8029587,0.7818845
517,1747638484.8607519,0.9987778,2.4389226,0.37694272,0.24067383,-0.8029587,0.7818845
518,1747638484.8748815,0.96508676,2.414775,0.49993768,-0.62795097,-0.22448637,-0.37696913
519,1747638484.8903234,0.9070041,2.2476006,0.84453094,-1.1581664,0.29419932,-1.5418549
520,1747638484.8914182,0.9070041,2.2476006,0.84453094,-1.1581664,0.29419932,-1.5418549
521,1747638484.9062772,0.8735875,2.18342,1.0043879,-1.1139563,0.7517239,-2.3420649
522,1747638484.9219675,1.3214185,2.0189288,1.4839281,-0.5195256,0.9606337,-2.8704476
523,1747638484.9230392,1.3214185,2.0189288,1.4839281,-0.5195256,0.9606337,-2.8704476
524,1747638484.9371345,1.763853,1.9576751,1.4614878,-0.016721943,1.1218973,-3.3109448
525,1747638484.9524534,2.5013654,2.0567663,1.2279375,0.5241069,1.6838769,-4.2033925
526,1747638484.9534552,2.5013654,2.0567663,1.2279375,0.5241069,1.6838769,-4.2033925
527,1747638484.967897,3.4228826,1.9210571,1.0707637,0.6145123,2.5335653,-5.257715
528,1747638484.9836934,3.4228826,1.9210571,1.0707637,0.6145123,2.5335653,-5.257715
529,1747638484.9846933,3.4228826,1.9210571,1.0707637,0.6145123,2.5335653,-5.257715
530,1747638484.998661,3.5119731,1.0344505,0.76132494,1.4382398,3.8274162,-7.2534294
531,1747638484.9997597,3.5119731,1.0344505,0.76132494,1.4382398,3.8274162,-7.2534294
532,1747638485.0142708,3.4712088,0.71644425,0.65784323,1.7846667,3.9367578,-7.415915
533,1747638485.0298011,3.4719405,-0.07549221,0.28126642,2.4351425,3.6148415,-7.56374
534,1747638485.0314257,3.4719405,-0.07549221,0.28126642,2.4351425,3.6148415,-7.56374
535,1747638485.04535,3.3743126,-0.2953831,0.12897095,3.1803763,2.956348,-7.843508
536,1747638485.060057,2.8230307,-0.7612639,-0.29760882,3.437085,2.0485528,-8.013324
537,1747638485.0610926,2.8230307,-0.7612639,-0.29760882,3.437085,2.0485528,-8.013324
538,1747638485.0752742,2.634605,-1.0035952,-0.45600224,3.215271,1.6704382,-7.930859
539,1747638485.091006,2.0994213,-1.235438,-0.6072915,2.1697295,1.27522,-7.655367
540,1747638485.0921376,2.0994213,-1.235438,-0.6072915,2.1697295,1.27522,-7.655367
541,1747638485.106251,1.2391577,-1.3547741,0.020641448,0.71171343,1.4786321,-6.768417
542,1747638485.1218061,0.9367925,-1.397978,0.33203158,0.64810896,1.5189481,-6.171008
543,1747638485.1228065,0.9367925,-1.397978,0.33203158,0.64810896,1.5189481,-6.171008
544,1747638485.1369207,0.520945,-1.5797873,0.5292077,0.8331957,1.3448566,-5.7574644
545,1747638485.152018,0.1636376,-1.5212169,0.5099383,1.5116943,0.6796439,-4.242487
546,1747638485.153018,0.1636376,-1.5212169,0.5099383,1.5116943,0.6796439,-4.242487
547,1747638485.1679575,0.030642033,-1.5224364,0.35691106,1.7447325,0.43347248,-3.3769164
548,1747638485.182612,0.053570196,-1.4467918,-0.20729868,1.4568707,0.14759597,-1.7642032
549,1747638485.1836894,0.053570196,-1.4467918,-0.20729868,1.4568707,0.14759597,-1.7642032
550,1747638485.1982222,-0.055033702,-1.3777328,-0.49893156,0.023212196,0.48722705,-0.46554196
551,1747638485.1993022,-0.055033702,-1.3777328,-0.49893156,0.023212196,0.48722705,-0.46554196
552,1747638485.213654,-0.18754143,-1.3401392,-0.42865306,-0.5905366,0.58251923,0.1692047
553,1747638485.2290385,-0.24952675,-1.3120582,-0.3044385,-0.90336674,0.5226562,0.67437536
554,1747638485.2300403,-0.24952675,-1.3120582,-0.3044385,-0.90336674,0.5226562,0.67437536
555,1747638485.2447124,-0.120189935,-1.3237967,-0.2016886,-1.1232717,-0.1927223,1.8013886
556,1747638485.260753,0.10555494,-1.3223332,-0.35520366,-1.2497935,-0.9507837,3.112343
557,1747638485.261753,0.10555494,-1.3223332,-0.35520366,-1.2497935,-0.9507837,3.112343
558,1747638485.276507,0.16095452,-1.3169366,-0.43938538,-1.3937243,-1.2311627,3.641337
559,1747638485.2913432,0.33593425,-1.3887091,-0.49356538,-1.7930658,-1.6190506,4.816607
560,1747638485.2925098,0.33593425,-1.3887091,-0.49356538,-1.7930658,-1.6190506,4.816607
561,1747638485.3062506,0.6366225,-1.4565483,-0.40792012,-1.9937291,-2.2427256,5.941864
562,1747638485.321515,1.2908984,-1.532437,-0.43475097,-1.9164569,-2.9862032,7.0352807
563,1747638485.3225157,1.2908984,-1.532437,-0.43475097,-1.9164569,-2.9862032,7.0352807
564,1747638485.3376186,2.2668395,-1.4889894,-0.5599717,-2.105896,-3.3044546,7.778147
565,1747638485.3528712,2.5965538,-1.3940753,-0.5780215,-2.3900163,-3.3612635,7.927194
566,1747638485.3533928,2.5965538,-1.3940753,-0.5780215,-2.3900163,-3.3612635,7.927194
567,1747638485.3683298,2.8352263,-1.2610493,-0.52140236,-2.7719486,-3.2372613,8.070132
568,1747638485.384285,3.2745204,-0.7605322,0.030154198,-3.2100024,-3.1401367,8.493449
569,1747638485.384285,3.9361138,-0.23754434,0.336666,-3.2100024,-3.1401367,8.493449
570,1747638485.3994534,4.398336,0.09899968,0.58976,-3.0810373,-3.1047075,8.717019
571,1747638485.399475,4.398336,0.09899968,0.58976,-3.0810373,-3.1047075,8.717019
572,1747638485.4155674,4.6387157,0.37892455,0.9494762,-2.73148,-2.7656872,8.154429
573,1747638485.4309297,4.339522,0.7491596,1.2103449,-1.7301486,-2.5903742,7.0114574
574,1747638485.432402,4.339522,0.7491596,1.2103449,-1.7301486,-2.5903742,7.0114574
575,1747638485.4468281,3.428005,1.3927032,0.92700535,-0.059099473,-2.537765,5.7787676
576,1747638485.4616852,3.1890886,1.7075082,0.8296521,0.20073968,-2.4345317,5.5551977
577,1747638485.4627757,3.1890886,1.7075082,0.8296521,0.20073968,-2.4345317,5.5551977
578,1747638485.4767962,3.1505194,1.9113005,0.70616925,-0.055358034,-2.0075495,4.960767
579,1747638485.4916837,3.144421,2.1536317,0.74836683,-0.49211383,-1.3081294,3.9858546
580,1747638485.4929078,3.144421,2.1536317,0.74836683,-0.49211383,-1.3081294,3.9858546
581,1747638485.5069396,2.673906,2.2851944,1.007071,-0.7718819,-0.7308788,2.9156504
582,1747638485.521593,2.0669804,2.3583996,1.4116982,-0.61107635,-0.44500223,1.6706673
583,1747638485.5225942,2.0669804,2.3583996,1.4116982,-0.61107635,-0.44500223,1.6706673
584,1747638485.53737,1.3938923,2.3825476,1.406332,0.21448374,-0.0943759,0.1887518
585,1747638485.553061,1.1832702,2.3508384,1.306997,0.51356983,0.23616882,-0.41361994
586,1747638485.554063,1.1832702,2.3508384,1.306997,0.51356983,0.23616882,-0.41361994
587,1747638485.5682163,0.98145974,2.2476006,1.1002777,0.9079481,0.41881216,-1.32928
588,1747638485.5835373,1.0914966,2.1136293,0.9021258,1.0027058,0.5531986,-2.0274785
589,1747638485.5845854,1.0914966,2.1136293,0.9021258,1.0027058,0.5531986,-2.0274785
590,1747638485.5982351,1.271873,2.0130749,0.80742514,0.934749,0.7364527,-2.5259297
591,1747638485.5993176,1.4705126,1.9188621,0.73251224,0.78020465,0.98140246,-3.0488913
592,1747638485.6134517,1.4705126,1.9188621,0.73251224,0.78020465,0.98140246,-3.0488913
593,1747638485.6281216,2.3698332,1.8241613,0.8887104,0.051234815,1.7327446,-4.249206
594,1747638485.6436493,2.9274879,1.7702557,1.0107297,-0.050318543,2.1462882,-4.6004434
595,1747638485.6437156,2.9274879,1.7702557,1.0107297,-0.050318543,2.1462882,-4.6004434
596,1747638485.6592402,3.9207473,1.3104422,1.252817,0.29984966,3.1194441,-5.8374853
597,1747638485.659308,3.9207473,1.3104422,1.252817,0.29984966,3.1194441,-5.8374853
598,1747638485.674802,4.06914,0.93316424,1.3643479,0.9509365,3.463962,-6.8496594
599,1747638485.6903925,3.8880317,0.5607339,1.1832702,1.9516569,3.4175377,-7.8319016
600,1747638485.6914916,3.8880317,0.5607339,1.1832702,1.9516569,3.4175377,-7.8319016
601,1747638485.705866,3.4385235,-0.50304765,0.09018819,2.8631938,2.6722276,-8.613863
602,1747638485.7212367,3.2664711,-1.0053025,-0.1516552,2.5055428,2.6697843,-8.736643
603,1747638485.7222393,3.2664711,-1.0053025,-0.1516552,2.5055428,2.6697843,-8.736643
604,1747638485.7365758,2.956514,-1.2874227,-0.24538018,2.108034,2.7247605,-8.769629
605,1747638485.7516491,2.2853773,-1.5021913,-0.19802985,1.2587271,3.1909134,-8.156873
606,1747638485.7527292,2.2853773,-1.5021913,-0.19802985,1.2587271,3.1909134,-8.156873
607,1747638485.766906,1.7043067,-1.6607982,0.22537899,1.1877161,3.1652577,-6.9321237
608,1747638485.7824738,1.5625302,-1.8008977,0.29321834,1.5553699,2.8702185,-6.47521
609,1747638485.7835066,1.5625302,-1.8008977,0.29321834,1.5553699,2.8702185,-6.47521
610,1747638485.7977183,1.4380717,-1.9126726,0.24784984,1.9167624,2.6123648,-6.199107
611,1747638485.812938,0.46676505,-2.2016222,-0.40401748,2.5260825,1.7797798,-4.974282
612,1747638485.8139446,0.46676505,-2.2016222,-0.40401748,2.5260825,1.7797798,-4.974282
613,1747638485.829052,-0.36764342,-2.0883842,-0.85038495,1.9335606,1.5360518,-3.4007394
614,1747638485.8300521,-0.36764342,-2.0883842,-0.85038495,1.9335606,1.5360518,-3.4007394
615,1747638485.8445652,-0.7063827,-2.0002692,-0.97118473,1.3677634,1.366847,-2.261433
616,1747638485.859475,-0.8703861,-1.9629498,-1.0702454,0.23693238,0.70346695,0.12155861
617,1747638485.8605094,-0.8703861,-1.9629498,-1.0702454,0.23693238,0.70346695,0.12155861
618,1747638485.8747368,-0.82962155,-1.971487,-1.090277,-0.404839,0.22883865,1.4965758
619,1747638485.8895442,-0.5775337,-1.9190145,-1.030487,-1.2622395,-0.7864658,3.1905315
620,1747638485.89063,-0.5775337,-1.9190145,-1.030487,-1.2622395,-0.7864658,3.1905315
621,1747638485.9045277,0.038691282,-1.7935802,-0.7620262,-1.7538189,-1.3508887,4.028614
622,1747638485.9199286,0.2739489,-1.7525718,-0.5355495,-2.475993,-1.7882553,5.3603373
623,1747638485.9209292,0.2739489,-1.7525718,-0.5355495,-2.475993,-1.7882553,5.3603373
624,1747638485.9355447,0.49018103,-1.7166854,-0.30492634,-2.434837,-1.9562384,5.8471828
625,1747638485.95077,0.97926444,-1.6927818,-0.20656694,-1.7713044,-2.5604427,7.1824946
626,1747638485.9518702,0.97926444,-1.6927818,-0.20656694,-1.7713044,-2.5604427,7.1824946
627,1747638485.9663725,1.8509921,-1.6456753,-0.24391668,-1.3856306,-3.3478248,8.196578
628,1747638485.9816594,2.4284039,-1.5165824,-0.31151208,-1.3389008,-3.603159,8.289427
629,1747638485.9827418,2.4284039,-1.5165824,-0.31151208,-1.3389008,-3.603159,8.289427
630,1747638485.997089,3.161526,-1.1834532,-0.33861732,-1.3718866,-3.590331,8.243002
631,1747638486.0122194,3.2937899,-0.57969844,-0.1211656,-1.6585267,-3.0081937,8.0402
632,1747638486.0132196,3.2937899,-0.57969844,-0.1211656,-1.6585267,-3.0081937,8.0402
633,1747638486.0282428,3.4663305,-0.45228252,-0.013537374,-1.6934214,-2.874418,8.228342
634,1747638486.0437,4.03862,-0.2514476,0.09555435,-1.5800328,-2.6795578,7.9412436
635,1747638486.0447686,4.03862,-0.2514476,0.09555435,-1.5800328,-2.6795578,7.9412436
636,1747638486.0587418,4.050572,0.17052823,0.41035932,-1.2161205,-2.405822,7.365138
637,1747638486.0598161,4.050572,0.17052823,0.41035932,-1.2161205,-2.405822,7.365138
638,1747638486.0739875,4.1020684,0.4899676,0.39035815,-0.8709155,-2.4962273,7.05666
639,1747638486.0894928,4.172835,0.6161335,0.34325173,-0.7569161,-2.4766803,6.7353544
640,1747638486.0904946,4.136247,0.8923996,0.3217871,-0.68834853,-2.385664,6.1312265
641,1747638486.1050324,3.4763308,1.1840324,0.39621213,-0.7476007,-1.8499509,4.721315
642,1747638486.1201706,3.1705508,1.2540975,0.5402144,-0.7476007,-1.8499509,4.721315
643,1747638486.1217263,3.1705508,1.2540975,0.5402144,-0.57931226,-1.798029,4.120852
644,1747638486.134893,2.9252927,1.2872702,0.5365557,-0.39491275,-1.7919204,3.676155
645,1747638486.150658,2.148479,1.4585912,0.42453694,-0.15935478,-1.4889402,2.5479202
646,1747638486.1517644,2.148479,1.4585912,0.42453694,-0.15935478,-1.4889402,2.5479202
647,1747638486.1659164,2.0184104,1.4734701,0.40865192,-0.21295662,-1.4009782,2.2778494
648,1747638486.1808133,1.7065021,1.3861175,0.5599717,-0.29771167,-1.1248752,1.359746
649,1747638486.181814,1.7065021,1.3861175,0.5599717,-0.29771167,-1.1248752,1.359746
650,1747638486.1965785,1.1320173,1.3475481,0.8189197,0.15530792,-1.1089932,0.40926766
651,1747638486.212265,0.95191526,1.3912396,0.796205,0.3503209,-1.0766183,0.11361759
652,1747638486.213341,0.95191526,1.3912396,0.796205,0.3503209,-1.0766183,0.11361759
653,1747638486.2274945,0.85599506,1.4571277,0.76156884,0.33970743,-0.6221479,-0.27976805
654,1747638486.242747,0.9243527,1.4888673,0.9077358,0.3129065,-0.361927,-0.60909104
655,1747638486.2438662,1.0104858,1.5049659,1.0395119,0.3129065,-0.361927,-0.60909104
656,1747638486.2575493,1.0104858,1.5049659,1.0395119,0.4942518,-0.0943759,-1.2010021
657,1747638486.2727401,1.2259862,1.4895991,1.1078695,0.92169213,0.21478917,-2.000601
658,1747638486.2737434,1.2259862,1.4895991,1.1078695,0.92169213,0.21478917,-2.000601
659,1747638486.2884967,1.4800254,1.3927032,0.8630686,1.0282086,0.7346202,-3.0617192
660,1747638486.2895007,1.4800254,1.3927032,0.8630686,1.0282086,0.7346202,-3.0617192
661,1747638486.304353,1.6096367,1.3563292,0.80669343,0.8767949,0.89588386,-3.5247414
662,1747638486.3196318,1.7587308,1.3592561,0.7735207,0.4892123,1.2074159,-4.125815
663,1747638486.320632,1.7587308,1.3592561,0.7735207,0.4892123,1.2074159,-4.125815
664,1747638486.335733,2.9206278,1.3182782,1.0790569,0.5260158,1.8121548,-4.74216
665,1747638486.3512652,3.3191571,1.1713488,1.0800325,0.75218207,2.0381682,-5.1593685
666,1747638486.35245,3.3191571,1.1713488,1.0800325,0.75218207,2.0381682,-5.1593685
667,1747638486.3669586,3.6249673,0.93974996,0.985088,1.1260206,2.2647927,-5.951103
668,1747638486.3818216,3.6322849,0.46923468,0.51749974,1.4382398,2.5415063,-7.2344933
669,1747638486.3828738,3.6322849,0.46923468,0.51749974,1.4382398,2.5415063,-7.2344933
670,1747638486.3977416,3.4070282,0.029209021,0.08116327,0.9035958,2.9703975,-7.820296
671,1747638486.4137495,3.4755993,-0.26779002,-0.0030489585,0.64131325,3.1512084,-7.970564
672,1747638486.4153275,3.4755993,-0.26779002,-0.0030489585,0.64131325,3.1512084,-7.970564
673,1747638486.429322,3.2435126,-0.7441593,-0.04600878,0.35276428,3.4053206,-8.319358
674,1747638486.4303262,3.2435126,-0.7441593,-0.04600878,0.35276428,3.4053206,-8.319358
675,1747638486.4447055,2.933586,-1.0460671,0.059912033,0.39078954,3.6954732,-8.172754
676,1747638486.4603648,2.7063775,-1.3252603,0.21976891,0.940323,3.7315133,-7.839232
677,1747638486.461365,2.7063775,-1.3252603,0.21976891,0.940323,3.7315133,-7.839232
678,1747638486.4754744,2.305165,-1.5941783,0.022348866,1.3322579,3.5916293,-7.735388
679,1747638486.490588,1.9180996,-1.7479373,-0.3061459,2.2843397,2.6123648,-7.2412124
680,1747638486.491626,1.9180996,-1.7479373,-0.3061459,2.2843397,2.6123648,-7.2412124
681,1747638486.506353,1.5949712,-1.8514189,-0.5260368,2.165988,2.3344293,-6.762919
682,1747638486.5216413,0.91724867,-1.8497117,-0.7100414,1.6076736,2.338705,-5.647512
683,1747638486.5216413,0.91724867,-1.8497117,-0.7100414,1.6076736,2.338705,-5.647512
684,1747638486.5367794,0.41551206,-1.7872385,-0.7918145,1.0879953,2.3826861,-4.6096063
685,1747638486.5527859,-0.2531855,-1.6737561,-0.75446475,0.4182013,2.107194,-2.7440023
686,1747638486.5527859,-0.2531855,-1.6737561,-0.75446475,0.4182013,2.107194,-2.7440023
687,1747638486.5679896,-0.5758263,-1.6644872,-0.6905281,0.35841462,1.0705862,-0.7385907
688,1747638486.5835626,-0.50795645,-1.6852202,-0.82669455,0.36085802,0.2606027,0.4459185
689,1747638486.584648,-0.50795645,-1.6852202,-0.82669455,0.36085802,0.2606027,0.4459185
690,1747638486.5940044,-0.43231183,-1.6837567,-0.9716726,0.18890451,-0.3075616,1.2522368
691,1747638486.609615,-0.23586741,-1.6718048,-1.1322612,-0.5276193,-0.9856021,2.5393684
692,1747638486.6106682,-0.23586741,-1.6718048,-1.1322612,-0.5276193,-0.9856021,2.5393684
693,1747638486.625014,-0.10552445,-1.6576272,-1.1332369,-1.9769309,-1.565907,4.137345
694,1747638486.6403327,0.1783031,-1.7054653,-0.7534891,-2.2753296,-1.761378,4.6425157
695,1747638486.641335,0.1783031,-1.7054653,-0.7534891,-2.2753296,-1.761378,4.6425157
696,1747638486.6556451,0.47578993,-1.7323266,-0.408408,-2.49722,-1.9739529,5.366446
697,1747638486.6710284,0.99243593,-1.7040019,-0.12775135,-2.037939,-3.0356817,6.904559
698,1747638486.6720114,0.99243593,-1.7040019,-0.12775135,-2.037939,-3.0356817,6.904559
699,1747638486.6862621,1.4014537,-1.6376262,-0.13628843,-1.5999616,-3.482211,7.4195037
700,1747638486.7016597,2.3129702,-1.4160277,-0.24684367,-1.2161205,-3.7131114,7.8245716
701,1747638486.7026944,2.3129702,-1.4160277,-0.24684367,-1.2161205,-3.7131114,7.8245716
702,1747638486.7176135,2.9343176,-0.6687586,-0.22513509,-1.682197,-3.5542912,7.5984817
703,1747638486.732343,3.1073458,-0.29635876,-0.07796186,-2.0747428,-3.3123956,7.7041583
704,1747638486.7333467,3.1073458,-0.29635876,-0.07796186,-2.0747428,-3.3123956,7.7041583
705,1747638486.7475955,3.2610745,-0.05424097,0.08848077,-2.365735,-2.9941442,7.8319016
706,1747638486.7631907,3.7931178,0.39822447,0.74739116,-2.4853084,-2.2109616,7.59726
707,1747638486.7642584,3.9890742,0.82797515,1.1576285,-2.4853084,-2.2109616,7.59726
708,1747638486.7786767,3.9890742,0.82797515,1.1576285,-1.8610225,-2.2671597,6.8263707
709,1747638486.7797441,3.9890742,0.82797515,1.1576285,-1.8610225,-2.2671597,6.8263707
710,1747638486.7939138,3.3984911,1.4502981,1.2840688,-0.5974086,-2.0307617,5.7781568
711,1747638486.8090081,3.4187362,1.8253809,1.0336579,0.22257747,-2.2280655,4.74697
712,1747638486.8100088,3.4187362,1.8253809,1.0336579,0.22257747,-2.2280655,4.74697
713,1747638486.82512,2.9994738,2.3195868,0.75397694,0.08674031,-1.6673076,3.7500677
714,1747638486.8404872,2.7236955,2.4970055,0.8328229,-0.37620556,-0.9709417,2.5631914
715,1747638486.84149,2.7236955,2.4970055,0.8328229,-0.37620556,-0.9709417,2.5631914
716,1747638486.8563216,2.2563512,2.6329587,1.2462312,-0.5132644,-0.1835596,0.9309312
717,1747638486.8721833,2.1013725,2.634178,1.3946241,-0.23288552,-0.0015271181,0.19974706
718,1747638486.8731878,2.1013725,2.634178,1.3946241,-0.23288552,-0.0015271181,0.19974706
719,1747638486.8875213,1.946394,2.5739002,1.3650796,0.21944688,0.053449135,-0.53884363
720,1747638486.9034576,1.9444426,2.4491673,1.1671717,0.9995752,0.10659285,-1.8509436
721,1747638486.9045458,1.8853844,2.246381,0.8257494,0.9995752,0.10659285,-1.8509436
722,1747638486.9191155,1.8853844,2.246381,0.8257494,1.2805649,0.29053423,-2.7421696
723,1747638486.9201503,1.8853844,2.246381,0.8257494,1.2805649,0.29053423,-2.7421696
724,1747638486.9351647,1.9473698,1.8961776,0.519695,1.1971079,0.6625402,-3.9120185
725,1747638486.951087,2.1714072,1.661652,0.3793819,0.8543463,0.82197136,-4.703066
726,1747638486.9521801,2.1714072,1.661652,0.3793819,0.8543463,0.82197136,-4.703066
727,1747638486.9659464,2.371785,1.5679269,0.37182048,0.6843016,0.99789536,-4.945572
728,1747638486.981286,2.8796496,0.6012546,0.4189269,0.59145284,1.6001908,-6.536295
729,1747638486.9822867,2.8796496,0.6012546,0.4189269,0.59145284,1.6001908,-6.536295
730,1747638486.9965618,2.7200367,0.36819223,0.38011363,0.8899281,1.5678159,-7.378042
731,1747638487.0124521,2.3366303,-0.2119026,0.13241626,0.9210813,1.5745351,-7.4372945
732,1747638487.0134563,2.3366303,-0.2119026,0.13241626,0.9210813,1.5745351,-7.4372945
733,1747638487.0275853,2.2500093,-0.46865538,0.064302534,0.9453625,1.5207806,-7.4605064
734,1747638487.0435047,1.9905735,-0.70440084,-0.099457026,0.77463067,1.603245,-7.292524
735,1747638487.04457,1.9905735,-0.70440084,-0.099457026,0.77463067,1.603245,-7.292524
736,1747638487.0584085,1.8756276,-0.8859663,-0.043081783,0.34902287,1.8726286,-6.646858
737,1747638487.0595021,1.8756276,-0.8859663,-0.043081783,0.34902287,1.8726286,-6.646858
738,1747638487.074115,1.8158376,-0.91328496,0.04381353,0.3639886,1.9098903,-6.4177904
739,1747638487.0892205,1.608173,-1.0209132,0.12604393,0.7596649,1.483519,-6.1649
740,1747638487.0902247,1.608173,-1.0209132,0.12604393,0.7596649,1.483519,-6.1649
741,1747638487.1045818,1.3885261,-1.1295171,-0.01695221,1.2113864,0.8574005,-5.644458
742,1747638487.1196258,0.878222,-1.2698606,-0.32322007,1.2113864,0.8574005,-5.644458
743,1747638487.1208076,0.878222,-1.2698606,-0.32322007,1.1216683,0.7608866,-5.192965
744,1747638487.1349425,0.28590083,-1.2429993,-0.40645662,0.5066978,0.86045474,-3.7550309
745,1747638487.1502855,0.08433419,-1.2088511,-0.3942608,0.28862533,0.82441473,-3.0495021
746,1747638487.1513932,0.08433419,-1.2088511,-0.3942608,0.28862533,0.82441473,-3.0495021
747,1747638487.1654813,-0.12336086,-1.1819898,-0.41377413,0.15278818,0.7523348,-2.3988736
748,1747638487.1814907,-0.41572547,-1.2888862,-0.38645548,0.1253764,0.3558949,-1.1441933
749,1747638487.1824937,-0.41572547,-1.2888862,-0.38645548,0.1253764,0.3558949,-1.1441933
750,1747638487.1974976,-0.49698022,-1.4031001,-0.5467697,0.10728005,-1.0534061,0.7947123
751,1747638487.2135775,-0.44084892,-1.4148082,-0.7317805,-0.14194563,-1.3899829,1.5393351
752,1747638487.2154064,-0.44084892,-1.4148082,-0.7317805,-0.14194563,-1.3899829,1.5393351
753,1747638487.2289648,-0.35398406,-1.375751,-0.83791476,-0.87221354,-1.377766,2.6523752
754,1747638487.2299645,-0.35398406,-1.375751,-0.83791476,-0.87221354,-1.377766,2.6523752
755,1747638487.245044,-0.21559185,-1.3562376,-0.6773566,-1.682197,-1.353943,3.7506785
756,1747638487.2602222,0.0035367915,-1.4089541,-0.5299394,-2.059777,-1.5274236,4.419556
757,1747638487.2612243,0.0035367915,-1.4089541,-0.5299394,-2.2634945,-1.7125103,5.0096345
758,1747638487.275515,0.4425868,-1.4611828,-0.26904008,-2.2977784,-1.8505617,5.422033
759,1747638487.291286,1.0270721,-1.4514261,-0.042837866,-1.9146243,-2.4082654,6.389615
760,1747638487.2923973,1.0270721,-1.4514261,-0.042837866,-1.9146243,-2.4082654,6.389615
761,1747638487.3060818,1.4673417,-1.3657504,-0.059180282,-1.4067812,-3.0136914,6.9357123
762,1747638487.3214092,1.9095627,-1.2517803,-0.22489117,-1.0765419,-3.2879617,7.4146166
763,1747638487.3224118,1.9095627,-1.2517803,-0.22489117,-1.0765419,-3.2879617,7.4146166
764,1747638487.336575,2.5138054,-0.93063354,-0.30126756,-1.3226371,-2.8249395,8.031038
765,1747638487.3521428,2.8078773,-0.7802894,-0.17339426,-1.4790903,-2.6490154,8.272934
766,1747638487.3531456,2.8078773,-0.7802894,-0.17339426,-1.4790903,-2.6490154,8.272934
767,1747638487.3680408,3.6886604,-0.52015233,-0.023050126,-1.5494905,-2.7101002,8.175809
768,1747638487.3829217,3.9578528,0.041404855,0.09994486,-1.5563625,-2.5499818,7.4427156
769,1747638487.3839586,3.9578528,0.041404855,0.09994486,-1.5956094,-2.4155955,7.1189666
770,1747638487.3981552,3.8955932,0.48923588,0.22611076,-1.5956094,-2.4155955,7.1189666
771,1747638487.399165,3.8955932,0.48923588,0.22611076,-1.5956094,-2.4155955,7.1189666
772,1747638487.413347,3.830437,0.7828201,0.49335194,-1.4609939,-1.9464648,6.510563
773,1747638487.429236,3.3914173,1.1305842,0.7559283,-0.77623415,-1.6801354,5.494724
774,1747638487.4302368,3.3914173,1.1305842,0.7559283,-0.77623415,-1.6801354,5.494724
775,1747638487.444631,3.2461956,1.2301632,0.7671789,-0.38491014,-1.7308357,5.023073
776,1747638487.45969,3.1737218,1.3236443,0.6834545,0.12720895,-1.7149537,3.8991144
777,1747638487.460726,2.9797165,1.4434683,0.5838755,0.12720895,-1.7149537,3.8991144
778,1747638487.475641,2.9797165,1.4434683,0.5838755,0.12720895,-1.7149537,3.8991144
779,1747638487.4907746,2.0786884,1.5952455,0.40816402,-0.07398888,-1.0601255,2.203326
780,1747638487.49285,2.0786884,1.5952455,0.40816402,-0.07398888,-1.0601255,2.203326
781,1747638487.506416,1.8507483,1.5462183,0.47432646,-0.1525591,-0.87442786,1.7567967
782,1747638487.5215864,1.369714,1.4852085,0.58631474,-0.067193195,-0.5787778,0.95719767
783,1747638487.5226834,1.369714,1.4852085,0.58631474,-0.067193195,-0.5787778,0.95719767
784,1747638487.5365703,1.14153,1.51643,0.6212253,0.053678203,-0.5201364,0.55281675
785,1747638487.5522087,1.0212182,1.5964651,0.58631474,0.15339902,-0.41323817,-0.09834641
786,1747638487.5527503,1.0212182,1.5964651,0.58631474,0.15339902,-0.41323817,-0.09834641
787,1747638487.5676713,1.0429572,1.6125941,0.6700391,0.12911785,-0.017409148,-0.9261208
788,1747638487.5833352,1.0178033,1.609911,0.8230663,0.23876493,0.17141901,-1.4374
789,1747638487.5834072,1.0178033,1.609911,0.8230663,0.23876493,0.17141901,-1.4374
790,1747638487.5984938,1.2169613,1.5423156,0.8494093,0.5266267,0.4145362,-2.1172729
791,1747638487.61373,1.3253212,1.507161,0.8245299,0.6132143,0.5892385,-2.448963
792,1747638487.6142848,1.3253212,1.507161,0.8245299,0.68865395,0.97712654,-3.1276908
793,1747638487.6296651,1.6130515,1.3653541,0.8113278,0.7391252,1.1945882,-3.5442884
794,1747638487.6296651,1.6130515,1.3653541,0.8113278,0.7391252,1.1945882,-3.5442884
795,1747638487.6452613,1.7355586,1.264586,0.7891314,0.80326414,1.427321,-3.9437826
796,1747638487.661244,2.0496316,1.1584213,0.82843244,0.9590302,1.7846667,-4.474609
797,1747638487.6622446,2.0496316,1.1584213,0.82843244,0.9590302,1.7846667,-4.474609
798,1747638487.676261,2.4271843,1.1142418,0.8316034,1.143506,1.9679208,-4.7965255
799,1747638487.6920931,3.333335,1.3104422,0.8520924,1.392121,2.4364407,-5.089732
800,1747638487.693301,3.333335,1.3104422,0.8520924,1.392121,2.4364407,-5.089732
801,1747638487.707207,4.262657,0.81431586,0.49579114,1.2438377,3.4095967,-5.990808
802,1747638487.7229166,4.3292766,0.11122601,0.08579769,0.7621847,4.982528,-7.1318707
803,1747638487.724002,4.3292766,0.11122601,0.08579769,0.7621847,4.982528,-7.1318707
804,1747638487.7383368,3.51612,-0.3632224,0.228306,0.42881477,6.0619717,-7.731723
805,1747638487.7394044,3.51612,-0.3632224,0.228306,0.35841462,6.5274377,-7.886267
806,1747638487.7533717,3.2139986,-0.6653437,0.4735947,0.6057314,6.416874,-7.804414
807,1747638487.7685823,3.0065472,-1.3777328,0.41450587,2.1815646,4.5622654,-7.5423603
808,1747638487.7696538,3.0065472,-1.3777328,0.41450587,2.1815646,4.5622654,-7.5423603
809,1747638487.7844787,2.7300375,-1.5856413,0.19464551,2.7366722,3.9117131,-7.546636
810,1747638487.7994258,2.0362163,-1.6749758,-0.30980465,3.0538545,2.9758952,-7.3163466
811,1747638487.8004694,2.0362163,-1.6749758,-0.30980465,3.0538545,2.9758952,-7.3163466
812,1747638487.8146229,1.5095698,-1.7213504,-0.6683012,2.4631653,2.804858,-6.726879
813,1747638487.8304157,1.2150099,-1.6879033,-0.6871133,1.3690615,2.5134075,-5.608952
814,1747638487.8314962,1.2150099,-1.6879033,-0.6871133,1.3690615,2.5134075,-5.608952
815,1747638487.8454618,0.6524771,-1.7494009,-0.41523767,0.74905145,1.9783052,-4.5106487
816,1747638487.8615515,0.3264215,-1.6881473,-0.21266484,0.82388026,1.4077739,-3.6597385
817,1747638487.8625793,0.3264215,-1.6881473,-0.21266484,0.82388026,1.4077739,-3.6597385
818,1747638487.8772426,-0.002561125,-1.6627495,-0.28297383,1.0575293,0.82441473,-2.669479
819,1747638487.8925214,-0.2619665,-1.566128,-0.4991755,1.1677872,0.2563268,-1.4007491
820,1747638487.893791,-0.2619665,-1.566128,-0.4991755,1.1677872,0.2563268,-1.4007491
821,1747638487.907859,-0.3073655,-1.5036548,-0.8062056,0.54472303,-0.5445703,0.703696
822,1747638487.9232812,-0.23318435,-1.5007278,-0.82840204,0.11476293,-0.74920416,1.4110571
823,1747638487.9243464,-0.23318435,-1.5007278,-0.82840204,0.11476293,-0.74920416,1.4110571
824,1747638487.9384837,-0.10503662,-1.4606949,-0.78568614,-0.6615476,-1.0949438,2.4367461
825,1747638487.9395525,-0.10503662,-1.4606949,-0.78568614,-0.6615476,-1.0949438,2.4367461
826,1747638487.9544206,-0.0843037,-1.4311506,-0.7659288,-1.1089932,-1.3655491,2.9901736
827,1747638487.969312,0.048204035,-1.4194425,-0.69101596,-1.7064781,-1.681357,3.7121952
828,1747638487.9703016,0.048204035,-1.4194425,-0.69101596,-2.1090264,-1.9647902,4.2668443
829,1747638487.9854274,0.38035756,-1.5941783,-0.38621157,-2.3819225,-2.2647161,4.867307
830,1747638488.0013762,0.8940765,-1.8462967,0.005000292,-2.4211695,-2.7381992,6.610131
831,1747638488.002382,0.8940765,-1.8462967,0.005000292,-2.4211695,-2.7381992,6.610131
832,1747638488.0165763,1.325809,-1.9126726,0.18071176,-2.078484,-3.1694574,7.374912
833,1747638488.0320673,2.27684,-1.791141,0.12897095,-1.2366602,-4.0814524,8.084182
834,1747638488.0330698,2.27684,-1.791141,0.12897095,-1.2366602,-4.0814524,8.084182
835,1747638488.0474288,3.164453,-1.09171,-0.3634968,-1.538877,-3.7418213,8.060359
836,1747638488.0625937,3.164453,-1.09171,-0.3634968,-1.538877,-3.7418213,8.060359
837,1747638488.0636265,3.164453,-1.09171,-0.3634968,-1.538877,-3.7418213,8.060359
838,1747638488.0778985,3.4895024,-0.35151443,0.35130098,-2.6161826,-2.59465,8.19841
839,1747638488.0937726,4.2084775,0.06753443,0.870874,-2.6940656,-2.7919538,8.426256
840,1747638488.094951,4.2084775,0.06753443,0.870874,-2.6940656,-2.7919538,8.426256
841,1747638488.1085637,4.2084775,0.06753443,0.870874,-2.5183706,-2.6667302,8.259495
842,1747638488.1095665,4.2084775,0.06753443,0.870874,-2.5183706,-2.6667302,8.259495
843,1747638488.1237311,4.2772923,0.645434,1.213272,-1.6447825,-2.5983152,7.1379027
844,1747638488.139621,3.5378282,1.3341328,1.1417739,-0.21417832,-2.3001454,5.687752
845,1747638488.14069,3.5378282,1.3341328,1.1417739,-0.21417832,-2.3001454,5.687752
846,1747638488.1556537,3.40093,1.3992889,0.989509,0.14904673,-2.145601,5.163645
847,1747638488.1710386,2.987522,1.6809212,0.73373187,0.4400391,-1.7485503,4.1153545
848,1747638488.172049,2.987522,1.6809212,0.73373187,0.4400391,-1.7485503,4.1153545
849,1747638488.1863291,2.4552348,1.8654137,0.58878434,0.31977853,-1.3240114,2.6187785
850,1747638488.2015626,2.185097,1.9627974,0.5458245,0.16645588,-1.1847383,1.9913621
851,1747638488.2026565,2.185097,1.9627974,0.5458245,0.16645588,-1.1847383,1.9913621
852,1747638488.2166703,1.7890068,2.084329,0.6949186,0.008857286,-0.93245834,1.3927318
853,1747638488.2318225,1.655249,2.0796945,0.72226775,0.014431266,-0.60932016,0.53326964
854,1747638488.2328954,1.655249,2.0796945,0.72226775,0.014431266,-0.60932016,0.53326964
855,1747638488.2472515,1.3951119,1.964017,0.72275555,0.3016822,-0.28618193,-0.9389486
856,1747638488.262864,1.3121192,1.8859332,0.6646729,0.3970507,-0.17622943,-1.4593904
857,1747638488.2639568,1.3121192,1.8859332,0.6646729,0.3970507,-0.17622943,-1.4593904
858,1747638488.2784076,1.2574514,1.6438154,0.69882125,0.48989952,0.031458635,-2.5503638
859,1747638488.2794833,1.2574514,1.6438154,0.69882125,0.48989952,0.031458635,-2.5503638
860,1747638488.2936094,1.3511764,1.5423156,0.6922355,0.54594475,0.05222744,-2.9516902
861,1747638488.3091156,1.5178629,1.4495664,0.6834545,0.57152396,0.27159795,-3.631029
862,1747638488.3101158,1.5178629,1.4495664,0.6834545,0.57152396,0.27159795,-3.631029
863,1747638488.3246703,2.2211967,1.174032,0.9043211,0.8649597,0.8048676,-4.5717335
864,1747638488.3396962,2.5711563,1.0546957,0.961428,1.0973871,0.9019923,-4.9015913
865,1747638488.3407698,2.5711563,1.0546957,0.961428,1.0973871,0.9019923,-4.9015913
866,1747638488.3549979,2.9348054,0.922188,0.9633794,1.4693931,0.9184852,-5.433028
867,1747638488.3701878,3.244976,0.71717596,0.67296606,1.9921256,0.7981483,-6.4935355
868,1747638488.3712611,3.244976,0.71717596,0.67296606,1.9921256,0.7981483,-6.4935355
869,1747638488.3862364,3.3145227,0.64714146,0.4806683,1.9460067,0.87755847,-6.946173
870,1747638488.401593,3.827022,0.12634884,0.18022393,0.97964627,1.6863202,-7.842897
871,1747638488.4028199,3.827022,0.12634884,0.18022393,0.97964627,1.6863202,-7.842897
872,1747638488.417629,3.8390045,-0.33758068,0.29468182,0.54037076,2.1975994,-8.549724
873,1747638488.4329824,3.3608975,-1.0675318,0.4921324,0.94597334,2.0247295,-8.955937
874,1747638488.4339852,3.3608975,-1.0675318,0.4921324,0.94597334,2.0247295,-8.955937
875,1747638488.4477031,3.0912168,-1.2976673,0.4057249,1.3379083,1.7535135,-8.967544
876,1747638488.4631763,2.8581545,-1.394807,0.2807786,1.585225,1.6569996,-8.912567
877,1747638488.464187,2.8581545,-1.394807,0.2807786,1.585225,1.6569996,-8.912567
878,1747638488.4787424,2.122624,-1.6210396,-0.1355567,1.7017441,1.6765467,-8.258884
879,1747638488.4799073,2.122624,-1.6210396,-0.1355567,1.7017441,1.6765467,-8.258884
880,1747638488.4936552,1.8373327,-1.6268938,-0.16705243,1.5316995,1.6258464,-7.87405
881,1747638488.5095017,1.4831964,-1.7340342,-0.19388327,1.226963,1.3014865,-7.2088375
882,1747638488.5105093,1.4831964,-1.7340342,-0.19388327,1.226963,1.3014865,-7.2088375
883,1747638488.5247698,1.0680805,-1.7469617,-0.16534501,1.0307283,1.6496694,-5.828323
884,1747638488.5394843,0.17046726,-1.6014959,-0.09210903,1.2107756,1.5733135,-5.1489844
885,1747638488.5405626,0.17046726,-1.6014959,-0.09210903,1.2107756,1.5733135,-5.1489844
886,1747638488.5548227,-0.16705243,-1.5439011,-0.19071235,1.4998591,1.2703333,-4.3927555
887,1747638488.5700855,-0.7749538,-1.3162049,-0.668789,1.7752749,0.33085015,-2.4367461
888,1747638488.5711727,-0.7749538,-1.3162049,-0.668789,1.7752749,0.33085015,-2.4367461
889,1747638488.585269,-0.79300356,-1.2913253,-0.85233635,1.5453672,-0.18172707,-1.508869
890,1747638488.6006377,-0.6102185,-1.3952948,-1.1398226,0.75844324,-0.58855134,-0.37391487
891,1747638488.6016383,-0.6102185,-1.3952948,-1.1398226,0.75844324,-0.58855134,-0.37391487
892,1747638488.6162848,-0.74861073,-1.4345958,-1.0346335,-1.3152305,-0.23731416,1.3878449
893,1747638488.6319246,-0.739098,-1.4565483,-0.87745976,-2.013658,-0.20310672,2.2503612
894,1747638488.6329257,-0.739098,-1.4565483,-0.87745976,-2.013658,-0.20310672,2.2503612
895,1747638488.6474948,-0.42353082,-1.4858184,-0.39157772,-2.5769355,-0.60321164,3.6278982
896,1747638488.662943,-0.08210845,-1.4645976,-0.13043444,-2.3302295,-1.3081294,4.452542
897,1747638488.6639767,-0.08210845,-1.4645976,-0.13043444,-2.0018227,-1.6355436,4.9454956
898,1747638488.6776433,0.064820856,-1.430175,-0.10262794,-2.0018227,-1.6355436,4.9454956
899,1747638488.6925163,0.30129808,-1.3899286,-0.23830658,-1.563769,-2.053363,5.901548
900,1747638488.6936014,0.30129808,-1.3899286,-0.23830658,-1.563769,-2.053363,5.901548
901,1747638488.7081578,1.0710076,-1.5280465,-0.46624672,-1.6329474,-2.4449162,7.241747
902,1747638488.7229614,1.541035,-1.5588105,-0.5028647,-1.9700588,-2.6007586,7.724393
903,1747638488.7240307,1.541035,-1.5588105,-0.5028647,-1.9700588,-2.6007586,7.724393
904,1747638488.7382343,2.346387,-1.4682564,-0.23318435,-2.1875205,-2.639242,7.871607
905,1747638488.7393014,2.346387,-1.4682564,-0.23318435,-2.3906271,-2.6441288,7.9290266
906,1747638488.7536042,2.6468313,-1.3018138,-0.038416874,-2.3582523,-2.7852345,7.886878
907,1747638488.7690525,3.033622,-0.9345362,0.05332628,-1.9270704,-2.6032019,7.9320807
908,1747638488.7700531,3.033622,-0.9345362,0.05332628,-1.9270704,-2.6032019,7.9320807
909,1747638488.7847257,3.1383233,-0.56478906,0.0015854583,-1.8323891,-2.570827,8.064024
910,1747638488.8003926,3.6488714,-0.4376475,0.029666364,-2.1557562,-2.2549427,8.41404
911,1747638488.8013942,3.6488714,-0.4376475,0.029666364,-2.1557562,-2.2549427,8.41404
912,1747638488.8156507,3.775525,0.08143768,0.7256826,-1.3931135,-2.2360065,7.660177
913,1747638488.8311143,3.6796355,0.2595883,0.769862,-0.7394306,-2.221957,7.5471706
914,1747638488.8324702,3.6796355,0.2595883,0.769862,-0.7394306,-2.221957,7.5471706
915,1747638488.8462884,3.8453465,0.53048825,0.51262134,-0.30641624,-2.2366173,7.401178
916,1747638488.8614395,3.8321445,0.948287,0.4233174,0.28740364,-1.8578919,5.7622747
917,1747638488.862446,3.8321445,0.948287,0.4233174,0.28740364,-1.8578919,5.7622747
918,1747638488.877391,3.5292912,1.2035763,0.40523705,0.35841462,-1.5341429,4.500799
919,1747638488.8925023,3.0002055,1.3778243,0.37279615,0.31542626,-1.3270657,4.0811467
920,1747638488.8936763,3.0002055,1.3778243,0.37279615,0.31542626,-1.3270657,4.0811467
921,1747638488.9084136,2.3322396,1.5708538,0.45209953,0.18333054,-0.9507837,2.9761243
922,1747638488.909458,2.3322396,1.5708538,0.45209953,0.18333054,-0.9507837,2.9761243
923,1747638488.9235873,2.1626263,1.6472304,0.5099383,0.20203774,-0.87442786,2.5778518
924,1747638488.938518,2.07381,1.7438822,0.45039213,0.12598725,-0.6502469,1.4299934
925,1747638488.9395893,2.07381,1.7438822,0.45039213,0.12598725,-0.6502469,1.4299934
926,1747638488.954187,1.9947201,1.7629079,0.43624496,-0.02481567,-0.43889377,0.7427903
927,1747638488.9689727,1.6965014,1.8175756,0.54216576,-0.27839363,-0.101706065,-0.3794125
928,1747638488.9701078,1.6965014,1.8175756,0.54216576,-0.27839363,-0.101706065,-0.3794125
929,1747638488.984864,1.5996056,1.790257,0.60195583,-0.2914505,-0.008246438,-0.7917344
930,1747638489.0004923,1.4073077,1.6018618,0.764008,-0.0104607595,0.26671118,-1.977389
931,1747638489.0004923,1.4073077,1.6018618,0.764008,-0.0104607595,0.26671118,-1.977389
932,1747638489.016364,1.3941362,1.4971606,0.8323351,0.28671643,0.2722088,-2.416588
933,1747638489.0320559,1.4797815,1.3577926,0.69174767,0.69674766,0.28442577,-3.0458372
934,1747638489.0330575,1.4797815,1.3577926,0.69174767,0.69674766,0.28442577,-3.0458372
935,1747638489.0478137,2.0208497,1.2089424,0.5568008,0.6506287,0.59962296,-3.8698702
936,1747638489.0625694,2.3932493,1.1969906,0.6610142,0.6194755,0.7492805,-4.185067
937,1747638489.0636687,2.3932493,1.1969906,0.6610142,0.6194755,0.7492805,-4.185067
938,1747638489.0785227,3.0267925,1.2040641,0.7984003,0.85999656,0.80242425,-4.7916384
939,1747638489.0795891,3.0267925,1.2040641,0.7984003,0.85999656,0.80242425,-4.7916384
940,1747638489.0937097,3.7137837,0.7001018,0.4865223,1.2356677,1.007058,-5.7629623
941,1747638489.1089032,3.7137837,0.7001018,0.4865223,1.3534849,1.2520078,-6.526521
942,1747638489.1099083,3.7137837,0.7001018,0.4865223,1.3534849,1.2520078,-6.526521
943,1747638489.1243904,3.6815867,0.42725053,0.21830542,1.1989405,1.6301223,-7.5105963
944,1747638489.1395733,3.7150033,-0.2321477,-0.010366458,0.5989357,2.0888686,-8.316915
945,1747638489.140662,3.7150033,-0.2321477,-0.010366458,0.5989357,2.0888686,-8.316915
946,1747638489.1556847,3.5473413,-0.58823556,-0.006219875,0.41010758,2.3894055,-8.624247
947,1747638489.170904,3.0382872,-1.0753372,0.12238518,0.42820394,2.4498792,-8.787954
948,1747638489.1720054,3.0382872,-1.0753372,0.12238518,0.42820394,2.4498792,-8.787954
949,1747638489.1864033,2.5091708,-1.5078014,0.18315093,1.0188932,2.3777993,-8.533842
950,1747638489.201661,2.265864,-1.664975,0.15119785,1.3752463,2.3099952,-8.3518095
951,1747638489.20273,2.265864,-1.664975,0.15119785,1.3752463,2.3099952,-8.3518095
952,1747638489.2176814,1.7592186,-1.8155328,0.0015854583,2.0108328,1.8329235,-7.938189
953,1747638489.232947,1.3074849,-1.8943788,-0.37764397,2.0961988,1.407163,-7.3407807
954,1747638489.2339542,1.0104858,-1.9365765,-0.5009134,2.0961988,1.407163,-7.3407807
955,1747638489.2480023,0.712755,-1.9775848,-0.56924057,1.8649931,1.3375264,-6.831945
956,1747638489.2627213,0.4738386,-1.9458452,-0.5653379,1.2612469,1.2538403,-5.602233
957,1747638489.263751,0.4738386,-1.9458452,-0.5653379,1.2612469,1.2538403,-5.602233
958,1747638489.2784529,-0.16924767,-1.8313873,-0.56680137,0.7870767,1.2532295,-3.7446463
959,1747638489.2795908,-0.16924767,-1.8313873,-0.56680137,0.7870767,1.2532295,-3.7446463
960,1747638489.2937784,-0.45966098,-1.7415955,-0.5514041,0.68361443,1.0412655,-2.680474
961,1747638489.3086505,-0.8062056,-1.601252,-0.5936322,0.732864,0.3962108,-1.3482163
962,1747638489.309654,-0.8062056,-1.601252,-0.5936322,0.732864,0.3962108,-1.3482163
963,1747638489.3244994,-0.7217494,-1.6439679,-0.9531044,0.43942824,-0.69850385,0.76722413
964,1747638489.3397317,-0.69150376,-1.620064,-1.0539029,0.01885991,-0.8866448,1.5546063
965,1747638489.3407338,-0.69150376,-1.620064,-1.0539029,0.01885991,-0.8866448,1.5546063
966,1747638489.3551116,-0.6673255,-1.5897878,-1.1105222,-0.40422818,-0.9465078,2.1697295
967,1747638489.3705602,-0.41011536,-1.5348761,-0.9043211,-1.8497982,-1.1193776,4.063432
968,1747638489.3716207,-0.41011536,-1.5348761,-0.9043211,-1.8497982,-1.1193776,4.063432
969,1747638489.3862875,-0.0960117,-1.5280465,-0.6317137,-2.2504377,-1.3093511,4.750025
970,1747638489.4017036,0.48554665,-1.5114602,-0.18900493,-2.4199479,-1.8597245,5.842296
971,1747638489.4027345,0.48554665,-1.5114602,-0.18900493,-2.4199479,-1.8597245,5.842296
972,1747638489.4174092,1.0019487,-1.4323702,-0.013293459,-1.8746903,-2.4039893,6.5850863
973,1747638489.4328098,1.3462981,-1.3386757,-0.08893812,-1.4777923,-2.473015,6.981526
974,1747638489.4338138,1.3462981,-1.3386757,-0.08893812,-1.4777923,-2.473015,6.981526
975,1747638489.4476495,1.5532614,-1.2847396,-0.1636376,-1.285299,-2.533489,7.2997775
976,1747638489.4629085,2.0035012,-1.187112,-0.19461502,-1.1968025,-2.5622752,7.93147
977,1747638489.4639752,2.0035012,-1.187112,-0.19461502,-1.1968025,-2.5622752,7.93147
978,1747638489.478575,2.611189,-1.109272,-0.14165461,-1.166871,-2.509666,8.265603
979,1747638489.4796746,2.611189,-1.109272,-0.14165461,-1.166871,-2.509666,8.265603
980,1747638489.4937854,3.353092,-0.6326284,-0.266357,-1.3332505,-2.3276334,7.969342
981,1747638489.5096781,3.2933018,-0.11476279,-0.26391783,-2.037939,-1.5036005,7.788532
982,1747638489.5107734,3.2933018,-0.11476279,-0.26391783,-2.037939,-1.5036005,7.788532
983,1747638489.524586,3.547829,0.08899909,0.49091277,-2.1750743,-1.3692142,7.7396636
984,1747638489.5397718,3.5720074,0.26788148,0.6566237,-1.7943639,-1.5139849,7.5471706
985,1747638489.5408173,3.5720074,0.26788148,0.6566237,-1.7943639,-1.5139849,7.5471706
986,1747638489.555112,3.689636,0.41871345,0.82672507,-0.41736138,-1.7259489,6.5447702
987,1747638489.5711634,3.6117961,0.90313196,0.687845,0.35276428,-1.9305828,5.572912
988,1747638489.572218,3.6117961,0.90313196,0.687845,0.35276428,-1.9305828,5.572912
989,1747638489.5872543,3.2872038,1.1274133,0.44746515,0.6381827,-1.801694,4.8697505
990,1747638489.6025255,2.7229638,1.3917276,0.21464668,0.39643988,-1.1877925,4.04755
991,1747638489.6036434,2.4408436,1.5093564,0.3471544,0.06429167,-0.7351547,3.5973558
992,1747638489.6175563,2.3207755,1.5503649,0.4738386,0.033749312,-0.60199,3.2015269
993,1747638489.6328392,2.229246,1.6438154,0.60439503,0.15904936,-0.65085775,2.7232335
994,1747638489.6338432,2.229246,1.6438154,0.60439503,0.15904936,-0.65085775,2.7232335
995,1747638489.6480849,2.1860726,1.7636395,0.50871867,0.38834614,-0.7547018,1.6822734
996,1747638489.6490853,2.1860726,1.7636395,0.50871867,0.38834614,-0.7547018,1.6822734
997,1747638489.6636963,2.0235326,1.8151363,0.34495914,0.14652699,-0.5390727,0.57297474
998,1747638489.6797037,1.6218325,1.7643713,0.4501482,-0.07834116,-0.3839175,0.025655584
999,1747638489.6807685,1.6218325,1.7643713,0.4501482,-0.32947573,-0.18600298,-0.6078694
