id,timestamp,acc_x,acc_y,acc_z,gyro_x,gyro_y,gyro_z
0,1747638491.4240491,0.11336028,0.95292145,0.4911567,0.9091698,-1.4003674,0.14660335
1,1747638491.437441,0.14144118,0.92901766,0.48603445,0.83945686,-1.3661599,0.14232741
2,1747638491.4531271,0.13827026,0.8684958,0.44892865,0.72538114,-1.3551646,0.14965758
3,1747638491.4688008,0.1829375,0.7520866,0.49018103,0.65498096,-1.00576,0.19974706
4,1747638491.4688509,0.1829375,0.7520866,0.49018103,0.65498096,-1.00576,0.19974706
5,1747638491.4844892,0.16046669,0.62835985,0.51091397,0.79272705,-0.8884773,0.18753012
6,1747638491.4854898,0.16046669,0.62835985,0.51091397,0.79272705,-0.8884773,0.18753012
7,1747638491.499434,0.09994486,0.48630884,0.5426536,1.3746355,-0.9385668,0.2932067
8,1747638491.5150294,-0.07186395,-0.21995185,0.36352733,2.724226,-1.9293611,0.5155551
9,1747638491.5156,-0.07186395,-0.21995185,0.36352733,2.724226,-1.9293611,0.5155551
10,1747638491.5309956,-0.07186395,-0.21995185,0.36352733,3.2999496,-2.787067,0.5906893
11,1747638491.5462906,0.038447365,-0.70732784,-0.5062795,3.3180459,-3.5854445,0.65482825
12,1747638491.5477874,0.038447365,-0.70732784,-0.5062795,3.3180459,-3.5854445,0.65482825
13,1747638491.5623162,0.000121958336,-0.9833501,-1.0668305,1.7273233,-2.3819988,0.847856
14,1747638491.5782828,-0.41987208,-0.9589279,-0.8759962,-0.45156884,-1.2769762,1.7751222
15,1747638491.579285,-0.41987208,-0.9589279,-0.8759962,-0.45156884,-1.2769762,1.7751222
16,1747638491.5929096,-0.40645662,-0.97453856,-0.5711919,-1.0459995,-1.353943,2.513102
17,1747638491.608211,0.544361,-1.3916361,0.061131615,-0.6946097,-3.2079408,4.467202
18,1747638491.6092148,0.544361,-1.3916361,0.061131615,-0.6946097,-3.2079408,4.467202
19,1747638491.6237845,0.9716726,-1.394807,0.042106118,0.03504736,-3.7570925,4.7769017
20,1747638491.6247892,0.9716726,-1.394807,0.042106118,0.03504736,-3.7570925,4.7769017
21,1747638491.6391485,1.3880383,-1.2454386,-0.32886064,0.6606313,-3.975165,5.094008
22,1747638491.6550674,1.8534312,-1.0238402,-0.6739418,-0.17928366,-3.4565556,5.827025
23,1747638491.6556535,1.8534312,-1.0238402,-0.6739418,-0.17928366,-3.4565556,5.827025
24,1747638491.6707757,2.2409844,-0.8991378,-0.6319576,-0.8809181,-3.1260872,6.1886463
25,1747638491.6859972,2.6434164,-0.7744354,-0.5716797,-1.428619,-2.8567035,6.3157024
26,1747638491.6870499,2.6434164,-0.7744354,-0.5716797,-2.227989,-2.3960483,6.221632
27,1747638491.7016087,3.5998137,0.21784808,-0.16534501,-3.5134406,-1.5689611,5.8166404
28,1747638491.7174687,3.6510668,0.4794792,0.23074517,-4.1246696,-1.1370921,5.442802
29,1747638491.7188084,3.5563967,0.5834487,0.6273232,-4.257987,-0.9318475,5.0927863
30,1747638491.7330666,3.2630258,0.71620035,1.1371396,-3.8349755,-0.9086353,4.596702
31,1747638491.7482543,2.4986825,1.2677569,1.2110767,-1.5762913,-1.9806722,4.257071
32,1747638491.7492561,2.4986825,1.2677569,1.2110767,-1.5762913,-1.9806722,4.257071
33,1747638491.7634995,2.5765224,1.4202658,0.8852955,-0.9749886,-2.3765013,4.2063704
34,1747638491.764592,2.5765224,1.4202658,0.8852955,-0.9749886,-2.3765013,4.2063704
35,1747638491.778746,2.5579846,1.6721402,0.5958579,-0.79929364,-2.1480443,3.4892359
36,1747638491.7948463,2.274401,1.8295579,0.6012241,-0.93383276,-1.3111837,2.5076044
37,1747638491.7954445,2.274401,1.8295579,0.6012241,-0.93383276,-1.3111837,2.5076044
38,1747638491.8101578,1.6008251,1.9537725,0.7530012,-0.93383276,-1.3111837,2.5076044
39,1747638491.8248405,1.5822874,1.9815791,0.7434885,-0.9613209,-1.0961654,2.0616095
40,1747638491.825841,1.5822874,1.9815791,0.7434885,-0.9613209,-1.0961654,2.0616095
41,1747638491.8396525,1.5017645,2.000879,0.9919481,-1.07784,-0.793796,0.7666133
42,1747638491.8550663,1.3648357,2.0013669,1.084667,-0.9145911,-0.75286925,0.19974706
43,1747638491.8566127,1.3648357,2.0013669,1.084667,-0.9145911,-0.75286925,0.19974706
44,1747638491.8705978,1.1051865,1.9949944,1.213272,-0.528841,-0.60687673,-0.42033926
45,1747638491.8861954,1.1896122,1.9113005,1.1947343,0.06681142,-0.09926268,-1.1741248
46,1747638491.886848,1.1896122,1.9113005,1.1947343,0.06681142,-0.09926268,-1.1741248
47,1747638491.9011729,1.3441027,1.8437052,1.1857095,0.277401,0.11514471,-1.500928
48,1747638491.9172509,1.5039597,1.7997696,1.1786358,0.45187426,0.31130302,-1.7984107
49,1747638491.9173007,1.755072,1.7592491,1.1896122,0.7160657,0.55991787,-2.265709
50,1747638491.9330502,1.9283441,1.7411993,1.1512867,0.9920923,0.7572215,-2.7800422
51,1747638491.9477737,2.220221,1.6570174,1.0012169,1.4600013,1.351576,-3.8289433
52,1747638491.9477737,2.3993473,1.5889037,0.95313495,1.4600013,1.351576,-3.8289433
53,1747638491.9624922,2.5321295,1.4937457,0.8850516,1.6637952,1.4706911,-4.2687535
54,1747638491.9785674,2.8169327,1.119364,0.6341528,1.9553984,1.5763677,-5.109279
55,1747638491.9796586,2.8169327,1.119364,0.6341528,1.9553984,1.5763677,-5.109279
56,1747638491.9936028,2.8867233,0.8269995,0.41353023,2.0637474,1.8573575,-5.7696815
57,1747638491.9949431,2.8867233,0.8269995,0.41353023,2.0637474,1.8573575,-5.7696815
58,1747638492.0097258,2.9181886,0.6036937,0.36889347,2.2101982,2.0534394,-6.4300075
59,1747638492.0247927,2.6746378,-0.0459478,0.12482436,2.3448136,2.0302272,-6.739707
60,1747638492.0254998,2.6746378,-0.0459478,0.12482436,2.3448136,2.0302272,-6.739707
61,1747638492.039659,2.4425511,-0.28388852,0.042837866,2.5124147,1.603245,-7.1495852
62,1747638492.0549152,2.3173609,-0.46865538,-0.025245376,2.5179887,1.4279318,-7.1727977
63,1747638492.0560076,2.3173609,-0.46865538,-0.025245376,2.5179887,1.4279318,-7.1727977
64,1747638492.0702412,2.0384116,-0.7732159,-0.051618867,2.458813,1.2483428,-7.1373687
65,1747638492.0859277,1.8121789,-0.9338045,-0.10531103,2.4382732,1.1206757,-6.9571686
66,1747638492.0869608,1.8121789,-0.9338045,-0.10531103,2.4382732,1.1206757,-6.9571686
67,1747638492.101667,1.478318,-1.1195166,-0.17558952,2.3647425,1.1640458,-6.6590753
68,1747638492.1173353,1.0956737,-1.3123022,-0.24220926,2.2401297,0.80914354,-6.1508503
69,1747638492.1173913,1.0956737,-1.3123022,-0.24220926,2.2401297,0.80914354,-6.1508503
70,1747638492.1325886,0.78839964,-1.4123689,-0.2810225,1.9883841,0.4866162,-5.5649714
71,1747638492.1477199,0.5070113,-1.4204183,-0.35227665,1.7864991,0.38032877,-5.029869
72,1747638492.1487205,0.16900377,-1.3884652,-0.44283074,1.7864991,0.38032877,-5.029869
73,1747638492.1630359,-0.07162003,-1.3686775,-0.48746744,1.4412941,0.31191388,-4.1710176
74,1747638492.178716,-0.6111942,-1.4436208,-0.68589365,0.7359946,0.27037627,-2.4428546
75,1747638492.1797795,-0.6111942,-1.4436208,-0.68589365,0.7359946,0.27037627,-2.4428546
76,1747638492.1946235,-0.75983095,-1.5365835,-0.71711504,0.44187164,0.09071082,-1.6872364
77,1747638492.1956015,-0.75983095,-1.5365835,-0.71711504,0.44187164,0.09071082,-1.6872364
78,1747638492.2102275,-0.81815743,-1.5363396,-0.69930905,-0.040392276,-0.369868,-0.4789806
79,1747638492.2252648,-0.6951625,-1.4094421,-0.6604958,-0.8497649,-0.63802993,1.3145432
80,1747638492.2262654,-0.6951625,-1.4094421,-0.6604958,-0.8497649,-0.63802993,1.3145432
81,1747638492.2409298,-0.6951625,-1.4094421,-0.6604958,-1.214288,-0.6111527,1.9974705
82,1747638492.2556074,-0.6346407,-1.3323338,-0.59729093,-1.4865732,-0.5763344,2.5338707
83,1747638492.2566104,-0.6346407,-1.3323338,-0.59729093,-1.4865732,-0.5763344,2.5338707
84,1747638492.271633,-0.28590083,-1.4853306,-0.43865365,-2.152015,-0.7601994,3.9424846
85,1747638492.2877502,0.068479605,-1.5812508,-0.29785275,-2.429263,-1.1285403,4.5741005
86,1747638492.2887504,0.068479605,-1.5812508,-0.29785275,-2.429263,-1.1285403,4.5741005
87,1747638492.3035793,0.40279788,-1.6076243,-0.028904125,-2.4934785,-1.601947,5.576577
88,1747638492.3046622,0.70129097,-1.5505173,0.15022218,-2.4934785,-1.601947,5.576577
89,1747638492.3185606,0.95362276,-1.5056062,0.15119785,-1.7482449,-2.1767542,6.932658
90,1747638492.333785,1.2164735,-1.4304188,0.072870106,-1.3657018,-2.1963012,7.520293
91,1747638492.3347874,1.2164735,-1.4304188,0.072870106,-1.3657018,-2.1963012,7.520293
92,1747638492.3489504,2.0262158,-1.3938313,-0.019879209,-0.84915406,-2.1028416,8.293092
93,1747638492.364985,3.2605867,-0.7778503,-0.32736665,-0.63665557,-2.2873175,8.316303
94,1747638492.3659856,3.2605867,-0.7778503,-0.32736665,-0.69583136,-2.438197,8.103118
95,1747638492.3799708,3.5734706,-0.47231415,-0.45136783,-0.69583136,-2.438197,8.103118
96,1747638492.3953915,3.5388038,-0.22165927,-0.38008317,-1.3856306,-1.9208091,7.628413
97,1747638492.396374,3.5388038,-0.22165927,-0.38008317,-1.3856306,-1.9208091,7.628413
98,1747638492.4103003,3.3728495,0.3501424,0.21050009,-1.6591375,-1.2610942,8.215514
99,1747638492.426286,3.7435722,0.5287808,0.3662104,-1.4211361,-1.413806,8.282096
100,1747638492.4273703,3.7435722,0.5287808,0.3662104,-1.4211361,-1.413806,8.282096
101,1747638492.4423952,4.052523,0.93072504,0.5370435,-0.9058101,-1.3020209,7.564885
102,1747638492.4582267,3.9963918,1.6250339,0.7373906,0.37399122,-1.3313416,5.2894793
103,1747638492.4592583,3.9963918,1.6250339,0.7373906,0.37399122,-1.3313416,5.2894793
104,1747638492.4732635,3.5149,1.858584,0.5958579,0.87496233,-1.1694671,4.34992
105,1747638492.4892356,3.1102731,2.0274658,0.43014705,1.0650122,-0.83533365,3.2424536
106,1747638492.490238,3.1102731,2.0274658,0.43014705,1.0650122,-0.83533365,3.2424536
107,1747638492.5041668,2.3285809,2.300561,0.15949102,0.8244911,-0.5934381,2.7873724
108,1747638492.5051684,1.9754506,2.5065184,0.24687417,0.8244911,-0.5934381,2.7873724
109,1747638492.5257416,1.9693527,2.5778027,0.4015783,0.34902287,-0.10903624,1.8111621
110,1747638492.5257802,1.9693527,2.5778027,0.4015783,0.34902287,-0.10903624,1.8111621
111,1747638492.5416143,2.055242,2.5997553,0.5963458,0.46432027,-0.2055501,0.52532864
112,1747638492.556292,1.8417233,2.4787116,0.49579114,0.48050773,0.051005747,-1.4966521
113,1747638492.556292,1.8417233,2.4787116,0.49579114,0.48050773,0.051005747,-1.4966521
114,1747638492.5719948,1.788763,2.360595,0.5228659,0.45500484,0.20012884,-1.9871625
115,1747638492.587207,1.7936412,2.2258615,0.5753385,0.4942518,0.39071319,-2.5717432
116,1747638492.5882537,1.832668,2.120947,0.5965897,0.5883223,0.5061633,-2.9553554
117,1747638492.6023579,1.9608155,1.9625535,0.5716797,0.7815027,0.67231375,-3.526574
118,1747638492.6173384,2.331264,1.7224176,0.5189632,0.96406966,0.7132405,-4.1429186
119,1747638492.6184444,2.331264,1.7224176,0.5189632,0.96406966,0.7132405,-4.1429186
120,1747638492.632651,2.8003159,1.5200887,0.42600048,1.1920685,0.7889856,-4.946794
121,1747638492.6480079,3.7250347,0.99856436,0.11653119,1.4687059,0.68758494,-6.395189
122,1747638492.650011,3.7250347,0.99856436,0.11653119,1.4687059,0.68758494,-6.395189
123,1747638492.6638074,3.7794278,0.75306225,-0.023294043,1.370894,0.7321768,-7.187458
124,1747638492.6648102,3.7794278,0.75306225,-0.023294043,1.370894,0.7321768,-7.187458
125,1747638492.678532,3.6022527,0.45679495,-0.1299466,1.228872,0.7957049,-7.6779685
126,1747638492.6944566,3.152989,-0.15284428,-0.08893812,0.84999394,0.85556793,-8.137937
127,1747638492.6954772,3.152989,-0.15284428,-0.08893812,0.79830104,0.8005917,-8.109226
128,1747638492.7092228,2.9823997,-0.47280195,-0.0064637917,0.79830104,0.8005917,-8.109226
129,1747638492.7248673,2.853764,-0.8078825,0.09409086,0.9055047,0.5367057,-7.9259725
130,1747638492.7258918,2.853764,-0.8078825,0.09409086,0.9055047,0.5367057,-7.9259725
131,1747638492.739497,2.6070423,-1.0038391,0.11409202,0.9590302,0.62955445,-7.714619
132,1747638492.7551062,2.413525,-1.1771114,0.20440216,1.0605836,0.6417714,-7.5197587
133,1747638492.7563124,2.413525,-1.1771114,0.20440216,1.0605836,0.6417714,-7.5197587
134,1747638492.7705183,1.9337105,-1.3891969,0.26272872,1.2762127,0.64604735,-7.407974
135,1747638492.7860131,1.0451524,-1.5802752,0.0064637917,1.996478,0.25144,-6.736042
136,1747638492.7870638,1.0451524,-1.5802752,0.0064637917,1.996478,0.25144,-6.736042
137,1747638492.8017497,0.69125986,-1.5622253,-0.1753456,1.9783815,-0.062000997,-6.3011184
138,1747638492.8164675,0.3459348,-1.5465841,-0.363009,1.7254144,-0.17012095,-5.7916718
139,1747638492.817525,0.3459348,-1.5465841,-0.363009,1.7254144,-0.17012095,-5.7916718
140,1747638492.831738,-0.2221776,-1.6283572,-0.5365252,0.8493831,0.09498675,-4.5931134
141,1747638492.8472059,-1.014602,-1.7623284,-0.251722,-0.09086353,0.08460235,-2.5479202
142,1747638492.8482814,-1.014602,-1.7623284,-0.251722,-0.09086353,0.08460235,-2.5479202
143,1747638492.8628118,-1.0775629,-1.7708656,-0.13628843,-0.18928629,-0.16462334,-1.6469206
144,1747638492.8783584,-0.78934485,-1.760621,-0.120189935,-0.27404135,-0.5714476,0.40132666
145,1747638492.8794394,-0.78934485,-1.760621,-0.120189935,-0.27404135,-0.5714476,0.40132666
146,1747638492.893955,-0.6634229,-1.6551881,-0.21611017,-0.4067479,-0.4162924,1.2681189
147,1747638492.8950405,-0.6634229,-1.6551881,-0.21611017,-0.4067479,-0.4162924,1.2681189
148,1747638492.9087255,-0.6129016,-1.6053985,-0.27614418,-0.57496,-0.2776301,1.8508672
149,1747638492.9240427,-0.6046084,-1.4973129,-0.37544873,-0.9781192,-0.35642937,2.8576198
150,1747638492.925043,-0.5052734,-1.5251195,-0.4586853,-0.9781192,-0.35642937,2.8576198
151,1747638492.9389937,-0.30687764,-1.5961298,-0.5514041,-1.8454459,-0.5360185,4.4953012
152,1747638492.9543753,-0.19949335,-1.6561638,-0.54457444,-2.169424,-0.5274666,5.012689
153,1747638492.9554439,-0.19949335,-1.6561638,-0.54457444,-2.169424,-0.5274666,5.012689
154,1747638492.9703436,0.28760824,-1.7933364,-0.2617226,-2.7009375,-0.8127323,6.2454553
155,1747638492.9852808,0.83087164,-1.7581818,0.014269125,-2.4267435,-1.3172921,7.126908
156,1747638492.9862838,0.83087164,-1.7581818,0.014269125,-2.4267435,-1.3172921,7.126908
157,1747638493.0005426,1.5456694,-1.5541761,0.007683375,-1.4335822,-1.7253381,8.001106
158,1747638493.0164435,1.8812379,-1.4428891,-0.03524596,-1.0728005,-1.88538,8.204518
159,1747638493.017519,1.8812379,-1.4428891,-0.03524596,-1.0728005,-1.88538,8.204518
160,1747638493.03255,2.664637,-0.86694086,-0.2839495,-0.28091338,-2.1242213,8.201465
161,1747638493.0472338,2.9367568,-0.6187251,-0.39060205,-0.11766446,-2.0784078,8.098231
162,1747638493.0485487,3.1073458,-0.336605,-0.54579407,-0.11766446,-2.0784078,8.098231
163,1747638493.062489,3.1078336,0.040673107,-0.627811,-0.4341597,-1.4034215,8.082349
164,1747638493.0785139,3.672806,0.5085053,-0.29224268,-1.2155097,-0.79257435,8.36395
165,1747638493.0795496,3.672806,0.5085053,-0.29224268,-1.2155097,-0.79257435,8.36395
166,1747638493.0936797,3.873153,0.780137,-0.028904125,-1.2136008,-0.88236886,8.026762
167,1747638493.0948315,3.873153,0.780137,-0.028904125,-1.2136008,-0.88236886,8.026762
168,1747638493.1096418,3.9285524,1.1027778,0.34813008,-0.5351022,-1.0845593,7.0108466
169,1747638493.1252992,3.4882827,1.4888673,0.20879267,0.9391013,-1.385707,5.3169675
170,1747638493.1283002,3.4882827,1.4888673,0.20879267,0.9391013,-1.385707,5.3169675
171,1747638493.1402996,3.307937,1.5706099,0.029422449,1.0948673,-1.3038535,4.801336
172,1747638493.1562998,3.0799968,1.7756219,-0.10921369,1.0518789,-1.1877925,4.1575027
173,1747638493.157302,2.938952,1.8822439,-0.2119331,0.7085828,-0.9733851,3.5558183
174,1747638493.1713996,2.6602466,1.8964217,-0.19632243,0.008246438,-0.5482354,2.700632
175,1747638493.1866088,2.3517835,1.900812,0.019177949,-0.49394637,-0.26052636,2.0182393
176,1747638493.1866665,2.3517835,1.900812,0.019177949,-0.49394637,-0.26052636,2.0182393
177,1747638493.202333,1.8082763,1.9715784,0.5958579,-0.61794835,-0.110868774,1.0824213
178,1747638493.2173333,1.5398154,2.0762796,0.73104876,0.4182013,-0.3594836,0.0012216945
179,1747638493.2173333,1.5398154,2.0762796,0.73104876,0.4182013,-0.3594836,0.0012216945
180,1747638493.2334194,1.6030204,2.0874999,0.5782654,0.62573665,-0.2544179,-0.58648974
181,1747638493.248714,1.5513101,2.0135627,0.42917135,0.6244386,-0.073607095,-1.0818869
182,1747638493.2507124,1.5513101,2.0135627,0.42917135,0.5260158,0.13049224,-1.5644562
183,1747638493.2640672,1.4912456,1.9322774,0.43868414,0.21135315,0.6124507,-2.7232335
184,1747638493.2650683,1.4912456,1.9322774,0.43868414,0.21135315,0.6124507,-2.7232335
185,1747638493.280066,1.5713111,1.7663226,0.5104261,0.21135315,0.6124507,-2.7232335
186,1747638493.2951884,1.8304727,1.5547553,0.5760702,0.37834352,0.7456154,-3.3958526
187,1747638493.296192,1.8304727,1.5547553,0.5760702,0.37834352,0.7456154,-3.3958526
188,1747638493.3108094,2.3649552,1.2516279,0.40865192,0.7621847,1.0204967,-4.394588
189,1747638493.3262196,2.499414,1.1779346,0.33422682,0.8438091,1.139001,-4.6633606
190,1747638493.3272212,2.499414,1.1779346,0.33422682,0.8438091,1.139001,-4.6633606
191,1747638493.3421953,2.9482207,1.0027109,0.2309891,1.0213367,1.2159678,-5.433639
192,1747638493.3573225,3.46755,0.5685698,0.0086590415,0.9746068,1.1133455,-6.571724
193,1747638493.3583243,3.46755,0.5685698,0.0086590415,0.9746068,1.1133455,-6.571724
194,1747638493.3723927,3.4006863,0.34892282,-0.08845028,0.9166527,1.1762627,-7.0964417
195,1747638493.3879402,3.0431652,-0.017897386,-0.21046959,0.6736882,1.267279,-7.6156616
196,1747638493.3889406,3.0431652,-0.017897386,-0.21046959,0.6736882,1.267279,-7.6156616
197,1747638493.4030058,2.9037974,-0.15430778,-0.22318375,0.51418066,1.226963,-7.6663623
198,1747638493.4186556,2.5379834,-0.6658315,-0.039392542,0.12224581,1.358906,-7.5936713
199,1747638493.4198527,2.5379834,-0.6658315,-0.039392542,0.12224581,1.358906,-7.5936713
200,1747638493.4347296,2.3747118,-0.8373964,0.14973435,0.27427042,1.3002647,-7.4812756
201,1747638493.43573,2.3747118,-0.8373964,0.14973435,0.27427042,1.3002647,-7.4812756
202,1747638493.450551,2.1645775,-1.0411888,0.29541358,1.1995513,0.8427402,-7.1318707
203,1747638493.4655526,1.9674015,-1.1309806,0.07823627,1.66998,0.57885414,-6.9223504
204,1747638493.466623,1.9674015,-1.1309806,0.07823627,1.66998,0.57885414,-6.9223504
205,1747638493.4813535,1.3880383,-1.178087,-0.23172083,1.8226155,0.52815384,-6.622424
206,1747638493.4963057,0.7988881,-1.2010152,-0.3766683,1.5970602,0.5782433,-6.1129775
207,1747638493.4975743,0.7988881,-1.2010152,-0.3766683,1.5970602,0.5782433,-6.1129775
208,1747638493.5115874,0.5162801,-1.3005941,-0.46283188,1.1983296,0.4530196,-5.313302
209,1747638493.5271897,0.036496032,-1.4084663,-0.4547826,0.6200863,0.6710921,-4.1710176
210,1747638493.5281901,0.036496032,-1.4084663,-0.4547826,0.6200863,0.6710921,-4.1710176
211,1747638493.5423436,-0.1621436,-1.443133,-0.43792188,0.4699706,0.78593135,-3.6988328
212,1747638493.5579627,-0.845964,-1.5885683,-0.4032857,0.39643988,0.5898494,-2.1795793
213,1747638493.5589674,-0.845964,-1.5885683,-0.4032857,0.39643988,0.5898494,-2.1795793
214,1747638493.573968,-1.0033817,-1.6676582,-0.52140236,0.4306473,0.10109522,-1.1741248
215,1747638493.5749745,-1.0033817,-1.6676582,-0.52140236,0.4306473,0.10109522,-1.1741248
216,1747638493.5896797,-0.9877711,-1.6117709,-0.7056509,0.18707198,-0.6679615,0.7831062
217,1747638493.6053162,-0.7700754,-1.4653294,-0.77910036,-0.33695862,-1.0753967,2.2613566
218,1747638493.6063168,-0.7700754,-1.4653294,-0.77910036,-0.33695862,-1.0753967,2.2613566
219,1747638493.62033,-0.6815032,-1.3311143,-0.77617335,-0.59618694,-1.1267078,2.8026435
220,1747638493.6354496,-0.4176768,-1.2932767,-0.6568371,-1.5139849,-0.99109966,4.5001884
221,1747638493.6365726,-0.4176768,-1.2932767,-0.6568371,-1.5139849,-0.99109966,4.5001884
222,1747638493.6507158,-0.03597771,-1.3681896,-0.4218234,-1.8336108,-1.0601255,5.177083
223,1747638493.6667554,0.3618199,-1.4143203,-0.21757366,-1.9594452,-1.3600514,5.630332
224,1747638493.6677558,0.3618199,-1.4143203,-0.21757366,-1.9594452,-1.3600514,5.630332
225,1747638493.6827555,0.85258025,-1.3584329,-0.022806209,-1.7177025,-1.917755,5.970574
226,1747638493.6987572,1.0763737,-1.0865573,0.008415125,-1.0728005,-1.9281393,6.662664
227,1747638493.698939,1.0763737,-1.0865573,0.008415125,-1.0728005,-1.9281393,6.662664
228,1747638493.7140906,1.2093998,-0.99822897,0.029178532,-0.9152019,-1.8737739,7.065823
229,1747638493.715525,1.2093998,-0.99822897,0.029178532,-0.9152019,-1.8737739,7.065823
230,1747638493.7297761,1.7033311,-0.97920346,-0.009390792,-0.62604207,-1.5048223,8.005993
231,1747638493.7458367,3.091461,-0.5594229,0.085309856,-0.43973368,-1.6025578,8.228952
232,1747638493.7468383,3.091461,-0.5594229,0.085309856,-0.43973368,-1.6025578,8.228952
233,1747638493.7618368,3.361385,0.045551438,-0.110189356,-0.17370969,-1.9928892,7.553279
234,1747638493.7778175,3.4416947,0.6468975,-0.31370735,-0.6715502,-1.4144168,7.3315415
235,1747638493.7778175,3.4416947,0.6468975,-0.31370735,-0.6715502,-1.4144168,7.3315415
236,1747638493.792901,3.1749413,0.91682184,0.19659685,-0.91581273,-0.37964156,6.928993
237,1747638493.7939012,3.1749413,0.91682184,0.19659685,-0.91581273,-0.37964156,6.928993
238,1747638493.808901,2.6931753,1.0134434,0.5921992,-0.61298525,-0.19699824,6.8074346
239,1747638493.8246644,2.7778754,1.1442741,0.49603507,0.5970268,-0.70522314,6.7023687
240,1747638493.825666,2.7778754,1.1442741,0.49603507,0.5970268,-0.70522314,6.7023687
241,1747638493.839324,3.436786,1.7973305,-0.044057447,1.1715287,-0.777914,5.377441
242,1747638493.85465,3.3289442,2.053809,-0.19656636,0.9447516,-0.6875086,4.2662334
243,1747638493.85465,3.3289442,2.053809,-0.19656636,0.9447516,-0.6875086,4.2662334
244,1747638493.8706505,2.6009445,2.4459965,-0.15753968,0.12720895,-0.40285376,2.7562191
245,1747638493.8859766,2.3737361,2.5699975,-0.016220458,-0.15691139,-0.3423799,2.3707745
246,1747638493.8869765,2.3066285,2.6947,0.24342884,-0.15691139,-0.3423799,2.3707745
247,1747638493.9006944,2.3066285,2.6947,0.24342884,-0.46157146,-0.17073181,1.6444008
248,1747638493.916693,2.4959993,2.5511854,0.4679541,-0.27839363,0.17691664,-0.80150795
249,1747638493.9176931,2.4959993,2.5511854,0.4679541,-0.27839363,0.17691664,-0.80150795
250,1747638493.931694,2.1011288,2.3981886,0.5341165,-0.067804046,0.48600534,-2.140485
251,1747638493.9475954,1.923222,2.3090982,0.5296955,0.09544489,0.5293755,-2.6028965
252,1747638493.9485967,1.923222,2.3090982,0.5296955,0.09544489,0.5293755,-2.6028965
253,1747638493.9622562,2.0618277,2.1607053,0.39060205,0.52036554,0.6949151,-3.4874797
254,1747638493.9775355,2.6558561,1.7768414,0.13631892,0.80082077,1.0528716,-4.8203483
255,1747638493.9785376,2.6558561,1.7768414,0.13631892,0.80082077,1.0528716,-4.8203483
256,1747638493.9925952,2.862545,1.5915868,0.022836698,0.82884336,1.0779164,-5.386604
257,1747638494.007717,3.0856068,1.2550733,-0.11653119,0.7547018,1.2599488,-6.2876797
258,1747638494.0087185,3.0856068,1.2550733,-0.11653119,0.7547018,1.2599488,-6.2876797
259,1747638494.0227706,3.1173465,0.81870633,-0.10287185,0.74034685,1.2336824,-7.1013284
260,1747638494.038771,2.9621239,0.38575423,-0.12726352,0.86060745,0.96613127,-7.6529236
261,1747638494.0397737,2.9621239,0.38575423,-0.12726352,0.86060745,0.96613127,-7.6529236
262,1747638494.0509639,2.8703809,0.052655514,-0.1841266,0.9272661,0.8030351,-7.8380103
263,1747638494.066955,2.7576303,-0.4305739,-0.37105823,0.707972,0.5843518,-7.921696
264,1747638494.0678039,2.7576303,-0.4305739,-0.37105823,0.707972,0.5843518,-7.921696
265,1747638494.0823104,2.6585393,-0.6504648,-0.34398347,0.29297763,0.7370636,-7.822739
266,1747638494.097787,2.5985053,-0.78224075,-0.25050244,-0.06154286,0.991176,-7.6657515
267,1747638494.098786,2.5985053,-0.78224075,-0.25050244,-0.06154286,0.991176,-7.6657515
268,1747638494.1127856,2.2848895,-1.0507015,0.08555377,-0.0035887277,1.055315,-7.5038767
269,1747638494.1279414,1.718454,-1.3086435,0.23635526,0.8867975,0.7413395,-7.0842247
270,1747638494.1279414,1.718454,-1.3086435,0.23635526,0.8867975,0.7413395,-7.0842247
271,1747638494.1439412,1.3885261,-1.430175,0.10262794,1.3359994,0.55503106,-6.9131875
272,1747638494.1449418,1.3885261,-1.430175,0.10262794,1.3359994,0.55503106,-6.9131875
273,1747638494.1589413,0.7740086,-1.5282904,-0.2587956,1.6139348,0.00335966,-6.3817506
274,1747638494.1744814,0.14461209,-1.5683231,-0.5726553,0.9478059,-0.14813046,-5.183192
275,1747638494.17555,0.14461209,-1.5683231,-0.5726553,0.9478059,-0.14813046,-5.183192
276,1747638494.189588,-0.05430195,-1.5231681,-0.5287199,0.50417805,-0.06627693,-4.5082054
277,1747638494.2055972,-0.25562465,-1.66839,-0.45087993,-0.32390177,0.17997088,-2.8893838
278,1747638494.2065983,-0.3720339,-1.7445225,-0.31956133,-0.70331424,0.31130302,-1.8509436
279,1747638494.221334,-0.4603927,-1.8462967,-0.20120077,-0.8061657,0.17141901,-0.9407811
280,1747638494.2364786,-0.5694845,-1.9165752,-0.15409435,-0.6939988,-0.031458635,-0.28831992
281,1747638494.2374797,-0.6949186,-1.9219414,-0.14531335,-0.6939988,-0.031458635,-0.28831992
282,1747638494.2522776,-0.81815743,-1.8943788,-0.21635409,-0.2715216,-0.66673976,0.99201596
283,1747638494.2671409,-0.86672735,-1.8636148,-0.35739893,-0.14507623,-0.9037485,1.6419574
284,1747638494.2682564,-0.86672735,-1.8636148,-0.35739893,-0.14507623,-0.9037485,1.6419574
285,1747638494.2824209,-0.70711446,-1.6937574,-0.71467584,-0.55564195,-1.0833377,3.9815788
286,1747638494.2978587,-0.2648935,-1.6203079,-0.64854395,-1.2890404,-1.1951227,5.753723
287,1747638494.2989864,-0.2648935,-1.6203079,-0.64854395,-1.2890404,-1.1951227,5.753723
288,1747638494.3138342,0.36889347,-1.5973493,-0.46088055,-1.5420076,-1.5005463,6.5032325
289,1747638494.3152046,0.36889347,-1.5973493,-0.46088055,-1.5420076,-1.5005463,6.5032325
290,1747638494.3292856,0.78376526,-1.5451206,-0.3854798,-1.5793456,-1.9489082,7.0395565
291,1747638494.344982,1.338005,-1.310107,-0.34081256,-1.5420076,-1.9678445,7.2270865
292,1747638494.3459835,1.338005,-1.310107,-0.34081256,-1.5420076,-1.9678445,7.2270865
293,1747638494.3598654,1.8224233,-0.8847468,-0.20754258,-1.4198381,-2.1040633,7.5917625
294,1747638494.375004,1.98911,-0.733183,-0.08552328,-1.2547566,-1.8542268,7.9424653
295,1747638494.3762898,2.177993,-0.6575384,0.0477162,-1.0005678,-1.6440954,8.220401
296,1747638494.3898363,2.3595889,-0.57454574,0.11726294,-0.6316924,-1.6838005,8.436029
297,1747638494.405232,3.4323952,0.008476105,-0.086498946,0.05993939,-2.0008302,8.557589
298,1747638494.4062364,3.4323952,0.008476105,-0.086498946,0.05993939,-2.0008302,8.557589
299,1747638494.4203737,3.8646157,0.38746163,-0.040612124,0.24372806,-1.9788396,8.133049
300,1747638494.4363885,3.9309916,0.66372776,-0.0074394583,0.42759308,-1.8493401,7.6943846
301,1747638494.437391,3.7001243,0.91316307,-0.023294043,0.42759308,-1.8493401,7.6943846
302,1747638494.4517357,3.0929244,1.1923257,0.0491797,1.0650122,-0.8768712,6.7274137
303,1747638494.466964,2.9772468,1.2357733,0.052838445,1.0650122,-0.8768712,6.7274137
304,1747638494.4681697,2.9772468,1.2357733,0.052838445,1.0650122,-0.8768712,6.7274137
305,1747638494.4825609,3.430932,1.5462183,-0.04085604,1.5042877,-0.4963134,6.309594
306,1747638494.497415,3.2659528,1.9835303,-0.029391957,1.4824499,-0.46454933,4.073206
307,1747638494.4984174,3.2659528,1.9835303,-0.029391957,1.4824499,-0.46454933,4.073206
308,1747638494.512635,2.8369339,2.1565588,-0.07186395,1.4089192,-0.43217444,3.1923642
309,1747638494.528075,2.3952007,2.300805,-0.080157116,1.0737168,-0.41690326,2.0628312
310,1747638494.5290754,2.3952007,2.300805,-0.080157116,1.0737168,-0.41690326,2.0628312
311,1747638494.543449,2.214367,2.400384,-0.044301365,0.40514445,-0.110868774,0.33535513
312,1747638494.5445077,2.214367,2.400384,-0.044301365,0.40514445,-0.110868774,0.33535513
313,1747638494.55825,2.0982015,2.4101405,0.0018293752,0.252509,-0.01007898,-0.19302773
314,1747638494.5734823,1.7282411,2.2212272,0.3064203,0.03504736,0.28992337,-1.6017178
315,1747638494.574484,1.7282411,2.2212272,0.3064203,0.03504736,0.28992337,-1.6017178
316,1747638494.5887413,1.7355586,2.072377,0.48188788,0.13660072,0.30885965,-2.1905746
317,1747638494.6044285,1.7987634,2.0125868,0.52115846,0.35528404,0.26304612,-2.724455
318,1747638494.605643,1.7987634,2.0125868,0.52115846,0.35528404,0.26304612,-2.724455
319,1747638494.6196244,2.1260386,1.9373997,0.43307403,0.6562027,0.31557897,-3.566279
320,1747638494.6348999,2.3380938,1.9125202,0.35739893,0.6998783,0.383383,-4.01403
321,1747638494.6359985,2.8544958,1.6972637,0.31520134,0.7191963,0.50799584,-4.701844
322,1747638494.649531,3.1178343,1.4559081,0.28614473,0.75653434,0.63810635,-5.385993
323,1747638494.665152,3.2139986,1.1818373,0.2871204,0.8593857,0.68758494,-6.1245837
324,1747638494.6661603,3.2139986,1.1818373,0.2871204,0.8593857,0.68758494,-6.1245837
325,1747638494.6799448,3.1066144,0.60515726,0.086285524,1.2176477,0.49883315,-7.2369366
326,1747638494.6951697,3.1180782,0.32425672,-0.09113336,1.2419288,0.39193487,-7.4941034
327,1747638494.6951861,3.1180782,0.32425672,-0.09113336,1.2419288,0.39193487,-7.4941034
328,1747638494.7112453,3.0602396,-0.19190145,-0.3430078,0.85999656,0.37238777,-7.9039817
329,1747638494.7269716,2.682931,-0.8024858,-0.2502585,-0.007330167,0.4646257,-8.034703
330,1747638494.7280622,2.682931,-0.8024858,-0.2502585,-0.007330167,0.4646257,-8.034703
331,1747638494.7427843,2.5704243,-0.96844065,-0.1768091,-0.20303036,0.49516806,-7.969953
332,1747638494.7585552,2.3900785,-1.1646717,-0.10457927,-0.5282302,0.8702283,-7.6859093
333,1747638494.759582,2.1797307,-1.3144975,-0.07649837,-0.5282302,0.8702283,-7.6859093
334,1747638494.7737105,1.9810606,-1.4235891,-0.056009363,-0.58679515,1.0003388,-7.5252566
335,1747638494.774714,1.5798483,-1.5978371,0.018446198,-0.5538094,1.0143882,-7.010923
336,1747638494.7890015,1.3628844,-1.7381808,0.046740532,-0.42728767,0.8781693,-6.6089854
337,1747638494.8046265,1.1398226,-1.8587364,-0.067717366,-0.3288649,0.7358419,-6.1758947
338,1747638494.8056293,1.1398226,-1.8587364,-0.067717366,-0.3288649,0.7358419,-6.1758947
339,1747638494.8200758,0.6480866,-2.0612788,-0.15680793,-0.2578539,0.8085327,-5.485561
340,1747638494.834967,-0.007683375,-2.0847254,-0.13628843,-0.10392039,0.6240568,-4.3994746
341,1747638494.8360705,-0.007683375,-2.0847254,-0.13628843,-0.10392039,0.6240568,-4.3994746
342,1747638494.8506417,-0.5982666,-2.0935063,-0.28053465,0.122856654,0.3210766,-3.2156527
343,1747638494.8661473,-0.705407,-2.0698464,-0.34105647,0.32596338,-0.11880979,-1.5937768
344,1747638494.867149,-0.705407,-2.0698464,-0.34105647,0.3870481,-0.44866732,-0.489365
345,1747638494.881515,-0.7183346,-1.9356009,-0.6741857,0.23189288,-0.74798244,1.0683719
346,1747638494.8965545,-0.6199752,-1.8291922,-0.76031876,-0.05596888,-0.77363807,2.0170176
347,1747638494.8975546,-0.6199752,-1.8291922,-0.76031876,-0.05596888,-0.77363807,2.0170176
348,1747638494.9123964,-0.37861964,-1.6325037,-0.75397694,-0.68086565,-0.9513946,3.4623587
349,1747638494.9276085,0.12046435,-1.4587437,-0.61951786,-1.3332505,-1.3612732,4.863642
350,1747638494.928612,0.12046435,-1.4587437,-0.61951786,-1.3332505,-1.3612732,4.863642
351,1747638494.9434502,0.336666,-1.4218818,-0.5277442,-1.4479371,-1.5268127,5.2955875
352,1747638494.9445548,0.336666,-1.4218818,-0.5277442,-1.4479371,-1.5268127,5.2955875
353,1747638494.958283,0.5172558,-1.3616039,-0.41499373,-1.4609939,-1.8395665,6.0560923
354,1747638494.9729276,0.7393419,-1.328919,-0.39743173,-1.3775369,-2.0637474,6.968087
355,1747638494.9883785,1.557408,-1.1568663,-0.33569032,-1.3575317,-2.1468227,7.5795455
356,1747638494.9893804,1.557408,-1.1568663,-0.33569032,-1.3482163,-2.2647161,8.014545
357,1747638495.0043771,1.923466,-1.0355787,-0.2898035,-1.3064495,-2.3929942,8.2533865
358,1747638495.005278,1.923466,-1.0355787,-0.2898035,-1.2529241,-2.5005033,8.340737
359,1747638495.019867,3.0782893,-0.46963108,-0.30224323,-1.1593881,-2.1828628,7.8129654
360,1747638495.0351107,3.115883,-0.19287711,-0.17266251,-1.1176977,-1.985559,7.584432
361,1747638495.035181,3.115883,-0.19287711,-0.17266251,-1.1176977,-1.985559,7.584432
362,1747638495.0505278,2.9091637,0.20687184,0.08018761,-0.576258,-1.8927102,7.5001354
363,1747638495.0659027,3.5436826,0.79650986,0.113116354,0.25808296,-1.677692,7.9607906
364,1747638495.0662136,3.5436826,0.79650986,0.113116354,0.25808296,-1.677692,7.9607906
365,1747638495.080676,3.9998066,0.87776464,0.09848136,0.25808296,-1.677692,7.9607906
366,1747638495.096507,3.774062,1.2428468,0.13705069,0.85808766,-0.94162107,5.5313745
367,1747638495.096507,3.774062,1.2428468,0.13705069,0.85808766,-0.94162107,5.5313745
368,1747638495.112165,3.2029917,1.4978923,0.25711864,1.0973871,-0.7718055,4.7451377
369,1747638495.1273863,2.5704243,1.7377843,0.20123126,1.6020997,-0.7705838,4.184991
370,1747638495.1284862,2.5704243,1.7377843,0.20123126,1.6020997,-0.7705838,4.184991
371,1747638495.1424594,2.6067984,1.8229417,0.0521067,1.970975,-0.59649235,3.444644
372,1747638495.157632,2.3034575,2.029417,-0.25635642,1.5116943,-0.13347013,1.839261
373,1747638495.1587265,2.3034575,2.029417,-0.25635642,1.5116943,-0.13347013,1.839261
374,1747638495.173416,1.9373691,2.1394846,-0.25245374,1.0169843,0.05467083,1.2339115
375,1747638495.1744192,1.9373691,2.1394846,-0.25245374,1.0169843,0.05467083,1.2339115
376,1747638495.1887062,1.6106123,2.2148852,0.07823627,0.3222983,0.22395188,0.37506023
377,1747638495.204326,1.5598471,2.221471,0.29834056,0.459968,0.21723256,-0.99392486
378,1747638495.2054229,1.5598471,2.221471,0.29834056,0.459968,0.21723256,-0.99392486
379,1747638495.219509,1.5971663,2.0921342,0.52506113,0.6362738,0.22822781,-1.4557254
380,1747638495.2348948,1.6120757,2.027222,0.48627836,0.86809033,0.27037627,-2.0592425
381,1747638495.2355196,1.6120757,2.027222,0.48627836,0.86809033,0.27037627,-2.0592425
382,1747638495.2507126,1.760682,1.904227,0.25394773,0.92604446,0.4866162,-3.1032567
383,1747638495.266477,1.8090079,1.8771217,0.23172083,0.8487723,0.56236124,-3.3097231
384,1747638495.2674775,1.8090079,1.8771217,0.23172083,0.8487723,0.56236124,-3.3097231
385,1747638495.282514,2.28928,1.4817632,0.25126466,0.54037076,0.88305604,-4.4031396
386,1747638495.2976704,2.4911208,1.116681,0.291267,0.7347729,0.8506812,-5.418368
387,1747638495.2987578,2.4911208,1.116681,0.291267,0.7347729,0.8506812,-5.418368
388,1747638495.3129542,2.6585393,0.8360244,0.17656519,0.8593857,0.8971056,-5.8643627
389,1747638495.328948,2.7759242,0.72912794,0.11092111,0.8357154,0.9722398,-6.43184
390,1747638495.3299515,2.9098954,0.51146275,0.03210553,0.8357154,0.9722398,-6.43184
391,1747638495.3439665,2.9545627,0.3023042,-0.000365875,0.7827244,1.0345461,-6.7054996
392,1747638495.3450408,2.9545627,0.3023042,-0.000365875,0.7827244,1.0345461,-6.7054996
393,1747638495.3591592,2.7102802,-0.19263318,0.07799236,0.94910395,0.8628981,-7.283361
394,1747638495.3751314,2.6360686,-0.25217935,-0.020123126,0.9759048,0.8396859,-7.267479
395,1747638495.376174,2.6360686,-0.25217935,-0.020123126,0.9759048,0.8396859,-7.267479
396,1747638495.3905962,2.6267996,-0.4849978,-0.15141128,0.74905145,0.8812235,-7.062845
397,1747638495.4066176,2.6121645,-0.7092792,-0.14872819,0.4201102,0.79875916,-6.9968734
398,1747638495.4077327,2.6121645,-0.7092792,-0.14872819,0.4201102,0.79875916,-6.9968734
399,1747638495.422657,2.4076405,-0.98993576,-0.0140252095,0.047493376,0.97407234,-6.826447
400,1747638495.438108,1.9732553,-1.0821668,0.29882842,0.39330927,1.0821923,-6.431229
401,1747638495.4391787,1.9732553,-1.0821668,0.29882842,0.39330927,1.0821923,-6.431229
402,1747638495.4536223,1.7108924,-1.1661351,0.24492283,0.91733986,0.93558896,-6.1862793
403,1747638495.4546795,1.7108924,-1.1661351,0.24492283,0.91733986,0.93558896,-6.1862793
404,1747638495.469251,1.2130586,-1.2923009,-0.058204614,1.5908754,0.65276664,-5.758686
405,1747638495.484221,0.30422506,-1.5871048,-0.68540585,1.6799827,0.62588936,-5.4409695
406,1747638495.4852228,0.30422506,-1.5871048,-0.68540585,1.3434821,0.53609484,-4.805077
407,1747638495.5002167,-0.032562874,-1.5944222,-0.7725146,1.0307283,0.41514707,-4.3554935
408,1747638495.515151,-0.41401803,-1.6293329,-0.80254686,0.5727457,0.20562646,-3.5528405
409,1747638495.516238,-0.41401803,-1.6293329,-0.80254686,0.5727457,0.20562646,-3.5528405
410,1747638495.5309687,-0.8081569,-1.6774149,-0.77031934,-0.12140589,-0.16401249,-1.8069625
411,1747638495.5461583,-0.88867986,-1.7647675,-0.67955184,-0.5076904,-0.28373855,-0.23334365
412,1747638495.5471625,-0.88867986,-1.7647675,-0.67955184,-0.5076904,-0.28373855,-0.23334365
413,1747638495.5616183,-0.804986,-1.877274,-0.50920653,-0.5954997,-0.7003364,1.6181344
414,1747638495.576862,-0.63683593,-1.8189476,-0.4511239,-0.4964661,-1.3912046,2.8594525
415,1747638495.5778627,-0.63683593,-1.8189476,-0.4511239,-0.4964661,-1.3912046,2.8594525
416,1747638495.5920963,-0.4045053,-1.722326,-0.48600397,-0.46653458,-1.9482974,3.952869
417,1747638495.607335,-0.1782726,-1.6151857,-0.47429594,-0.61107635,-2.1633155,4.785454
418,1747638495.608402,-0.021830542,-1.5851535,-0.42377475,-0.61107635,-2.1633155,4.785454
419,1747638495.6221058,0.21464668,-1.5605179,-0.40084654,-0.7656207,-2.4070437,5.666372
420,1747638495.6372437,0.8150171,-1.4291992,-0.4555144,-1.1033429,-2.4516354,6.6034117
421,1747638495.6382446,0.8150171,-1.4291992,-0.4555144,-1.1033429,-2.4516354,6.6034117
422,1747638495.6528957,1.0549091,-1.2844957,-0.37715617,-1.2691115,-2.405822,7.1678343
423,1747638495.6679623,1.725314,-1.0931736,-0.19656636,-1.2940036,-2.1101718,7.9516277
424,1747638495.669993,1.725314,-1.0931736,-0.19656636,-1.2940036,-2.1101718,7.9516277
425,1747638495.6834965,2.337606,-0.87840486,-0.016708292,-1.0983797,-1.9599035,8.05425
426,1747638495.6845481,2.337606,-0.87840486,-0.016708292,-0.7805864,-1.9941108,7.9131446
427,1747638495.6982179,2.5094147,-0.744891,0.060887698,-0.7805864,-1.9941108,7.9131446
428,1747638495.7137105,2.8169327,-0.27779058,0.0345447,-0.09765921,-1.8053591,7.666286
429,1747638495.7150762,2.8169327,-0.27779058,0.0345447,-0.09765921,-1.8053591,7.666286
430,1747638495.7289689,2.9662704,0.25007555,-0.12897095,0.33100286,-1.2745328,7.8764935
431,1747638495.744716,3.141982,0.3647774,-0.29077914,0.3129065,-1.3142378,7.8312907
432,1747638495.745717,3.141982,0.3647774,-0.29077914,0.3129065,-1.3142378,7.8312907
433,1747638495.7596114,3.2608304,0.7545257,-0.24025792,0.05932854,-0.88603395,7.302221
434,1747638495.7748296,3.395808,1.3138876,0.18241918,0.076126836,-0.5708368,6.494681
435,1747638495.7754207,3.395808,1.3138876,0.18241918,0.076126836,-0.5708368,6.494681
436,1747638495.7898633,3.5998137,1.57622,0.3139817,0.4356868,-0.5439595,5.9308686
437,1747638495.8055038,3.5807881,1.74437,0.26907057,0.7783721,-0.5433486,4.9039583
438,1747638495.8065085,3.5807881,1.74437,0.26907057,0.7783721,-0.5433486,4.9039583
439,1747638495.8205945,2.9880097,2.1253376,0.10189619,0.8456417,-0.41384903,2.6377149
440,1747638495.836283,2.650734,2.3112934,0.043569613,0.6431458,-0.33749312,1.9113411
441,1747638495.8372834,2.650734,2.3112934,0.043569613,0.6431458,-0.33749312,1.9113411
442,1747638495.8517146,2.394469,2.395719,-0.0028050416,0.070552856,-0.10903624,0.7281299
443,1747638495.867504,2.142137,2.24321,0.18168743,-0.82296395,0.59962296,-1.1319764
444,1747638495.8686323,2.142137,2.24321,0.18168743,-0.82296395,0.59962296,-1.1319764
445,1747638495.8827,1.9637427,2.1734195,0.34203213,-0.9531508,0.80608934,-1.6133239
446,1747638495.8982775,1.854163,2.0948174,0.57387495,-0.8971056,0.9722398,-2.132544
447,1747638495.899382,1.8753839,2.0306368,0.71909684,-0.6678088,1.0479848,-2.464845
448,1747638495.913534,2.1243312,1.9339848,0.80718124,0.11415208,0.99728453,-3.2205396
449,1747638495.915115,2.1243312,1.9339848,0.80718124,0.11415208,0.99728453,-3.2205396
450,1747638495.929168,2.5938709,1.7692801,0.5341165,0.96216077,0.98873264,-4.4953775
451,1747638495.9443986,2.799828,1.6911657,0.29809666,1.0930349,1.0931876,-5.101949
452,1747638495.9454007,2.930171,1.5684147,0.1975725,1.0930349,1.0931876,-5.101949
453,1747638495.9598005,3.0463362,1.4324921,0.1563201,1.0524899,1.483519,-5.8942943
454,1747638495.975314,3.2252188,0.86459315,0.153637,1.0942565,1.7559568,-6.6572423
455,1747638495.9764135,3.2252188,0.86459315,0.153637,1.2363548,1.7229711,-7.1007175
456,1747638495.9904041,3.205675,0.662996,0.0682052,1.3846381,1.57087,-7.442792
457,1747638496.0056958,3.2007964,0.16586334,-0.15656401,1.4375527,1.5006226,-7.6217704
458,1747638496.0066826,3.2007964,0.16586334,-0.15656401,1.4375527,1.5006226,-7.6217704
459,1747638496.0216508,3.1681118,-0.26583868,-0.285413,1.2805649,1.399222,-8.065246
460,1747638496.0372179,3.06463,-0.52112794,-0.32248834,1.0930349,1.358906,-8.189858
461,1747638496.0382187,2.9694414,-0.6465621,-0.2441606,0.9534562,1.2764417,-8.210627
462,1747638496.0524645,2.838885,-0.80885816,-0.1931515,0.82197136,1.123119,-8.151375
463,1747638496.0681064,2.5445693,-1.2022347,-0.07357136,0.50112385,1.3356938,-7.7842555
464,1747638496.0691364,2.5445693,-1.2022347,-0.07357136,0.50112385,1.3356938,-7.7842555
465,1747638496.0833719,2.3756874,-1.364043,0.0345447,0.53846186,1.367458,-7.5936713
466,1747638496.0845459,2.3756874,-1.364043,0.0345447,0.53846186,1.367458,-7.5936713
467,1747638496.0992525,1.9132215,-1.5814947,0.13363585,0.86557055,1.4022763,-7.1886797
468,1747638496.1144032,1.4400231,-1.7196126,0.0389352,1.2693406,1.3705121,-6.707943
469,1747638496.115475,1.0766177,-1.7794331,-0.015732625,1.5029896,1.2648356,-6.378085
470,1747638496.1290848,0.74153715,-1.9019403,-0.17949218,1.5029896,1.2648356,-6.378085
471,1747638496.1442862,0.45600224,-2.0178616,-0.3942608,1.6731106,0.8421293,-5.5521436
472,1747638496.1452878,0.45600224,-2.0178616,-0.3942608,1.6731106,0.8421293,-5.5521436
473,1747638496.1603944,-0.52091455,-2.002952,-0.725896,0.8381588,0.69674766,-3.7929034
474,1747638496.176244,-0.81596226,-1.9785606,-0.6465926,0.40018132,0.5458684,-2.6572618
475,1747638496.177244,-0.81596226,-1.9785606,-0.6465926,0.40018132,0.5458684,-2.6572618
476,1747638496.1918356,-0.8996562,-2.0220082,-0.5260368,0.003206948,-0.0503949,-0.5950416
477,1747638496.2071462,-0.82962155,-2.1042387,-0.6282988,-0.4466057,-0.44683477,1.6779975
478,1747638496.2081757,-0.82962155,-2.1042387,-0.6282988,-0.4466057,-0.44683477,1.6779975
479,1747638496.2232678,-0.8301094,-2.070578,-0.6104625,-0.6659762,-0.6765133,2.568689
480,1747638496.2243853,-0.8301094,-2.070578,-0.6104625,-0.6659762,-0.6765133,2.568689
481,1747638496.2393858,-0.7776368,-2.0090806,-0.59021735,-1.044167,-1.3728793,4.143453
482,1747638496.2542975,0.026495447,-1.7896776,-0.48454046,-1.4142641,-1.5836215,5.178305
483,1747638496.2553568,0.026495447,-1.7896776,-0.48454046,-1.714572,-1.6954066,5.897272
484,1747638496.269569,0.3059325,-1.7396442,-0.36276507,-1.714572,-1.6954066,5.897272
485,1747638496.2849338,0.4928641,-1.6774149,-0.27858332,-1.9787633,-1.9611251,6.9112787
486,1747638496.2849338,0.4928641,-1.6774149,-0.27858332,-1.9787633,-1.9611251,6.9112787
487,1747638496.300422,1.2826053,-1.4863062,0.032837283,-1.7961963,-2.061304,8.14832
488,1747638496.3154953,1.7560476,-1.3870018,0.110189356,-1.5102435,-2.1468227,8.371891
489,1747638496.3155804,1.7560476,-1.3870018,0.110189356,-1.5102435,-2.1468227,8.371891
490,1747638496.3307805,2.4457219,-0.95551306,0.09653002,-0.84106034,-2.5114985,8.222233
491,1747638496.3465967,2.6631737,-0.6590018,-0.013781292,-0.51082104,-2.4308667,7.97484
492,1747638496.3476777,2.6631737,-0.6590018,-0.013781292,-0.51082104,-2.4308667,7.97484
493,1747638496.3622842,2.6009445,0.045795355,-0.11726294,-0.4266768,-1.4565653,8.321191
494,1747638496.3775766,3.2029917,0.14708175,0.03673995,-0.30328566,-1.1279294,8.63089
495,1747638496.3785784,3.2029917,0.14708175,0.03673995,-0.30328566,-1.1279294,8.63089
496,1747638496.3928275,3.8255587,0.8045591,-0.0477162,-0.08025006,-1.0967762,8.076852
497,1747638496.4085727,3.8255587,0.8045591,-0.0477162,-0.07711947,-1.0350807,7.5074654
498,1747638496.4095747,3.8255587,0.8045591,-0.0477162,-0.07711947,-1.0350807,7.5074654
499,1747638496.4236517,3.4177606,1.4366387,0.54216576,0.6269584,-0.6728483,5.817251
500,1747638496.4246557,3.4177606,1.4366387,0.54216576,0.6269584,-0.6728483,5.817251
501,1747638496.4395132,3.1705508,1.6103989,0.39499256,1.3578371,-0.7601994,5.039643
502,1747638496.4548666,3.0921926,1.927399,-0.0018293752,1.4550382,-0.73637635,4.498966
503,1747638496.4554453,3.0921926,1.927399,-0.0018293752,1.4550382,-0.73637635,4.498966
504,1747638496.469998,3.1266153,2.0828655,-0.28931567,0.8170082,-0.2751867,3.324918
505,1747638496.4852412,2.9282196,2.174639,-0.17924827,-0.2060846,0.12438377,1.0341644
506,1747638496.4862432,2.4752665,2.209763,0.12043386,-0.2060846,0.12438377,1.0341644
507,1747638496.50055,2.2216845,2.2483323,0.24172144,-0.24662958,0.1427092,0.35123718
508,1747638496.5157046,2.1123488,2.2644308,0.24687417,-0.23418356,0.1750841,-0.22418094
509,1747638496.516628,2.1123488,2.2644308,0.24687417,-0.23418356,0.1750841,-0.22418094
510,1747638496.5309484,1.9693527,2.1507049,0.28614473,-0.3113794,0.6069531,-1.541244
511,1747638496.5462208,1.9405401,2.075548,0.42746398,-0.22043951,0.67292464,-1.9437923
512,1747638496.547223,1.9405401,2.075548,0.42746398,-0.22043951,0.67292464,-1.9437923
513,1747638496.561522,2.2075374,2.0286856,0.5833877,0.4356868,0.60512054,-2.9309216
514,1747638496.5775151,2.8291285,1.9564557,0.31983575,0.8357154,0.6790331,-3.7367053
515,1747638496.5785186,2.8291285,1.9564557,0.31983575,0.8357154,0.6790331,-3.7367053
516,1747638496.5928319,3.2564402,1.7394918,0.14705126,0.8406785,0.96613127,-5.0952296
517,1747638496.6082988,3.3477256,1.5906111,0.11238461,0.7547018,1.0650885,-5.8778014
518,1747638496.6092975,3.3916612,1.416607,0.10165227,0.7547018,1.0650885,-5.8778014
519,1747638496.623726,3.3989787,1.1222911,0.13778242,0.6768188,1.2367367,-7.0084796
520,1747638496.624908,3.3533356,0.89361924,0.16485718,0.77272177,1.2208546,-7.527089
521,1747638496.6386445,3.188113,0.35892338,0.097017854,0.95964104,1.1567156,-8.017599
522,1747638496.6545753,3.0082548,-0.002500146,0.06161945,1.1360232,1.0773056,-8.286983
523,1747638496.6556246,3.0082548,-0.002500146,0.06161945,1.1360232,1.0773056,-8.286983
524,1747638496.6698077,2.7912908,-0.45130682,-0.049911447,1.3846381,0.5849626,-8.473368
525,1747638496.6858552,2.6602466,-0.7446471,-0.18656576,1.278656,0.3485647,-8.450767
526,1747638496.6869118,2.6602466,-0.7446471,-0.18656576,1.278656,0.3485647,-8.450767
527,1747638496.7012637,2.502585,-0.9857892,-0.14726469,0.9391013,0.49883315,-8.153818
528,1747638496.7165668,2.371297,-1.3637991,-0.034514207,0.57152396,0.61794835,-7.7213383
529,1747638496.717666,2.371297,-1.3637991,-0.034514207,0.57152396,0.61794835,-7.7213383
530,1747638496.731748,2.091616,-1.5041426,0.056741115,0.41949937,0.7889856,-7.5105963
531,1747638496.746995,1.8090079,-1.6261619,0.16339368,0.40575528,1.0351571,-7.241823
532,1747638496.7482076,1.8090079,-1.6261619,0.16339368,0.40575528,1.0351571,-7.241823
533,1747638496.76235,1.1468961,-1.712051,0.38035756,0.88305604,1.1848146,-6.6731243
534,1747638496.7775648,0.26760706,-1.817728,-0.0974752,1.6737214,0.675368,-5.574134
535,1747638496.7786503,0.26760706,-1.817728,-0.0974752,1.6737214,0.675368,-5.574134
536,1747638496.7929795,-0.23684308,-1.9095017,-0.5260368,1.5435346,0.419423,-4.798358
537,1747638496.8086395,-0.8850212,-1.9578276,-0.8598978,0.44378054,0.15798037,-3.1557896
538,1747638496.8096402,-0.8850212,-1.9578276,-0.8598978,0.44378054,0.15798037,-3.1557896
539,1747638496.8235052,-1.1297916,-2.1042387,-0.49795586,-0.6478799,-0.06688777,-1.2626977
540,1747638496.824702,-1.1297916,-2.1042387,-0.49795586,-0.6478799,-0.06688777,-1.2626977
541,1747638496.8381567,-1.1297916,-2.1042387,-0.49795586,-1.0067526,-0.2507528,-0.3354315
542,1747638496.853434,-0.9950885,-2.1454911,-0.15311868,-1.3195828,-0.4950917,1.491689
543,1747638496.8544347,-0.9950885,-2.1454911,-0.15311868,-1.3195828,-0.4950917,1.491689
544,1747638496.8685555,-0.76812404,-2.040302,0.15168568,-0.66528904,-0.40346462,4.015786
545,1747638496.8836873,-0.5001511,-2.0034401,0.11848252,-0.17309885,-0.6111527,4.8789134
546,1747638496.8846877,-0.5001511,-2.0034401,0.11848252,-0.17309885,-0.6111527,4.8789134
547,1747638496.8995066,0.021617115,-1.8487359,-0.33764166,0.30420193,-1.125486,6.093354
548,1747638496.9149256,0.22854991,-1.7584258,-0.59314436,0.10292777,-1.2024528,6.6455603
549,1747638496.9155583,0.6920221,-1.5766164,-0.8344999,0.10292777,-1.2024528,6.6455603
550,1747638496.9339292,0.6920221,-1.5766164,-0.8344999,-1.2914838,-1.0149227,7.8288474
551,1747638496.935572,0.90383315,-1.503167,-0.77617335,-1.2914838,-1.0149227,7.8288474
552,1747638496.9452128,1.2606224,-1.4433769,-0.6229327,-1.6080554,-1.002095,8.091512
553,1747638496.960417,1.7755609,-1.2727877,-0.31224382,-1.7719152,-1.0137011,8.404265
554,1747638496.9765284,2.1448202,-0.9647819,-0.12872702,-1.5345247,-1.1352596,8.547204
555,1747638496.9765284,2.1448202,-0.9647819,-0.12872702,-1.5345247,-1.1352596,8.547204
556,1747638496.9922075,2.9757833,-0.60750496,0.15851535,-0.7488224,-1.7131212,8.308973
557,1747638497.0069318,2.9955711,-0.12479387,0.23416002,0.7472189,-1.5701829,7.7640977
558,1747638497.0079749,2.9955711,-0.12479387,0.23416002,0.7472189,-1.5701829,7.7640977
559,1747638497.0222254,2.8918457,0.1744309,-0.03305071,1.0388222,-1.3704358,7.8502274
560,1747638497.0243015,2.8918457,0.1744309,-0.03305071,1.0388222,-1.3704358,7.8502274
561,1747638497.038141,3.144421,0.82992643,-0.5477454,0.6244386,-0.61970454,8.60951
562,1747638497.05333,3.713052,0.9214562,-0.43572664,-0.09834641,-0.029626092,8.482454
563,1747638497.0543323,3.713052,0.9214562,-0.43572664,-0.09834641,-0.029626092,8.482454
564,1747638497.068629,4.3124466,1.0434755,0.10726235,-0.12071869,0.16164546,7.2118154
565,1747638497.0846364,3.7516212,1.5171617,0.4125546,1.0743276,-0.58061033,4.8404303
566,1747638497.0856392,3.7516212,1.5171617,0.4125546,1.0743276,-0.58061033,4.8404303
567,1747638497.1002805,3.0106938,2.078719,-0.115799434,1.5933187,-0.9807153,3.6773767
568,1747638497.1154702,3.0482876,2.3344655,-0.38471758,0.7608866,-0.3814741,2.6914694
569,1747638497.1165764,3.0482876,2.3344655,-0.38471758,0.7608866,-0.3814741,2.6914694
570,1747638497.1312785,2.8718443,2.4677355,-0.06259512,0.2985516,-0.057725064,2.0609987
571,1747638497.1462224,2.713939,2.495542,0.09921311,-0.32634515,0.43652672,0.56075776
572,1747638497.1475413,2.610701,2.47237,0.23342825,-0.32634515,0.43652672,0.56075776
573,1747638497.162098,2.6263118,2.3166595,0.4352693,-0.15630054,0.57396734,-1.2468156
574,1747638497.1775014,2.5267632,2.2515032,0.42624438,0.19264595,0.38643724,-2.3347347
575,1747638497.1785038,2.5267632,2.2515032,0.42624438,0.19264595,0.38643724,-2.3347347
576,1747638497.1934984,2.4562104,2.1768343,0.28590083,0.51418066,0.34001285,-3.4483855
577,1747638497.1946433,2.4562104,2.1768343,0.28590083,0.49051034,0.53548396,-4.102603
578,1747638497.2082396,2.6787844,2.0562785,0.1592471,0.49051034,0.53548396,-4.102603
579,1747638497.2235522,3.1073458,1.6840922,0.18046784,0.3440597,0.94108653,-5.329184
580,1747638497.224553,3.1073458,1.6840922,0.18046784,0.3440597,0.94108653,-5.329184
581,1747638497.239482,3.4673061,1.219187,0.24467891,0.42942563,0.9765157,-6.507585
582,1747638497.2554953,3.4233706,0.7001018,0.15729576,0.5877114,1.0027821,-7.5319757
583,1747638497.256591,3.4233706,0.7001018,0.15729576,0.5877114,1.0027821,-7.5319757
584,1747638497.2708113,3.073167,0.112445585,0.028934615,0.7671478,0.9801808,-8.258884
585,1747638497.285682,2.9582214,-0.06768687,-0.043569613,0.77272177,0.9081008,-8.403731
586,1747638497.2867348,2.9582214,-0.06768687,-0.043569613,0.77272177,0.9081008,-8.403731
587,1747638497.3016903,2.882089,-0.6436351,-0.18485835,0.4369085,1.0901333,-8.4580965
588,1747638497.3173418,2.930415,-0.8066629,-0.16241801,0.13095038,1.3289746,-8.401288
589,1747638497.3184192,2.930415,-0.8066629,-0.16241801,0.13095038,1.3289746,-8.401288
590,1747638497.332811,3.088046,-1.0892404,-0.025733208,-0.48898324,1.8200958,-8.397012
591,1747638497.3477912,2.5731075,-1.8077275,0.6092733,-0.065284304,2.2568517,-9.04451
592,1747638497.3487914,2.5731075,-1.8077275,0.6092733,-0.065284304,2.2568517,-9.04451
593,1747638497.3631032,2.003257,-1.9021841,0.7298292,0.74286664,2.1713328,-8.969987
594,1747638497.3782976,0.79132664,-2.220648,0.47896087,2.030151,1.8121548,-8.093955
595,1747638497.3792977,0.79132664,-2.220648,0.47896087,2.030151,1.8121548,-8.093955
596,1747638497.3942237,0.12948927,-2.424684,-0.18388268,2.6532152,0.9649096,-6.6810656
597,1747638497.395432,0.12948927,-2.424684,-0.18388268,2.6532152,0.9649096,-6.6810656
598,1747638497.409775,-0.42523822,-2.6901875,-1.027316,1.3877686,0.8928296,-4.6468678
599,1747638497.4254818,-0.71223664,-2.7177806,-1.0087478,0.7141568,0.99728453,-3.842382
600,1747638497.4264827,-0.71223664,-2.7177806,-1.0087478,0.7141568,0.99728453,-3.842382
601,1747638497.4415293,-1.3345596,-2.7731802,-0.6178104,-0.38246673,0.29236677,-0.6341358
602,1747638497.4566875,-1.3677628,-2.7065604,-0.591193,-0.36185065,-0.18111621,0.7660025
603,1747638497.4576874,-1.3677628,-2.7065604,-0.591193,-0.36185065,-0.18111621,0.7660025
604,1747638497.4719715,-1.1412861,-2.5191104,-0.7769051,-0.4278985,-0.7870767,3.1300578
605,1747638497.4855921,-0.248795,-2.2062566,-0.81303525,-0.61985725,-0.98438036,4.0341115
606,1747638497.4867942,-0.248795,-2.2062566,-0.81303525,-1.1719105,-1.581789,5.377441
607,1747638497.5007489,0.14509992,-2.0398142,-0.7851982,-1.1719105,-1.581789,5.377441
608,1747638497.5154588,0.39767563,-1.9297467,-0.6829667,-1.9295901,-1.9525733,6.3639593
609,1747638497.5164382,0.39767563,-1.9297467,-0.6829667,-1.9295901,-1.9525733,6.3639593
610,1747638497.5309434,1.0607631,-1.5671036,-0.11384811,-2.1165094,-2.3679495,7.413395
611,1747638497.5466082,1.2494022,-1.4221257,-0.051131032,-1.8466676,-2.5231047,7.8276258
612,1747638497.547662,1.2494022,-1.4221257,-0.051131032,-1.8466676,-2.5231047,7.8276258
613,1747638497.561965,1.9895978,-1.09171,-0.0064637917,-1.3737955,-2.537765,8.420758
614,1747638497.577578,2.9482207,-0.29782224,-0.081864536,-1.4099119,-2.3025887,8.103118
615,1747638497.5785797,2.9482207,-0.29782224,-0.081864536,-1.4099119,-2.3025887,8.103118
616,1747638497.5926988,2.9821558,-0.039118133,-0.048691865,-1.5108544,-2.037481,7.712176
617,1747638497.6076443,2.5645704,0.21296974,0.2968771,-1.4479371,-1.837734,7.4304986
618,1747638497.6086462,2.5645704,0.21296974,0.2968771,-1.2068051,-1.8994296,7.364527
619,1747638497.6225858,2.439624,0.4116399,0.13997768,-0.5774797,-2.0240424,7.549003
620,1747638497.6385856,2.8435194,0.7706242,-0.038904708,-0.58992577,-1.9360803,7.7017913
621,1747638497.6396554,3.3750446,1.2865385,-0.110189356,-0.91146046,-1.7143428,7.7133975
622,1747638497.653554,3.818973,1.5620729,-0.000365875,-1.2148988,-1.4186927,7.406065
623,1747638497.6546252,3.818973,1.5620729,-0.000365875,-1.2148988,-1.4186927,7.406065
624,1747638497.668924,3.8253145,1.9681636,0.8740754,-0.9625426,-0.52135813,4.965043
625,1747638497.6840878,3.2410731,2.1328988,1.255988,-0.031000499,-0.8255601,4.084812
626,1747638497.685155,3.2410731,2.1328988,1.255988,-0.031000499,-0.8255601,4.084812
627,1747638497.699365,2.970905,2.264675,0.9458174,0.8412894,-1.1792406,3.396998
628,1747638497.7142894,3.0172799,2.5934134,0.30202982,0.9035958,-0.80845636,2.2613566
629,1747638497.7153544,3.0172799,2.5934134,0.30202982,0.9035958,-0.80845636,2.2613566
630,1747638497.7296157,2.8147376,2.7351902,0.5836316,-0.057190575,0.23739052,0.10567658
631,1747638497.745368,2.6851263,2.7176282,0.73495144,0.013820419,0.49883315,-0.6549046
632,1747638497.7463706,2.6851263,2.7176282,0.73495144,0.013820419,0.49883315,-0.6549046
633,1747638497.7607534,2.6631737,2.523867,0.9099311,0.4637094,0.7175165,-1.7587056
634,1747638497.776465,2.6751256,2.3703518,0.8235541,1.0301175,0.6949151,-2.90099
635,1747638497.7774665,2.6751256,2.3703518,0.8235541,1.0301175,0.6949151,-2.90099
636,1747638497.7919185,2.6751256,2.3703518,0.8235541,1.3179793,0.7505022,-3.6872268
637,1747638497.8074763,3.1520133,1.9999033,0.322031,1.2905675,0.8189171,-5.465403
638,1747638497.808564,3.31062,1.7555903,0.19513334,1.2905675,0.8189171,-5.465403
639,1747638497.8227043,3.284033,1.3748974,0.11409202,1.1833638,1.02294,-6.5210238
640,1747638497.838719,3.2918382,0.8450493,0.06844912,1.14908,1.0907441,-6.999928
641,1747638497.8398244,3.2918382,0.8450493,0.06844912,1.14908,1.0907441,-6.999928
642,1747638497.8547668,3.101248,-0.14406328,0.016250947,1.1814549,1.1212865,-7.753713
643,1747638497.8554342,3.101248,-0.14406328,0.016250947,1.3142378,1.0595909,-8.295535
644,1747638497.8707094,2.7703142,-0.52015233,-0.033538543,1.4506859,0.9606337,-8.533231
645,1747638497.8855436,2.4833157,-0.7863874,-0.08625503,1.5304015,0.8732825,-8.500855
646,1747638497.8866124,2.4833157,-0.7863874,-0.08625503,1.5304015,0.8732825,-8.500855
647,1747638497.9015796,2.3129702,-1.1141503,-0.18680969,1.3534849,0.7230141,-8.063413
648,1747638497.9166627,2.280743,-1.5710063,-0.09918261,0.7073611,1.0773056,-7.5765676
649,1747638497.9177024,2.280743,-1.5710063,-0.09918261,0.7073611,1.0773056,-7.5765676
650,1747638497.9321682,2.112105,-1.6796101,-0.014756958,0.5808394,1.3014865,-7.4415703
651,1747638497.947757,1.5244488,-1.9214536,0.112140685,0.57709795,1.7168626,-7.013366
652,1747638497.9487562,1.5244488,-1.9214536,0.112140685,0.57709795,1.7168626,-7.013366
653,1747638497.9630277,0.82599336,-2.0129833,0.244435,1.0487484,1.4010545,-6.3493752
654,1747638497.9782429,0.07945585,-2.1462228,-0.15827143,1.709227,0.53914905,-5.0885105
655,1747638497.9793246,0.07945585,-2.1462228,-0.15827143,1.709227,0.53914905,-5.0885105
656,1747638497.993473,-0.21290876,-2.1982076,-0.3766683,1.7547351,0.40231928,-4.5882263
657,1747638497.9947367,-0.21290876,-2.1982076,-0.3766683,1.4886348,0.26732203,-3.6041515
658,1747638498.0094981,-1.2889166,-2.4202936,-1.0546347,0.7815027,0.11270132,-2.3017488
659,1747638498.0250788,-1.6174115,-2.436636,-1.1061316,0.08674031,-0.19455485,-0.9670476
660,1747638498.026079,-1.6174115,-2.436636,-1.1061316,0.08674031,-0.19455485,-0.9670476
661,1747638498.0402646,-1.630339,-2.4324894,-1.0419511,-0.88030726,-0.85121566,1.1978714
662,1747638498.0563812,-0.91383386,-2.2323558,-0.62927455,-1.76008,-1.5188717,3.973027
663,1747638498.0573814,-0.91383386,-2.2323558,-0.62927455,-1.76008,-1.5188717,3.973027
664,1747638498.0718186,-0.6275671,-2.067895,-0.46234405,-1.8342216,-1.8316255,4.8471494
665,1747638498.0879245,-0.3637407,-1.9583154,-0.3715461,-1.8397956,-2.349013,6.090911
666,1747638498.088925,-0.00085370836,-1.8277285,-0.27931508,-1.8397956,-2.349013,6.090911
667,1747638498.10372,0.37474748,-1.7218382,-0.19607852,-1.7862701,-1.9024838,7.1470656
668,1747638498.1048143,0.37474748,-1.7218382,-0.19607852,-1.7862701,-1.9024838,7.1470656
669,1747638498.118734,0.6822349,-1.6071365,-0.097231284,-1.7862701,-1.9024838,7.1470656
670,1747638498.1338623,1.1649765,-1.4126129,0.13070884,-1.5556753,-1.8267387,7.785477
671,1747638498.1349196,1.1649765,-1.4126129,0.13070884,-1.5556753,-1.8267387,7.785477
672,1747638498.1485283,1.9852072,-1.1744283,0.1504661,-1.1700016,-2.0234315,8.115946
673,1747638498.164306,2.2817185,-0.9992047,0.20293866,-0.94261366,-2.074132,8.114724
674,1747638498.165189,2.2817185,-0.9992047,0.20293866,-0.94261366,-2.074132,8.114724
675,1747638498.179785,2.481852,-0.66461194,0.19366984,-0.5974086,-1.8383448,8.359063
676,1747638498.1950457,3.4634032,-0.31099376,0.3312998,-0.41361994,-1.6013361,8.685866
677,1747638498.195631,3.4634032,-0.31099376,0.3312998,0.08299887,-1.4828317,8.886835
678,1747638498.2110815,3.9102585,0.094121344,0.14558776,0.42072105,-1.4999354,8.483676
679,1747638498.2261636,3.9805372,0.41237164,-0.008171208,0.50921756,-1.2433796,8.110448
680,1747638498.2272243,3.9805372,0.41237164,-0.008171208,0.50921756,-1.2433796,8.110448
681,1747638498.2410526,3.7089055,0.86727625,0.06552211,0.64688724,-0.45660833,7.2142587
682,1747638498.2561677,3.358702,1.0205169,0.15851535,1.0275978,-0.24464433,6.754902
683,1747638498.2573571,3.358702,1.0205169,0.15851535,1.0275978,-0.24464433,6.754902
684,1747638498.2717872,3.4904783,1.1454936,0.22733033,1.7335081,-0.37658733,6.1599364
685,1747638498.2870898,3.5976183,1.5969529,-0.21242093,2.2612803,-0.6930062,4.4146695
686,1747638498.28819,3.5976183,1.5969529,-0.21242093,2.2612803,-0.6930062,4.4146695
687,1747638498.3020685,3.170307,1.9686514,-0.5907052,1.7890189,-0.4731012,2.9828436
688,1747638498.3174648,2.9611483,2.0601811,-0.62390834,0.7285117,-0.20860434,1.6309621
689,1747638498.3187802,2.8240063,2.1111598,-0.56070346,0.7285117,-0.20860434,1.6309621
690,1747638498.3329663,2.6492703,2.1565588,-0.46478322,0.35276428,-0.12736166,1.0653176
691,1747638498.3486674,2.3722727,2.1397285,-0.29321834,-0.37307495,0.20073968,-0.18325418
692,1747638498.3496697,2.3722727,2.1397285,-0.29321834,-0.37307495,0.20073968,-0.18325418
693,1747638498.3643048,2.17531,1.9725542,-0.013781292,-0.7980719,0.39682165,-1.3427186
694,1747638498.3652823,2.17531,1.9725542,-0.013781292,-0.7980719,0.39682165,-1.3427186
695,1747638498.3794076,2.0489001,1.8034284,0.39474866,-0.5438068,0.31802234,-2.6835284
696,1747638498.3947082,2.2263188,1.6150333,0.4557583,-0.22295925,0.26121357,-3.173504
697,1747638498.3963528,2.2263188,1.6150333,0.4557583,0.10544751,0.24838577,-3.6689014
698,1747638498.4108562,2.3354106,1.5652438,0.4179512,0.2992388,0.243499,-4.0317445
699,1747638498.4265554,2.707841,1.3377914,0.28053465,0.5160132,0.27770644,-5.0359774
700,1747638498.4278455,2.707841,1.3377914,0.28053465,0.5160132,0.27770644,-5.0359774
701,1747638498.441997,2.947733,1.1383896,0.24565458,0.51479155,0.33085015,-5.6530094
702,1747638498.4573836,3.1356401,0.8950827,0.2180615,0.51479155,0.44080266,-6.2082696
703,1747638498.457928,3.1356401,0.8950827,0.2180615,0.51479155,0.44080266,-6.2082696
704,1747638498.472706,2.862301,0.06168043,0.21171968,0.6375718,0.5898494,-7.324288
705,1747638498.4880152,2.862301,0.06168043,0.21171968,0.88366693,0.45240876,-7.7323337
706,1747638498.4880152,2.862301,0.06168043,0.21171968,0.88366693,0.45240876,-7.7323337
707,1747638498.5034025,2.788364,-0.27535143,0.030154198,1.1005177,0.16042376,-7.899706
708,1747638498.519027,2.9152615,-0.60457796,-0.23659918,0.9079481,0.06383354,-7.991944
709,1747638498.51964,2.9152615,-0.60457796,-0.23659918,0.9079481,0.06383354,-7.991944
710,1747638498.534076,2.8857477,-0.79882705,-0.24538018,0.38017607,0.20135053,-8.161759
711,1747638498.5351982,2.8857477,-0.79882705,-0.24538018,0.38017607,0.20135053,-8.161759
712,1747638498.549419,2.6512218,-1.1351272,-0.015732625,0.061848287,0.2911451,-8.233229
713,1747638498.5641127,2.1350636,-1.3891969,0.21903718,-0.14072394,0.5373165,-8.136104
714,1747638498.565115,2.1350636,-1.3891969,0.21903718,-0.055358034,0.6857524,-7.875272
715,1747638498.5798395,1.7633651,-1.4828913,0.32568973,0.33970743,0.7773795,-7.337726
716,1747638498.595133,1.5576519,-1.5034109,0.33203158,0.71232426,0.6387172,-6.962055
717,1747638498.5965123,1.5576519,-1.5034109,0.33203158,0.71232426,0.6387172,-6.962055
718,1747638498.610412,1.0390545,-1.520485,0.08726119,1.1671764,0.4597389,-6.2962317
719,1747638498.6256554,0.10384752,-1.8018733,-0.35252056,1.0818105,0.60634226,-5.3719435
720,1747638498.627012,0.10384752,-1.8018733,-0.35252056,1.0818105,0.60634226,-5.3719435
721,1747638498.6406138,-0.36813122,-1.8638587,-0.48819923,0.84251106,0.4646257,-4.674356
722,1747638498.6561823,-0.68272275,-1.8565413,-0.55311155,0.6139015,0.31557897,-3.966384
723,1747638498.6572814,-1.0312186,-1.8531264,-0.57338715,0.21013145,0.024128467,-2.5473094
724,1747638498.671573,-1.1041803,-1.8360522,-0.55408716,-0.11018158,-0.23059484,-1.0873845
725,1747638498.686773,-1.0675623,-1.8694689,-0.5328665,-0.25159273,-0.2892362,-0.06963659
726,1747638498.6878488,-1.0675623,-1.8694689,-0.5328665,-0.25159273,-0.2892362,-0.06963659
727,1747638498.7022626,-1.0602448,-1.8316313,-0.5858269,-0.37307495,-0.43339613,1.3939534
728,1747638498.7182932,-1.0128944,-1.7252531,-0.67516136,-0.8347991,-0.8567133,3.3432434
729,1747638498.7194717,-1.0128944,-1.7252531,-0.67516136,-0.8347991,-0.8567133,3.3432434
730,1747638498.7341554,-0.8125474,-1.671561,-0.60631585,-1.1538141,-1.0979979,4.235691
731,1747638498.7352266,-0.8125474,-1.671561,-0.60631585,-1.1538141,-1.0979979,4.235691
732,1747638498.7491026,-0.23537959,-1.5753968,-0.4162133,-1.6037031,-1.3844854,5.529542
733,1747638498.7643106,0.40377355,-1.4067589,-0.063326865,-1.6535635,-1.4583979,6.610131
734,1747638498.7653127,0.40377355,-1.4067589,-0.063326865,-1.6535635,-1.4583979,6.610131
735,1747638498.7794075,0.5399705,-1.3330655,0.02625153,-1.6535635,-1.4583979,6.610131
736,1747638498.7948155,0.6512575,-1.2969354,0.076528855,-1.2497935,-1.3686032,7.386518
737,1747638498.7954848,0.77108157,-1.2713243,0.11165286,-1.2497935,-1.3686032,7.386518
738,1747638498.8094754,1.4566094,-1.238121,0.19586508,-0.6372664,-1.5402514,8.483065
739,1747638498.8250835,1.9620352,-1.1380543,0.06015595,-0.3768164,-1.757713,8.539874
740,1747638498.8260906,1.9620352,-1.1380543,0.06015595,-0.3768164,-1.757713,8.539874
741,1747638498.840245,2.3327274,-0.92624307,0.013293459,-0.1681357,-1.5665178,8.283318
742,1747638498.8551254,2.638782,-0.2426666,0.024788031,-0.074676074,-1.4712256,8.158094
743,1747638498.8566558,2.638782,-0.2426666,0.024788031,0.12598725,-0.9929322,8.185582
744,1747638498.8704898,2.599969,-0.16430837,0.100432694,0.25373068,-0.63619745,8.3932705
745,1747638498.8863628,2.9243171,0.06314393,0.17412601,0.472414,-0.49448085,8.729847
746,1747638498.8874269,2.9243171,0.06314393,0.17412601,0.472414,-0.49448085,8.729847
747,1747638498.9018276,3.9285524,0.44944695,-0.021098793,0.5621322,-0.3387148,8.377999
748,1747638498.9167142,4.1674685,1.2196748,0.5260368,1.1080005,-0.13469182,6.4012213
749,1747638498.9178247,4.1674685,1.2196748,0.5260368,1.1080005,-0.13469182,6.4012213
750,1747638498.9321887,3.9502609,1.369775,0.5597278,1.799556,-0.32527617,5.5112166
751,1747638498.947428,3.5815198,1.5557309,0.15583226,2.764771,-0.5714476,3.8594093
752,1747638498.9484682,3.5815198,1.5557309,0.15583226,2.764771,-0.5714476,3.8594093
753,1747638498.9626555,3.0407262,1.909593,-0.5387204,2.620153,-0.39857784,3.0341547
754,1747638498.9778328,2.7920227,2.2141535,-0.6836984,1.411439,-0.033902023,2.1660643
755,1747638498.9788318,2.7920227,2.2141535,-0.6836984,1.411439,-0.033902023,2.1660643
756,1747638498.9930115,2.7612891,2.2004943,-0.53457385,0.14904673,0.25205085,1.0921949
757,1747638498.9940698,2.5309098,2.1900058,-0.16705243,0.14904673,0.25205085,1.0921949
758,1747638499.0087664,2.3517835,2.132655,0.0418622,-0.4821112,0.507385,-0.9829296
759,1747638499.023649,2.2068055,2.063596,0.15827143,-0.34627405,0.40048674,-1.6701328
760,1747638499.024654,2.2068055,2.063596,0.15827143,-0.34627405,0.40048674,-1.6701328
761,1747638499.0391865,2.1711633,1.8668772,0.16924767,-0.08773294,0.2398339,-2.561359
762,1747638499.0547698,2.4769738,1.6299121,0.19196242,0.35528404,0.18424681,-3.9602754
763,1747638499.0563483,2.4769738,1.6299121,0.19196242,0.35528404,0.18424681,-3.9602754
764,1747638499.0702345,2.6502461,1.4383461,0.18559009,0.48180577,0.22761697,-4.401918
765,1747638499.0858586,2.857179,1.2094303,0.09287128,0.7378271,0.14087665,-5.351175
766,1747638499.0868618,2.857179,1.2094303,0.09287128,0.7378271,0.14087665,-5.351175
767,1747638499.100783,3.0785332,0.90703464,-0.07625445,0.7615738,0.07910472,-6.111145
768,1747638499.1163888,3.1573794,0.69449174,-0.17754084,0.64131325,0.11025793,-6.600434
769,1747638499.1174805,3.1573794,0.69449174,-0.17754084,0.64131325,0.11025793,-6.600434
770,1747638499.131525,3.1085656,0.24958774,-0.19217584,0.33100286,0.1958529,-7.362771
771,1747638499.14728,2.8318117,-0.4435015,-0.04235003,0.18142164,0.19218782,-7.666973
772,1747638499.1482832,2.8318117,-0.4435015,-0.04235003,0.07490514,0.19218782,-7.9265833
773,1747638499.1622791,2.8318117,-0.4435015,-0.04235003,0.07490514,0.19218782,-7.9265833
774,1747638499.1771357,2.6400015,-0.96551365,0.040886533,0.102316916,0.33329353,-7.954682
775,1747638499.1781383,2.6400015,-0.96551365,0.040886533,0.102316916,0.33329353,-7.954682
776,1747638499.1928518,2.4520638,-1.2251934,0.08652944,0.140953,0.53181887,-7.893597
777,1747638499.2078521,2.262449,-1.3616039,0.114823766,0.20387027,0.6436039,-7.804414
778,1747638499.2088563,2.262449,-1.3616039,0.114823766,0.20387027,0.6436039,-7.804414
779,1747638499.2237782,1.8531874,-1.5038987,0.22489117,0.49982578,0.62527853,-7.506931
780,1747638499.2247787,1.8531874,-1.5038987,0.22489117,0.49982578,0.62527853,-7.506931
781,1747638499.2385366,1.0539334,-1.6376262,0.05722895,1.1080005,0.77127105,-6.7293224
782,1747638499.2542567,0.66223377,-1.671317,-0.06479037,1.2936218,0.8696174,-6.282182
783,1747638499.2553315,0.66223377,-1.671317,-0.06479037,1.2936218,0.8696174,-6.282182
784,1747638499.2694795,-0.025733208,-1.6966844,-0.3293485,1.4051777,0.7175165,-5.287036
785,1747638499.2849412,-0.3061459,-1.7113194,-0.4642954,0.9366579,0.08765658,-3.5436776
786,1747638499.2859442,-0.80327857,-1.6325037,-0.60314494,0.9366579,0.08765658,-3.5436776
787,1747638499.2999487,-1.0043573,-1.5871048,-0.6575689,0.6194755,-0.21776704,-2.612059
788,1747638499.315129,-1.0753676,-1.5590544,-0.69272333,0.3671192,-0.38208497,-1.9071414
789,1747638499.3156533,-1.0753676,-1.5590544,-0.69272333,0.3671192,-0.38208497,-1.9071414
790,1747638499.3302386,-1.1088147,-1.598081,-0.74592763,-0.30389652,-0.53052086,-0.18691926
791,1747638499.3461554,-1.1529942,-1.6537244,-0.7590992,-0.7320241,-0.56411743,0.7806628
792,1747638499.3472512,-1.1529942,-1.6537244,-0.7590992,-0.7320241,-0.56411743,0.7806628
793,1747638499.361433,-1.1859229,-1.7098559,-0.6585445,-1.4578633,-0.6190937,2.4281943
794,1747638499.3765697,-0.85575116,-1.6334796,-0.30053583,-1.813071,-1.0491302,4.4183345
795,1747638499.377573,-0.85575116,-1.6334796,-0.30053583,-1.813071,-1.0491302,4.4183345
796,1747638499.3917162,-0.58851,-1.5792994,-0.15900318,-1.7196114,-1.3124053,5.1917434
797,1747638499.407051,-0.29760882,-1.520485,-0.08771854,-1.5295615,-1.5170392,5.863065
798,1747638499.4080212,-0.059668116,-1.463622,-0.044057447,-1.5295615,-1.5170392,5.863065
799,1747638499.422064,0.23638575,-1.406515,-0.038416874,-1.1382375,-1.5139849,6.7720056
800,1747638499.4381707,0.78791183,-1.265958,-0.035489876,-0.847856,-0.97582847,7.775704
801,1747638499.4392004,0.78791183,-1.265958,-0.035489876,-0.847856,-0.97582847,7.775704
802,1747638499.4529305,1.0427133,-1.2427554,0.02356845,-0.8142594,-0.9495621,8.061581
803,1747638499.4685714,2.0215814,-1.0045708,0.10701844,-0.5463265,-1.2769762,8.305308
804,1747638499.4696019,2.0215814,-1.0045708,0.10701844,-0.5463265,-1.2769762,8.305308
805,1747638499.4837997,2.3698332,-0.7644348,0.091651686,-0.28152424,-1.3704358,8.114724
806,1747638499.484801,2.3698332,-0.7644348,0.091651686,-0.28152424,-1.3704358,8.114724
807,1747638499.499523,2.4496248,-0.64753777,0.08848077,-0.112014115,-1.2128372,8.005993
808,1747638499.5144393,2.5074635,-0.41203624,0.15680793,0.20387027,-0.6514686,8.351122
809,1747638499.5154903,3.2625377,-0.33026317,0.14217293,0.6269584,-0.6911737,8.442138
810,1747638499.529595,3.6908555,-0.07622396,-0.016708292,0.79639214,-0.7302679,8.150764
811,1747638499.5453708,3.9829762,0.40676156,-0.07040045,0.7827244,-0.6734591,7.8972626
812,1747638499.5463731,3.9829762,0.40676156,-0.07040045,0.7827244,-0.6734591,7.8972626
813,1747638499.560344,4.2890005,0.9973448,0.06308295,0.64810896,-0.38941512,7.076818
814,1747638499.5763571,4.1872563,1.2780014,0.2739489,1.2724712,-0.060779303,4.7573547
815,1747638499.5775192,3.8648598,1.4344435,0.27150977,1.2724712,-0.060779303,4.7573547
816,1747638499.5917394,3.5144124,1.5786592,0.12872702,1.5272709,-0.13774605,3.8423057
817,1747638499.6077356,2.9802043,1.8927629,-0.30931684,1.2955307,-0.2855711,2.3719962
818,1747638499.6087394,2.9802043,1.8927629,-0.30931684,1.2955307,-0.2855711,2.3719962
819,1747638499.6227329,2.5496914,2.1856153,-0.4249943,0.42568418,0.0045813546,1.4605358
820,1747638499.6382425,2.557009,2.2656505,-0.29102308,-0.15813309,0.18180342,0.9242119
821,1747638499.639794,2.608262,2.221471,-0.16754027,-0.47653723,0.27281967,0.379947
822,1747638499.653067,2.4838035,2.1050618,0.114823766,-0.769973,0.44446772,-0.91634727
823,1747638499.6540668,2.4838035,2.1050618,0.114823766,-0.7425612,0.4621823,-1.5198643
824,1747638499.6685855,2.1696997,1.9252038,0.35325232,-0.57434916,0.4542413,-2.1954615
825,1747638499.6841028,2.055242,1.8117216,0.40401748,-0.33382803,0.47684264,-2.697578
826,1747638499.6851046,2.055242,1.8117216,0.40401748,-0.33382803,0.47684264,-2.697578
827,1747638499.69956,2.2190013,1.5266744,0.44380638,0.193944,0.4401918,-3.4746518
828,1747638499.7155175,2.413281,1.2980026,0.4130424,0.9497148,0.30885965,-4.7904167
829,1747638499.7165842,2.413281,1.2980026,0.4130424,0.9497148,0.30885965,-4.7904167
830,1747638499.730886,2.638782,0.9607268,0.17095509,1.0406547,0.3302393,-5.157536
831,1747638499.7461107,2.8169327,0.6376287,0.03356903,1.0456941,0.40048674,-5.646901
832,1747638499.7481108,2.8169327,0.6376287,0.03356903,1.007058,0.4530196,-5.987754
833,1747638499.762179,2.8947725,0.33694038,0.024056282,0.9179507,0.51166093,-6.546679
834,1747638499.7783017,2.9128225,0.0831451,0.019177949,0.8980218,0.47806433,-6.894862
835,1747638499.779398,2.860106,-0.15284428,0.025275866,0.8980218,0.47806433,-6.894862
836,1747638499.7936473,2.7871442,-0.28876686,0.0018293752,0.9272661,0.31680065,-7.374988
837,1747638499.794843,2.7871442,-0.28876686,0.0018293752,0.9272661,0.31680065,-7.374988
838,1747638499.809386,2.6658568,-0.6136029,-0.095523864,0.75096035,0.26915458,-7.4763885
839,1747638499.8250537,2.6246045,-0.84032345,-0.08625503,0.59389627,0.34245625,-7.495325
840,1747638499.8260605,2.6246045,-0.84032345,-0.08625503,0.59389627,0.34245625,-7.495325
841,1747638499.8405893,2.4093785,-1.0911916,-0.004756375,0.4462239,0.4750101,-7.502655
842,1747638499.8558698,1.8812379,-1.2844957,0.08018761,0.41881216,0.64910156,-7.2595377
843,1747638499.856913,1.8812379,-1.2844957,0.08018761,0.41881216,0.64910156,-7.2595377
844,1747638499.8706229,1.5937514,-1.3093752,0.120921694,0.52914643,0.7456154,-7.0335245
845,1747638499.8858345,1.0388106,-1.3333095,0.11848252,0.6599441,0.77860117,-6.810565
846,1747638499.8869278,1.0388106,-1.3333095,0.11848252,0.8282325,0.783488,-6.568059
847,1747638499.9014378,0.7100719,-1.3637991,0.061375532,1.0879953,0.78715307,-6.216211
848,1747638499.9165983,0.24053232,-1.4921907,-0.17168686,1.4968048,0.61122906,-5.5686364
849,1747638499.9175992,0.24053232,-1.4921907,-0.17168686,1.4968048,0.61122906,-5.5686364
850,1747638499.9318376,-0.4306044,-1.7323266,-0.5748506,1.521086,0.25205085,-4.78553
851,1747638499.9471781,-0.4306044,-1.7323266,-0.5748506,1.521086,0.25205085,-4.78553
852,1747638499.948719,-0.4306044,-1.7323266,-0.5748506,1.521086,0.25205085,-4.78553
853,1747638499.962718,-1.4014233,-1.8248016,-1.0109432,-0.03603999,-0.6453601,-1.6114914
854,1747638499.9785078,-1.4990509,-1.9656329,-0.9501774,-0.5351022,-0.55251133,-0.79845375
855,1747638499.9795938,-1.4990509,-1.9656329,-0.9501774,-0.5351022,-0.55251133,-0.79845375
856,1747638499.9937687,-1.5422546,-1.9636816,-0.8274264,-1.545749,-0.3631487,1.2100884
857,1747638499.9949172,-1.5422546,-1.9636816,-0.8274264,-1.545749,-0.3631487,1.2100884
858,1747638500.0093713,-1.1339382,-1.7740364,-0.31443906,-1.7357988,-1.2934691,3.6437802
859,1747638500.0249274,-0.90819323,-1.6859521,-0.22854991,-1.611186,-1.58973,4.273564
860,1747638500.0259273,-0.90819323,-1.6859521,-0.22854991,-1.611186,-1.58973,4.273564
861,1747638500.0395763,-0.111896776,-1.4660611,-0.10384752,-1.2136008,-2.037481,5.698136
862,1747638500.0548842,0.1885476,-1.3852942,-0.09771912,-1.0921185,-1.9867808,6.0719743
863,1747638500.0555453,0.1885476,-1.3852942,-0.09771912,-1.0921185,-1.9867808,6.0719743
864,1747638500.070417,0.4911567,-1.2093389,-0.07893753,-1.0117922,-1.6605883,6.669994
865,1747638500.0851934,1.1159188,-1.1165895,0.09457869,-0.94818765,-1.1706887,7.6632314
866,1747638500.0862684,1.1159188,-1.1165895,0.09457869,-0.94818765,-1.1706887,7.6632314
867,1747638500.1005678,1.5420107,-1.078508,0.11165286,-0.85663694,-1.1932901,7.772039
868,1747638500.1165237,2.0596323,-0.804925,0.097749606,-0.587406,-1.4162494,7.677281
869,1747638500.1175625,2.0596323,-0.804925,0.097749606,-0.587406,-1.4162494,7.677281
870,1747638500.131689,2.2739131,-0.72976816,0.09653002,-0.51700586,-1.4614521,7.72256
871,1747638500.147242,2.4586494,-0.40493217,0.062107284,-0.20112146,-0.9581139,7.921696
872,1747638500.1482532,2.4586494,-0.40493217,0.062107284,-0.20112146,-0.9581139,7.921696
873,1747638500.163011,2.4566982,-0.33636108,0.0477162,-0.13255386,-0.7272137,8.246057
874,1747638500.1781855,3.2737887,-0.31562817,0.045033116,-0.0098499125,-0.72049433,8.731069
875,1747638500.1792817,3.2737887,-0.31562817,0.045033116,-0.0098499125,-0.72049433,8.731069
876,1747638500.1934695,3.9065998,0.10534152,0.077260606,0.07986828,-0.6771242,8.202075
877,1747638500.1946,3.9065998,0.10534152,0.077260606,0.28610557,-0.67101574,7.4909725
878,1747638500.2090747,4.125759,0.28937665,0.2180615,0.590842,-0.73698723,6.7946067
879,1747638500.2244303,4.0474005,0.8423662,0.43039095,0.97773737,-0.82739264,6.0890784
880,1747638500.2254326,3.5651774,1.2035763,0.23050125,0.97773737,-0.82739264,6.0890784
881,1747638500.2392814,3.3282125,1.4034355,-0.010366458,1.6637952,-0.641695,4.144675
882,1747638500.2545404,3.3282125,1.4034355,-0.010366458,1.6637952,-0.641695,4.144675
883,1747638500.2555482,3.3282125,1.4034355,-0.010366458,1.6637952,-0.641695,4.144675
884,1747638500.269848,2.7061336,1.8029406,-0.15656401,0.66246384,0.05833591,2.179503
885,1747638500.2852063,2.460357,1.9076418,0.006707709,0.33413345,0.118198946,1.2968287
886,1747638500.2862377,2.460357,1.9076418,0.006707709,0.33413345,0.118198946,1.2968287
887,1747638500.30033,2.4423072,1.8634624,-0.007683375,0.27052897,0.08765658,0.82403296
888,1747638500.3156157,2.2907436,1.7829394,0.055765446,0.07986828,0.16592139,-1.2779688
889,1747638500.3166158,2.2907436,1.7829394,0.055765446,0.07986828,0.16592139,-1.2779688
890,1747638500.330755,2.1960733,1.6675057,0.08677336,0.09857547,0.2917559,-2.0622966
891,1747638500.3461406,2.1762855,1.5503649,0.12945877,0.19951798,0.32596338,-2.6071725
892,1747638500.347228,2.1762855,1.5503649,0.12945877,0.19951798,0.32596338,-2.6071725
893,1747638500.3609715,2.2309532,1.3368158,0.037715614,0.4537068,0.22883865,-3.4868689
894,1747638500.3761935,2.5948465,1.0913137,-0.09235295,0.44316968,0.17141901,-4.021971
895,1747638500.3772328,2.5948465,1.0913137,-0.09235295,0.26556584,0.1414875,-4.5491323
896,1747638500.3917227,2.8986752,0.90410763,-0.06454645,0.11354123,0.18974443,-5.0481944
897,1747638500.4064996,3.031183,0.7584284,0.0037807084,0.08857285,0.3198549,-6.288902
898,1747638500.4075665,3.031183,0.7584284,0.0037807084,0.08857285,0.3198549,-6.288902
899,1747638500.42186,3.1771367,0.50606614,0.089700356,0.11911522,0.33634776,-6.507585
900,1747638500.4376261,3.2767155,0.25519782,0.07994369,0.17271706,0.36994436,-6.984046
901,1747638500.438623,3.2767155,0.25519782,0.07994369,0.17271706,0.36994436,-6.984046
902,1747638500.45287,3.3328469,-0.20190202,0.062107284,0.27923355,0.4206447,-7.630322
903,1747638500.4682124,2.8401048,-0.8527632,0.0045124586,0.4892123,0.46523654,-8.415338
904,1747638500.469273,2.8401048,-0.8527632,0.0045124586,0.4892123,0.46523654,-8.415338
905,1747638500.4843004,2.6458557,-0.9874967,-0.002561125,0.55342764,0.40720606,-8.445269
906,1747638500.4853027,2.6458557,-0.9874967,-0.002561125,0.55342764,0.40720606,-8.445269
907,1747638500.4994512,2.2709863,-1.2559268,-0.018171793,0.621308,0.30885965,-8.246057
908,1747638500.514711,2.128234,-1.3455054,-0.03524596,0.63192147,0.5415925,-7.7091217
909,1747638500.515786,1.9276125,-1.39188,-0.000365875,0.63192147,0.5415925,-7.7091217
910,1747638500.529773,1.7472667,-1.448743,0.005488125,0.63192147,0.5415925,-7.7091217
911,1747638500.5453486,1.5513101,-1.4558166,-0.021098793,0.85999656,0.7260683,-7.2363257
912,1747638500.546352,1.5513101,-1.4558166,-0.021098793,0.85999656,0.7260683,-7.2363257
913,1747638500.5613298,1.0395424,-1.446304,-0.11701902,1.0612707,0.67720056,-6.731155
914,1747638500.5765064,0.60634637,-1.5792994,-0.23562351,1.2419288,0.52815384,-6.211935
915,1747638500.5775068,0.60634637,-1.5792994,-0.23562351,1.2419288,0.52815384,-6.211935
916,1747638500.592116,-0.18315093,-1.8784938,-0.39645606,1.390212,0.040010497,-5.618726
917,1747638500.6077144,-1.287941,-2.0324967,-0.8044982,1.1167052,-0.5995466,-3.674399
918,1747638500.608715,-1.287941,-2.0324967,-0.8044982,1.1167052,-0.5995466,-3.674399
919,1747638500.6228828,-1.6269242,-2.109117,-0.8850212,0.6562027,-0.69789296,-2.3188527
920,1747638500.6243134,-1.6269242,-2.109117,-0.8850212,0.6562027,-0.69789296,-2.3188527
921,1747638500.6384215,-1.7950741,-2.151345,-0.90310144,0.109188944,-0.7235486,-0.869312
922,1747638500.6537971,-1.7284545,-2.288975,-0.77031934,-0.77127105,-0.5830537,1.3927318
923,1747638500.6537971,-1.7284545,-2.288975,-0.77031934,-0.77127105,-0.5830537,1.3927318
924,1747638500.669152,-1.3982524,-2.2011344,-0.393773,-1.1762627,-1.173743,3.6150703
925,1747638500.684811,-1.2022958,-2.0820422,-0.26708874,-1.1133455,-1.4632846,4.521568
926,1747638500.6858137,-1.2022958,-2.0820422,-0.26708874,-1.1133455,-1.4632846,4.521568
927,1747638500.700012,-0.6473243,-1.8723959,-0.115555525,-0.9849912,-1.6440954,6.090911
928,1747638500.7153811,-0.055277612,-1.7420833,-0.016220458,-0.8896227,-1.6172181,7.1238537
929,1747638500.7163622,-0.055277612,-1.7420833,-0.016220458,-0.8896227,-1.6172181,7.1238537
930,1747638500.7305024,0.67686874,-1.5385349,0.034056865,-0.82296395,-1.3918154,8.021264
931,1747638500.7465973,1.3045579,-1.3437979,0.105067104,-0.79929364,-1.1645803,8.36395
932,1747638500.7476525,1.3045579,-1.3437979,0.105067104,-0.79929364,-1.1645803,8.36395
933,1747638500.7616162,1.646468,-1.1658912,0.11043327,-0.72759545,-0.74553907,8.545982
934,1747638500.777237,1.7812015,-1.0489942,0.16071059,-0.72079974,-0.47126865,8.6693735
935,1747638500.7782383,2.0596323,-0.86889213,0.33422682,-0.72079974,-0.47126865,8.6693735
936,1747638500.793269,2.3754435,-0.81861484,0.3913338,-0.4298074,-0.31855685,9.040157
937,1747638500.794469,2.3754435,-0.81861484,0.3913338,0.09796463,-0.5079195,8.636998
938,1747638500.8083012,3.2254624,-0.31050593,0.14851476,0.37521294,-0.5879405,8.14832
939,1747638500.8240862,3.218389,-0.10329871,-0.08747462,0.34657946,-0.40896225,7.906425
940,1747638500.8251402,3.218389,-0.10329871,-0.08747462,0.34657946,-0.40896225,7.906425
941,1747638500.8393526,3.01606,0.32767156,0.16754027,0.26556584,0.28259322,7.927194
942,1747638500.8546293,3.9173322,0.55683124,0.32861674,1.0686773,-0.1615691,7.7004933
943,1747638500.855686,3.9173322,0.55683124,0.32861674,1.0686773,-0.1615691,7.7004933
944,1747638500.8700216,4.2448516,0.90581506,0.115799434,1.5397933,-0.42728767,6.792774
945,1747638500.8852394,4.156005,1.3199855,-0.17363818,1.6301223,-0.30939415,5.662707
946,1747638500.8862393,4.0027337,1.6140575,-0.23220867,1.6301223,-0.30939415,5.662707
947,1747638500.900492,3.6278949,1.9952384,-0.17315035,1.0961654,-0.10903624,3.4293728
948,1747638500.9164183,3.3689466,2.1599736,-0.10921369,0.93291646,-0.09804098,2.5393684
949,1747638500.9174821,3.3689466,2.1599736,-0.10921369,0.93291646,-0.09804098,2.5393684
950,1747638500.9311733,3.23839,2.3642538,-0.009390792,0.9453625,-0.15179555,1.1618315
951,1747638500.946314,3.3198888,2.2383318,-0.27297324,0.76966757,-0.029626092,-0.76546794
952,1747638500.947369,3.3198888,2.2383318,-0.27297324,0.76966757,-0.029626092,-0.76546794
953,1747638500.9621882,3.2396097,2.036491,-0.34764224,0.4356868,0.18791188,-2.0903957
954,1747638500.9772887,3.0341098,1.7878177,-0.33886123,0.10483666,0.40964943,-3.6554627
955,1747638500.9782898,2.86035,1.5745126,-0.29541358,0.10483666,0.40964943,-3.6554627
956,1747638500.9927597,2.6292388,1.1815933,-0.22147635,0.17393875,0.058946762,-4.7922497
957,1747638501.0080345,2.7007673,0.9614585,-0.23245259,0.17393875,0.058946762,-4.7922497
958,1747638501.00911,2.7007673,0.9614585,-0.23245259,0.17393875,0.058946762,-4.7922497
959,1747638501.0237422,3.115639,0.5343909,-0.22684251,0.09918632,-0.23059484,-5.4360824
960,1747638501.024744,3.115639,0.5343909,-0.22684251,0.09918632,-0.23059484,-5.4360824
961,1747638501.0386477,3.3674831,0.012622688,-0.11409202,-0.1880646,-0.23609246,-6.5485115
962,1747638501.054694,3.390198,-0.23117203,-0.060887698,-0.33573693,0.0045813546,-7.02314
963,1747638501.0557716,3.390198,-0.23117203,-0.060887698,-0.33573693,0.0045813546,-7.02314
964,1747638501.0696251,3.2583914,-0.5723505,-0.000365875,-0.48898324,0.5067741,-7.5900064
965,1747638501.0847695,2.884284,-0.9013331,0.105067104,-0.2833568,0.61672664,-8.020654
966,1747638501.0857697,2.5919194,-1.0894843,0.1521735,-0.2833568,0.61672664,-8.020654
967,1747638501.1005569,2.5919194,-1.0894843,0.1521735,-0.046577103,0.48478365,-7.994998
968,1747638501.1155746,2.1902192,-1.3257481,0.27175367,0.19577655,0.33512607,-7.9198637
969,1747638501.116528,2.019386,-1.3960266,0.2280621,0.50608695,0.163478,-7.690185
970,1747638501.1309664,1.8492846,-1.4424013,0.08652944,0.7578324,0.22089764,-7.4250774
971,1747638501.146208,1.6271986,-1.5021913,-0.03158721,0.75844324,0.43347248,-7.2442665
972,1747638501.1472783,1.6271986,-1.5021913,-0.03158721,0.75844324,0.43347248,-7.2442665
973,1747638501.1615148,1.1542442,-1.5314612,-0.13921544,0.6269584,0.85617876,-6.876537
974,1747638501.177213,0.4701799,-1.7901654,-0.08845028,0.71171343,0.9166527,-6.4342833
975,1747638501.178211,0.4701799,-1.7901654,-0.08845028,0.71171343,0.9166527,-6.4342833
976,1747638501.1926973,0.018446198,-1.8375157,-0.0945482,0.9995752,0.47073418,-6.126416
977,1747638501.2076771,-0.7695876,-1.7672068,-0.38816288,1.2326134,-0.09804098,-5.5802426
978,1747638501.2086792,-0.7695876,-1.7672068,-0.38816288,1.2780452,-0.37292224,-5.0072675
979,1747638501.2225366,-1.1190592,-1.718393,-0.61387724,1.1042591,-0.4187358,-4.0952725
980,1747638501.2385411,-1.5546944,-1.7083925,-0.859166,-0.14751962,-0.037567105,-1.8265097
981,1747638501.2396073,-1.5546944,-1.7083925,-0.859166,-0.14751962,-0.037567105,-1.8265097
982,1747638501.2538624,-1.5917697,-1.7960194,-0.8274264,-0.7543964,-0.011911522,-0.88824826
983,1747638501.254919,-1.5917697,-1.7960194,-0.8274264,-0.7543964,-0.011911522,-0.88824826
984,1747638501.2691545,-1.5912819,-1.9034038,-0.60046184,-1.5588058,-0.36803547,0.7421794
985,1747638501.2848053,-1.5127102,-1.7967511,-0.31517082,-1.6934214,-0.71682924,1.7555751
986,1747638501.2858076,-1.5127102,-1.7967511,-0.31517082,-1.6385977,-0.9862129,2.67742
987,1747638501.2997663,-1.2757452,-1.6983918,-0.19973727,-1.5183372,-1.2433796,3.6981456
988,1747638501.3149815,-0.97118473,-1.6644872,-0.14360595,-1.3718866,-1.4156386,4.413448
989,1747638501.3156788,-0.55042845,-1.6256741,-0.10018878,-1.3718866,-1.4156386,4.413448
990,1747638501.3302307,-0.019879209,-1.4978007,-0.08503545,-0.83357745,-1.4816101,6.2387357
991,1747638501.346193,0.26321658,-1.4633781,-0.08064495,-0.7201889,-1.4076976,6.668772
992,1747638501.3471954,0.26321658,-1.4633781,-0.08064495,-0.7201889,-1.4076976,6.668772
993,1747638501.3613586,0.9726482,-1.3372121,-0.058692448,-0.48463094,-1.2232217,7.3797984
994,1747638501.3774111,2.0245085,-0.98310614,-0.095523864,-0.30954686,-1.437629,7.5471706
995,1747638501.3784118,2.0245085,-0.98310614,-0.095523864,-0.30954686,-1.437629,7.5471706
996,1747638501.3924358,2.2614734,-0.7732159,-0.12897095,-0.3070271,-1.3466128,7.410341
997,1747638501.4078465,2.4078844,-0.37785742,-0.14628904,-0.45408857,-0.82250583,7.3559756
998,1747638501.4089303,2.4078844,-0.37785742,-0.14628904,-0.45408857,-0.82250583,7.3559756
999,1747638501.4237678,2.3066285,-0.19141361,-0.03597771,-0.57496,-0.48898324,7.6907196
